deltaTime,Acc_X,Acc_Y,Acc_Z,Gyro_X,Gyro_Y,Gyro_Z
0.0,2.051,-4.209,5.978,0.407,-1.108,-0.41
3.0,2.1,-4.421,5.669,0.022,-1.039,-0.34
6.0,2.1,-4.421,5.669,0.022,-1.039,-0.34
9.0,2.1,-4.421,5.669,0.022,-1.039,-0.34
12.0,2.315,-5.148,5.785,-0.387,-0.946,-0.234
15.0,2.315,-5.148,5.785,-0.387,-0.946,-0.234
18.0,2.315,-5.148,5.785,-0.387,-0.946,-0.234
21.0,2.619,-5.873,6.519,-0.387,-0.946,-0.234
24.0,2.619,-5.873,6.519,-0.734,-0.831,-0.105
27.0,2.619,-5.873,6.519,-0.734,-0.831,-0.105
30.0,2.619,-5.873,6.519,-0.734,-0.831,-0.105
33.0,1.943,-6.878,7.247,-0.992,-0.73,-0.038
37.0,1.943,-6.878,7.247,-0.992,-0.73,-0.038
41.0,1.468,-8.023,7.795,-0.992,-0.73,-0.038
45.0,1.468,-8.023,7.795,-1.09,-0.69,-0.023
49.0,1.468,-8.023,7.795,-1.09,-0.69,-0.023
52.0,1.651,-8.925,7.993,-0.973,-0.682,-0.016
56.0,1.651,-8.925,7.993,-0.973,-0.682,-0.016
60.0,1.651,-8.925,7.993,-0.973,-0.682,-0.016
64.0,2.353,-9.61,7.701,-0.678,-0.684,-0.027
68.0,2.353,-9.61,7.701,-0.678,-0.684,-0.027
71.0,2.987,-9.642,7.021,-0.333,-0.672,-0.086
75.0,2.987,-9.642,7.021,-0.333,-0.672,-0.086
79.0,2.987,-9.642,7.021,-0.333,-0.672,-0.086
83.0,3.319,-9.375,6.464,-0.095,-0.632,-0.196
87.0,3.319,-9.375,6.464,-0.095,-0.632,-0.196
91.0,3.69,-9.181,6.389,-0.095,-0.632,-0.298
94.0,3.69,-9.181,6.389,0.021,-0.571,-0.298
98.0,3.69,-9.181,6.389,0.021,-0.571,-0.298
102.0,4.168,-8.852,6.775,0.075,-0.516,-0.377
106.0,4.168,-8.852,6.775,0.075,-0.516,-0.377
110.0,4.168,-8.852,6.775,0.075,-0.516,-0.377
113.0,4.475,-8.425,7.228,0.1,-0.488,-0.435
117.0,4.475,-8.425,7.228,0.1,-0.488,-0.435
121.0,4.243,-7.871,7.457,0.1,-0.487,-0.461
125.0,4.243,-7.871,7.457,0.1,-0.487,-0.461
129.0,4.243,-7.871,7.457,0.1,-0.487,-0.461
132.0,4.004,-7.459,7.357,0.067,-0.495,-0.443
136.0,4.004,-7.459,7.357,0.067,-0.495,-0.443
140.0,3.703,-7.047,6.975,0.067,-0.497,-0.39
144.0,3.703,-7.047,6.975,-0.03,-0.497,-0.39
148.0,3.703,-7.047,6.975,-0.03,-0.497,-0.39
152.0,2.9,-7.101,6.602,-0.223,-0.474,-0.318
156.0,2.9,-7.101,6.602,-0.223,-0.474,-0.318
160.0,2.391,-7.762,6.428,-0.223,-0.474,-0.318
163.0,2.391,-7.762,6.428,-0.452,-0.415,-0.214
167.0,2.391,-7.762,6.428,-0.452,-0.415,-0.214
171.0,1.938,-8.669,6.438,-0.635,-0.327,-0.112
175.0,1.938,-8.669,6.438,-0.635,-0.327,-0.112
179.0,1.938,-9.614,6.75,-0.635,-0.327,-0.112
183.0,1.177,-9.614,6.75,-0.721,-0.229,-0.049
187.0,1.177,-9.614,6.75,-0.721,-0.229,-0.049
191.0,0.704,-10.353,7.198,-0.671,-0.165,-0.016
195.0,0.704,-10.353,7.198,-0.671,-0.165,-0.016
199.0,0.704,-10.649,7.329,-0.671,-0.165,-0.016
203.0,0.309,-10.649,7.329,-0.5,-0.129,-0.016
207.0,0.309,-10.649,7.329,-0.5,-0.129,-0.016
211.0,0.571,-10.549,7.018,-0.258,-0.131,-0.02
215.0,0.571,-10.549,7.018,-0.258,-0.131,-0.02
219.0,1.201,-10.244,6.543,-0.258,-0.131,-0.02
223.0,1.201,-10.244,6.543,0.012,-0.149,0.035
227.0,1.201,-10.244,6.543,0.012,-0.149,0.035
230.0,1.801,-9.787,6.255,0.233,-0.139,0.123
234.0,1.801,-9.787,6.255,0.233,-0.139,0.123
238.0,1.801,-9.787,6.255,0.233,-0.139,0.123
242.0,2.054,-9.294,6.145,0.353,-0.104,0.206
245.0,2.054,-9.294,6.145,0.353,-0.104,0.206
249.0,2.346,-9.272,6.054,0.387,-0.08,0.267
253.0,2.346,-9.272,6.054,0.387,-0.08,0.267
256.0,2.346,-9.272,6.054,0.387,-0.08,0.267
260.0,2.513,-9.014,5.878,0.414,-0.017,0.323
264.0,2.513,-9.014,5.878,0.414,-0.017,0.323
268.0,2.513,-9.014,5.554,0.414,-0.017,0.323
271.0,2.593,-8.324,5.554,0.464,0.066,0.373
275.0,2.593,-8.324,5.554,0.464,0.066,0.373
279.0,2.662,-7.024,5.129,0.482,0.149,0.434
282.0,2.662,-7.024,5.129,0.482,0.149,0.434
286.0,2.662,-7.024,5.129,0.482,0.149,0.434
290.0,2.38,-5.582,4.801,0.396,0.267,0.527
293.0,2.38,-5.582,4.801,0.396,0.267,0.527
297.0,2.38,-5.582,4.801,0.396,0.267,0.527
301.0,1.639,-4.265,4.467,0.237,0.368,0.651
304.0,1.639,-4.265,4.467,0.237,0.368,0.651
308.0,1.309,-2.959,3.887,0.237,0.47,0.802
312.0,1.309,-2.959,3.887,0.026,0.47,0.802
315.0,1.309,-2.959,3.887,0.026,0.47,0.802
319.0,-0.04,-2.091,3.264,-0.225,0.612,0.991
323.0,-0.04,-2.091,3.264,-0.225,0.612,0.991
326.0,-0.04,-2.091,3.264,-0.225,0.612,0.991
330.0,-1.145,-1.806,2.649,-0.452,0.722,1.247
334.0,-1.145,-1.806,2.649,-0.452,0.722,1.247
338.0,-2.238,-1.746,2.127,-0.602,0.847,1.529
342.0,-2.238,-1.746,2.127,-0.602,0.847,1.529
346.0,-2.238,-1.746,2.127,-0.602,0.847,1.529
349.0,-3.196,-1.778,1.759,-0.647,0.953,1.831
353.0,-3.196,-1.778,1.759,-0.647,0.953,1.831
357.0,-4.024,-1.836,1.451,-0.647,0.953,2.171
361.0,-4.024,-1.836,1.451,-0.587,1.043,2.171
365.0,-4.024,-1.836,1.451,-0.587,1.043,2.171
368.0,-4.869,-1.857,1.165,-0.446,1.13,2.541
372.0,-4.869,-1.857,1.165,-0.446,1.13,2.541
376.0,-4.869,-1.857,1.165,-0.446,1.13,2.541
380.0,-5.846,-1.799,0.948,-0.259,1.206,2.93
384.0,-5.846,-1.799,0.948,-0.259,1.206,2.93
388.0,-6.741,-1.795,0.817,-0.076,1.283,3.357
391.0,-6.741,-1.795,0.817,-0.076,1.283,3.357
395.0,-6.741,-1.795,0.817,-0.076,1.283,3.357
399.0,-7.511,-1.856,0.751,0.08,1.369,3.805
403.0,-7.511,-1.856,0.751,0.08,1.369,3.805
406.0,-8.079,-1.941,0.731,0.08,1.369,4.247
410.0,-8.079,-1.941,0.731,0.2,1.467,4.247
414.0,-8.079,-1.941,0.731,0.2,1.467,4.247
418.0,-8.48,-1.931,0.67,0.279,1.576,4.665
421.0,-8.48,-1.931,0.67,0.279,1.576,4.665
425.0,-8.48,-1.931,0.67,0.279,1.576,4.665
429.0,-8.761,-1.868,0.54,0.309,1.699,4.968
433.0,-8.761,-1.868,0.54,0.309,1.699,4.968
436.0,-8.963,-1.759,0.456,0.288,1.843,5.013
440.0,-8.963,-1.759,0.456,0.288,1.843,5.013
444.0,-8.963,-1.759,0.456,0.288,1.843,5.013
448.0,-9.134,-1.663,0.383,0.226,1.994,5.013
451.0,-9.134,-1.663,0.383,0.226,1.994,5.013
455.0,-9.134,-1.663,0.383,0.226,1.994,5.013
459.0,-9.438,-1.686,0.37,0.135,2.141,5.013
462.0,-9.438,-1.686,0.37,0.135,2.141,5.013
466.0,-10.002,-1.825,0.375,0.018,2.289,5.013
470.0,-10.002,-1.825,0.375,0.018,2.289,5.013
474.0,-10.002,-1.825,0.375,0.018,2.289,5.013
478.0,-10.744,-1.918,0.224,-0.118,2.422,5.013
482.0,-10.744,-1.918,0.224,-0.118,2.422,5.013
485.0,-11.417,-2.083,-0.007,-0.118,2.422,5.013
489.0,-11.417,-2.083,-0.007,-0.263,2.52,5.013
493.0,-11.417,-2.083,-0.007,-0.263,2.52,5.013
497.0,-12.204,-2.454,-0.037,-0.417,2.597,5.013
501.0,-12.204,-2.454,-0.037,-0.417,2.597,5.013
505.0,-13.143,-2.907,0.075,-0.569,2.658,5.013
509.0,-13.143,-2.907,0.075,-0.569,2.658,5.013
513.0,-13.143,-2.907,0.075,-0.569,2.658,5.013
517.0,-14.079,-3.41,0.367,-0.71,2.712,5.013
521.0,-14.079,-3.41,0.367,-0.71,2.712,5.013
525.0,-15.019,-3.813,0.706,-0.71,2.766,5.013
529.0,-15.019,-3.813,0.706,-0.835,2.766,5.013
533.0,-15.019,-3.813,0.706,-0.835,2.766,5.013
537.0,-15.993,-4.108,0.966,-0.951,2.814,5.013
541.0,-15.993,-4.108,0.966,-0.951,2.814,5.013
544.0,-16.829,-4.365,1.184,-0.951,2.814,5.013
548.0,-16.829,-4.365,1.184,-1.059,2.85,5.013
552.0,-16.829,-4.365,1.184,-1.059,2.85,5.013
556.0,-17.511,-4.631,1.341,-1.146,2.883,5.013
560.0,-17.511,-4.631,1.341,-1.146,2.883,5.013
564.0,-18.061,-4.832,1.468,-1.146,2.883,5.013
568.0,-18.061,-4.832,1.468,-1.198,2.903,5.013
572.0,-18.061,-4.832,1.468,-1.198,2.903,5.013
576.0,-18.569,-4.892,1.635,-1.207,2.9,5.013
580.0,-18.569,-4.892,1.635,-1.207,2.9,5.013
584.0,-18.569,-4.892,1.965,-1.207,2.9,5.013
587.0,-19.229,-4.734,1.965,-1.17,2.864,5.013
591.0,-19.229,-4.734,1.965,-1.17,2.864,5.013
595.0,-19.6,-4.394,2.198,-1.094,2.775,5.013
599.0,-19.6,-4.394,2.198,-1.094,2.775,5.013
603.0,-19.6,-4.394,2.198,-1.094,2.775,5.013
607.0,-19.6,-4.301,2.461,-0.973,2.614,5.013
611.0,-19.6,-4.301,2.461,-0.973,2.614,5.013
615.0,-19.6,-4.366,2.694,-0.788,2.377,5.013
619.0,-19.6,-4.366,2.694,-0.788,2.377,5.013
623.0,-19.6,-4.366,2.694,-0.788,2.377,5.013
627.0,-19.6,-4.381,2.687,-0.539,2.101,5.013
630.0,-19.6,-4.381,2.687,-0.539,2.101,5.013
634.0,-19.6,-4.248,2.511,-0.258,1.829,5.013
638.0,-19.6,-4.248,2.511,-0.258,1.829,5.013
642.0,-19.6,-4.248,2.511,-0.258,1.829,5.013
646.0,-19.6,-3.838,2.261,0.009,1.608,5.013
650.0,-19.6,-3.838,2.261,0.009,1.608,5.013
654.0,-19.6,-3.295,2.048,0.237,1.464,5.013
658.0,-19.6,-3.295,2.048,0.237,1.464,5.013
661.0,-19.6,-3.295,2.048,0.237,1.464,5.013
665.0,-19.6,-2.616,1.738,0.414,1.365,5.012
669.0,-19.6,-2.616,1.738,0.414,1.365,5.012
673.0,-19.6,-1.776,1.492,0.414,1.365,5.012
677.0,-19.6,-1.776,1.492,0.527,1.289,4.921
680.0,-19.6,-1.776,1.492,0.527,1.289,4.921
684.0,-19.6,-0.968,1.256,0.577,1.225,4.639
688.0,-19.6,-0.968,1.256,0.577,1.225,4.639
692.0,-19.6,-0.968,1.256,0.577,1.225,4.639
696.0,-19.6,-0.401,0.787,0.582,1.168,4.406
700.0,-19.6,-0.401,0.787,0.582,1.168,4.406
703.0,-19.6,-0.192,-0.028,0.562,1.151,4.257
707.0,-19.6,-0.192,-0.028,0.562,1.151,4.257
711.0,-19.6,-0.192,-0.028,0.562,1.151,4.257
715.0,-19.6,-0.243,-1.192,0.53,1.203,4.155
719.0,-19.6,-0.243,-1.192,0.53,1.203,4.155
723.0,-19.6,-0.343,-2.333,0.481,1.313,4.067
727.0,-19.6,-0.343,-2.333,0.481,1.313,4.067
731.0,-19.6,-0.343,-2.333,0.481,1.313,4.067
735.0,-19.6,-0.239,-2.94,0.428,1.457,3.978
739.0,-19.6,-0.239,-2.94,0.428,1.457,3.978
742.0,-19.6,-0.034,-2.807,0.387,1.592,3.908
746.0,-19.6,-0.034,-2.807,0.387,1.592,3.908
750.0,-19.6,-0.034,-2.807,0.387,1.592,3.908
754.0,-19.6,-0.044,-2.137,0.374,1.698,3.868
758.0,-19.6,-0.044,-2.137,0.374,1.698,3.868
762.0,-19.6,-0.261,-1.574,0.374,1.776,3.843
766.0,-19.6,-0.261,-1.574,0.399,1.776,3.843
770.0,-19.6,-0.261,-1.574,0.399,1.776,3.843
774.0,-19.6,-0.551,-1.356,0.446,1.812,3.823
778.0,-19.6,-0.551,-1.356,0.446,1.812,3.823
781.0,-19.6,-0.416,-1.031,0.446,1.812,3.764
785.0,-19.6,-0.416,-1.031,0.424,1.786,3.764
789.0,-19.6,-0.416,-1.031,0.424,1.786,3.764
793.0,-19.071,-0.286,-0.587,0.344,1.702,3.698
797.0,-19.071,-0.286,-0.587,0.344,1.702,3.698
801.0,-16.934,-0.007,-0.242,0.344,1.702,3.698
805.0,-16.934,-0.007,-0.242,0.232,1.573,3.599
809.0,-16.934,-0.007,-0.242,0.232,1.573,3.599
813.0,-14.418,0.297,0.192,0.083,1.421,3.443
816.0,-14.418,0.297,0.192,0.083,1.421,3.443
820.0,-14.418,0.297,0.192,0.083,1.421,3.443
824.0,-12.065,0.605,0.628,-0.086,1.259,3.234
828.0,-12.065,0.605,0.628,-0.086,1.259,3.234
832.0,-10.101,1.131,0.695,-0.271,1.104,3.003
835.0,-10.101,1.131,0.695,-0.271,1.104,3.003
839.0,-10.101,1.131,0.695,-0.271,1.104,3.003
843.0,-8.5,1.451,0.77,-0.47,0.998,2.804
847.0,-8.5,1.451,0.77,-0.47,0.998,2.804
850.0,-7.333,1.268,1.165,-0.47,0.998,2.656
854.0,-7.333,1.268,1.165,-0.683,0.948,2.656
858.0,-7.333,1.268,1.165,-0.683,0.948,2.656
862.0,-6.474,0.7,1.816,-0.894,0.925,2.539
865.0,-6.474,0.7,1.816,-0.894,0.925,2.539
869.0,-6.474,0.7,1.816,-0.894,0.925,2.539
873.0,-5.812,-0.068,2.523,-1.068,0.874,2.413
877.0,-5.812,-0.068,2.523,-1.068,0.874,2.413
881.0,-5.086,-0.814,3.037,-1.178,0.769,2.244
884.0,-5.086,-0.814,3.037,-1.178,0.769,2.244
888.0,-5.086,-0.814,3.037,-1.178,0.769,2.244
892.0,-4.013,-1.405,3.366,-1.222,0.613,2.02
896.0,-4.013,-1.405,3.366,-1.222,0.613,2.02
900.0,-2.715,-1.711,3.378,-1.222,0.613,2.02
903.0,-2.715,-1.711,3.378,-1.207,0.441,1.746
907.0,-2.715,-1.711,3.378,-1.207,0.441,1.746
911.0,-1.944,-1.729,3.099,-1.159,0.321,1.457
915.0,-1.944,-1.729,3.099,-1.159,0.321,1.457
919.0,-1.944,-1.729,3.099,-1.159,0.321,1.457
923.0,-1.809,-1.767,2.943,-1.106,0.284,1.184
926.0,-1.809,-1.767,2.943,-1.106,0.284,1.184
930.0,-2.051,-1.807,3.023,-1.057,0.285,0.929
934.0,-2.051,-1.807,3.023,-1.057,0.285,0.929
938.0,-2.051,-1.807,3.023,-1.057,0.285,0.929
942.0,-2.404,-1.858,3.139,-0.999,0.258,0.677
945.0,-2.404,-1.858,3.139,-0.999,0.258,0.677
949.0,-2.636,-1.812,3.105,-0.999,0.258,0.424
953.0,-2.636,-1.812,3.105,-0.913,0.188,0.424
957.0,-2.636,-1.812,3.105,-0.913,0.188,0.424
961.0,-2.515,-1.928,2.902,-0.788,0.1,0.192
965.0,-2.515,-1.928,2.902,-0.788,0.1,0.192
968.0,-2.515,-1.928,2.758,-0.788,0.1,0.192
972.0,-2.135,-2.101,2.758,-0.618,0.043,-0.026
976.0,-2.135,-2.101,2.758,-0.618,0.043,-0.026
980.0,-1.695,-2.398,2.973,-0.401,0.017,-0.243
984.0,-1.695,-2.398,2.973,-0.401,0.017,-0.243
988.0,-1.695,-2.398,2.973,-0.401,0.017,-0.243
992.0,-1.46,-2.619,3.084,-0.149,-0.022,-0.476
996.0,-1.46,-2.619,3.084,-0.149,-0.022,-0.476
1000.0,-1.488,-2.701,3.011,0.132,-0.072,-0.753
1004.0,-1.488,-2.701,3.011,0.132,-0.072,-0.753
1008.0,-1.488,-2.701,3.011,0.132,-0.072,-0.753
1012.0,-1.871,-2.54,2.815,0.423,-0.138,-1.066
1016.0,-1.871,-2.54,2.815,0.423,-0.138,-1.066
1020.0,-2.42,-2.143,2.329,0.705,-0.22,-1.392
1024.0,-2.42,-2.143,2.329,0.705,-0.22,-1.392
1028.0,-2.42,-2.143,1.781,0.705,-0.22,-1.392
1032.0,-2.892,-1.698,1.781,0.96,-0.307,-1.718
1036.0,-2.892,-1.698,1.781,0.96,-0.307,-1.718
1040.0,-3.135,-1.269,1.328,1.168,-0.405,-2.027
1044.0,-3.135,-1.269,1.328,1.168,-0.405,-2.027
1048.0,-3.245,-0.842,0.789,1.168,-0.405,-2.027
1052.0,-3.245,-0.842,0.789,1.316,-0.512,-2.303
1056.0,-3.245,-0.842,0.789,1.316,-0.512,-2.303
1060.0,-3.229,-0.576,0.348,1.403,-0.603,-2.535
1064.0,-3.229,-0.576,0.348,1.403,-0.603,-2.535
1068.0,-3.197,-0.447,0.21,1.403,-0.603,-2.535
1072.0,-3.197,-0.447,0.21,1.431,-0.678,-2.721
1076.0,-3.197,-0.447,0.21,1.431,-0.678,-2.721
1080.0,-3.45,-0.371,0.153,1.406,-0.731,-2.878
1084.0,-3.45,-0.371,0.153,1.406,-0.731,-2.878
1088.0,-3.913,-0.348,0.299,1.406,-0.77,-3.026
1092.0,-3.913,-0.348,0.299,1.336,-0.77,-3.026
1096.0,-3.913,-0.348,0.299,1.336,-0.77,-3.026
1100.0,-4.573,-0.307,0.431,1.23,-0.831,-3.179
1104.0,-4.573,-0.307,0.431,1.23,-0.831,-3.179
1108.0,-5.261,-0.304,0.293,1.093,-0.915,-3.332
1112.0,-5.261,-0.304,0.293,1.093,-0.915,-3.332
1115.0,-5.261,-0.304,0.293,1.093,-0.915,-3.332
1119.0,-5.695,-0.305,0.047,0.931,-0.997,-3.479
1123.0,-5.695,-0.305,0.047,0.931,-0.997,-3.479
1127.0,-5.782,-0.355,-0.09,0.753,-1.062,-3.605
1132.0,-5.782,-0.355,-0.09,0.753,-1.062,-3.605
1136.0,-5.782,-0.355,-0.09,0.753,-1.062,-3.605
1140.0,-5.609,-0.425,-0.054,0.57,-1.103,-3.7
1144.0,-5.609,-0.425,-0.054,0.57,-1.103,-3.7
1148.0,-5.361,-0.634,0.13,0.397,-1.12,-3.756
1152.0,-5.361,-0.634,0.13,0.397,-1.12,-3.756
1156.0,-5.361,-0.634,0.493,0.397,-1.12,-3.756
1160.0,-5.55,-0.991,0.493,0.243,-1.119,-3.782
1164.0,-5.55,-0.991,0.493,0.243,-1.119,-3.782
1168.0,-6.316,-1.333,0.684,0.115,-1.117,-3.797
1172.0,-6.316,-1.333,0.684,0.115,-1.117,-3.797
1176.0,-6.316,-1.643,0.673,0.115,-1.117,-3.797
1180.0,-7.3,-1.643,0.673,0.016,-1.128,-3.819
1184.0,-7.3,-1.643,0.673,0.016,-1.128,-3.819
1188.0,-8.228,-2.043,0.622,-0.05,-1.165,-3.843
1192.0,-8.228,-2.043,0.622,-0.05,-1.165,-3.843
1196.0,-8.981,-2.462,0.484,-0.05,-1.165,-3.869
1200.0,-8.981,-2.462,0.484,-0.075,-1.224,-3.869
1204.0,-8.981,-2.462,0.484,-0.075,-1.224,-3.869
1208.0,-9.522,-2.841,0.34,-0.059,-1.287,-3.903
1212.0,-9.522,-2.841,0.34,-0.059,-1.287,-3.903
1216.0,-9.969,-3.266,0.381,-0.022,-1.348,-3.947
1220.0,-9.969,-3.266,0.381,-0.022,-1.348,-3.947
1225.0,-9.969,-3.266,0.381,-0.022,-1.348,-3.947
1229.0,-10.634,-3.763,0.571,0.013,-1.399,-4.015
1233.0,-10.634,-3.763,0.571,0.013,-1.399,-4.015
1237.0,-11.618,-4.069,0.665,0.03,-1.435,-4.134
1241.0,-11.618,-4.069,0.665,0.03,-1.435,-4.134
1245.0,-11.618,-4.25,0.747,0.03,-1.435,-4.134
1249.0,-12.58,-4.25,0.747,0.01,-1.48,-4.296
1253.0,-12.58,-4.25,0.747,0.01,-1.48,-4.296
1257.0,-13.052,-4.518,0.798,-0.049,-1.537,-4.495
1261.0,-13.052,-4.518,0.798,-0.049,-1.537,-4.495
1265.0,-13.089,-4.811,0.894,-0.127,-1.575,-4.736
1270.0,-13.089,-4.811,0.894,-0.127,-1.575,-4.736
1274.0,-13.089,-4.811,0.894,-0.127,-1.575,-4.736
1278.0,-13.012,-4.924,1.101,-0.212,-1.58,-4.953
1282.0,-13.012,-4.924,1.101,-0.212,-1.58,-4.953
1286.0,-13.0,-4.881,1.44,-0.301,-1.562,-4.995
1290.0,-13.0,-4.881,1.44,-0.301,-1.562,-4.995
1295.0,-13.117,-5.083,2.055,-0.301,-1.562,-4.995
1299.0,-13.117,-5.083,2.055,-0.394,-1.529,-4.995
1303.0,-13.117,-5.083,2.055,-0.394,-1.529,-4.995
1307.0,-13.546,-5.88,3.022,-0.486,-1.492,-4.995
1311.0,-13.546,-5.88,3.022,-0.486,-1.492,-4.995
1315.0,-14.669,-7.208,4.192,-0.548,-1.477,-4.995
1320.0,-14.669,-7.208,4.192,-0.548,-1.477,-4.995
1324.0,-14.669,-9.02,5.177,-0.548,-1.477,-4.995
1328.0,-16.366,-9.02,5.177,-0.536,-1.513,-4.995
1332.0,-16.366,-9.02,5.177,-0.536,-1.513,-4.995
1336.0,-18.48,-11.207,5.9,-0.434,-1.61,-4.995
1341.0,-18.48,-11.207,5.9,-0.434,-1.61,-4.995
1345.0,-19.593,-13.698,5.999,-0.242,-1.752,-4.995
1349.0,-19.593,-13.698,5.999,-0.242,-1.752,-4.995
1353.0,-19.593,-13.698,5.638,-0.242,-1.752,-4.995
1358.0,-19.6,-15.712,5.638,0.011,-1.908,-4.995
1362.0,-19.6,-15.712,5.638,0.011,-1.908,-4.995
1366.0,-19.6,-17.196,5.378,0.285,-2.037,-4.995
1370.0,-19.6,-17.196,5.378,0.285,-2.037,-4.995
1374.0,-19.6,-18.804,5.679,0.517,-2.125,-4.995
1378.0,-19.6,-18.804,5.679,0.517,-2.125,-4.995
1383.0,-19.6,-18.804,5.679,0.517,-2.125,-4.995
1387.0,-19.6,-19.6,6.536,0.672,-2.195,-4.995
1391.0,-19.6,-19.6,6.536,0.672,-2.195,-4.995
1395.0,-19.6,-19.6,7.414,0.768,-2.295,-4.995
1399.0,-19.6,-19.6,7.414,0.768,-2.295,-4.995
1403.0,-19.6,-19.6,8.309,0.768,-2.407,-4.995
1408.0,-19.6,-19.6,8.309,0.818,-2.407,-4.995
1412.0,-19.6,-19.6,8.309,0.818,-2.407,-4.995
1416.0,-19.6,-19.6,8.865,0.818,-2.469,-4.995
1420.0,-19.6,-19.6,8.865,0.818,-2.469,-4.995
1424.0,-19.6,-19.6,9.172,0.772,-2.471,-4.995
1428.0,-19.6,-19.6,9.172,0.772,-2.471,-4.995
1433.0,-19.6,-19.313,9.288,0.772,-2.471,-4.995
1437.0,-19.6,-19.313,9.288,0.713,-2.426,-4.995
1441.0,-19.6,-19.313,9.288,0.713,-2.426,-4.995
1445.0,-19.6,-18.421,9.212,0.673,-2.323,-4.995
1449.0,-19.6,-18.421,9.212,0.673,-2.323,-4.995
1453.0,-19.6,-17.569,8.94,0.674,-2.157,-4.995
1458.0,-19.6,-17.569,8.94,0.674,-2.157,-4.995
1462.0,-19.6,-17.569,8.94,0.674,-2.157,-4.995
1466.0,-18.779,-16.423,8.669,0.748,-1.938,-4.995
1470.0,-18.779,-16.423,8.669,0.748,-1.938,-4.995
1474.0,-16.862,-15.018,8.49,0.927,-1.705,-4.995
1478.0,-16.862,-15.018,8.49,0.927,-1.705,-4.995
1483.0,-14.929,-13.271,8.252,1.2,-1.479,-4.995
1487.0,-14.929,-13.271,8.252,1.2,-1.479,-4.995
1491.0,-14.929,-13.271,8.252,1.2,-1.479,-4.995
1495.0,-13.055,-11.331,7.889,1.516,-1.254,-4.995
1499.0,-13.055,-11.331,7.889,1.516,-1.254,-4.995
1503.0,-11.585,-9.598,7.61,1.815,-1.034,-4.995
1508.0,-11.585,-9.598,7.61,1.815,-1.034,-4.995
1512.0,-10.442,-7.729,7.694,1.815,-1.034,-4.995
1516.0,-10.442,-7.729,7.694,2.053,-0.852,-4.995
1520.0,-10.442,-7.729,7.694,2.053,-0.852,-4.995
1524.0,-9.663,-6.078,8.163,2.238,-0.748,-4.995
1528.0,-9.663,-6.078,8.163,2.238,-0.748,-4.995
1532.0,-8.932,-4.592,8.274,2.238,-0.739,-4.995
1536.0,-8.932,-4.592,8.274,2.371,-0.739,-4.995
1540.0,-8.932,-4.592,8.274,2.371,-0.739,-4.995
1544.0,-7.96,-3.487,8.025,2.461,-0.797,-4.995
1548.0,-7.96,-3.487,8.025,2.461,-0.797,-4.995
1552.0,-6.939,-3.038,7.397,2.566,-0.869,-4.995
1556.0,-6.939,-3.038,7.397,2.566,-0.869,-4.995
1560.0,-6.939,-3.038,7.397,2.566,-0.869,-4.995
1564.0,-6.126,-2.739,6.281,2.678,-0.94,-4.993
1568.0,-6.126,-2.739,6.281,2.678,-0.94,-4.993
1572.0,-5.435,-2.929,5.005,2.774,-0.971,-4.822
1576.0,-5.435,-2.929,5.005,2.774,-0.971,-4.822
1580.0,-5.435,-2.929,5.005,2.774,-0.971,-4.822
1584.0,-5.007,-3.039,3.515,2.864,-0.969,-4.338
1588.0,-5.007,-3.039,3.515,2.864,-0.969,-4.338
1592.0,-4.541,-2.849,1.939,2.895,-0.943,-3.806
1596.0,-4.541,-2.849,1.939,2.895,-0.943,-3.806
1600.0,-4.541,-2.849,1.939,2.895,-0.943,-3.806
1604.0,-3.866,-2.614,0.848,2.81,-0.857,-3.249
1608.0,-3.866,-2.614,0.848,2.81,-0.857,-3.249
1612.0,-3.085,-2.596,0.361,2.603,-0.696,-2.67
1616.0,-3.085,-2.596,0.361,2.603,-0.696,-2.67
1620.0,-3.085,-2.596,0.361,2.603,-0.696,-2.67
1624.0,-2.484,-2.947,0.285,2.302,-0.465,-2.098
1628.0,-2.484,-2.947,0.285,2.302,-0.465,-2.098
1632.0,-2.261,-3.379,0.397,1.942,-0.182,-1.57
1636.0,-2.261,-3.379,0.397,1.942,-0.182,-1.57
1640.0,-2.261,-3.379,0.659,1.942,-0.182,-1.57
1644.0,-2.261,-3.882,0.659,1.566,0.1,-1.096
1648.0,-2.261,-3.882,0.659,1.566,0.1,-1.096
1651.0,-2.122,-4.22,0.583,1.215,0.318,-0.695
1655.0,-2.122,-4.22,0.583,1.215,0.318,-0.695
1659.0,-2.122,-4.22,0.176,1.215,0.318,-0.695
1663.0,-1.476,-4.361,0.176,0.922,0.473,-0.382
1667.0,-1.476,-4.361,0.176,0.922,0.473,-0.382
1671.0,-0.413,-4.245,-0.328,0.692,0.596,-0.148
1675.0,-0.413,-4.245,-0.328,0.692,0.596,-0.148
1679.0,-0.413,-4.245,-0.845,0.692,0.596,-0.148
1683.0,0.784,-3.957,-0.845,0.507,0.709,0.039
1687.0,0.784,-3.957,-0.845,0.507,0.709,0.039
1691.0,2.026,-3.726,-1.277,0.37,0.844,0.202
1694.0,2.026,-3.726,-1.277,0.37,0.844,0.202
1698.0,2.026,-3.726,-1.277,0.37,0.844,0.202
1702.0,3.082,-3.503,-1.352,0.278,1.0,0.339
1706.0,3.082,-3.503,-1.352,0.278,1.0,0.339
1710.0,3.84,-3.217,-1.137,0.214,1.129,0.449
1713.0,3.84,-3.217,-1.137,0.214,1.129,0.449
1717.0,3.84,-3.217,-1.137,0.214,1.129,0.449
1721.0,4.259,-2.883,-0.681,0.159,1.224,0.537
1725.0,4.259,-2.883,-0.681,0.159,1.224,0.537
1729.0,4.335,-2.621,-0.151,0.159,1.224,0.537
1733.0,4.335,-2.621,-0.151,0.091,1.277,0.608
1736.0,4.335,-2.621,-0.151,0.091,1.277,0.608
1740.0,4.131,-2.271,0.371,0.004,1.304,0.673
1744.0,4.131,-2.271,0.371,0.004,1.304,0.673
1748.0,4.131,-2.271,0.371,0.004,1.304,0.673
1751.0,3.756,-1.905,0.837,-0.103,1.308,0.752
1755.0,3.756,-1.905,0.837,-0.103,1.308,0.752
1759.0,3.216,-1.647,1.149,-0.222,1.309,0.852
1763.0,3.216,-1.647,1.149,-0.222,1.309,0.852
1767.0,3.216,-1.647,1.149,-0.222,1.309,0.852
1771.0,2.5,-1.51,1.259,-0.347,1.32,0.966
1774.0,2.5,-1.51,1.259,-0.347,1.32,0.966
1778.0,1.649,-1.294,1.227,-0.347,1.32,0.966
1782.0,1.649,-1.294,1.227,-0.476,1.354,1.081
1786.0,1.649,-1.294,1.227,-0.476,1.354,1.081
1790.0,0.748,-1.016,1.016,-0.609,1.409,1.208
1793.0,0.748,-1.016,1.016,-0.609,1.409,1.208
1797.0,0.748,-1.016,1.016,-0.609,1.409,1.208
1801.0,-0.152,-0.598,0.677,-0.749,1.481,1.363
1805.0,-0.152,-0.598,0.677,-0.749,1.481,1.363
1809.0,-0.933,-0.084,0.363,-0.894,1.564,1.569
1813.0,-0.933,-0.084,0.363,-0.894,1.564,1.569
1817.0,-0.933,-0.084,0.363,-0.894,1.564,1.569
1821.0,-1.457,0.309,0.122,-1.029,1.65,1.831
1824.0,-1.457,0.309,0.122,-1.029,1.65,1.831
1828.0,-1.738,0.528,0.026,-1.143,1.72,2.124
1832.0,-1.738,0.528,0.026,-1.143,1.72,2.124
1836.0,-1.738,0.528,0.026,-1.143,1.72,2.124
1840.0,-1.918,0.619,0.095,-1.229,1.77,2.416
1844.0,-1.918,0.619,0.095,-1.229,1.77,2.416
1847.0,-2.14,0.721,0.252,-1.229,1.77,2.689
1851.0,-2.14,0.721,0.252,-1.285,1.811,2.689
1855.0,-2.14,0.721,0.252,-1.285,1.811,2.689
1859.0,-2.412,0.76,0.373,-1.317,1.851,2.95
1863.0,-2.412,0.76,0.373,-1.317,1.851,2.95
1866.0,-2.412,0.76,0.373,-1.317,1.851,2.95
1870.0,-2.713,0.794,0.508,-1.345,1.902,3.211
1874.0,-2.713,0.794,0.508,-1.345,1.902,3.211
1878.0,-3.113,0.875,0.718,-1.375,1.993,3.476
1882.0,-3.113,0.875,0.718,-1.375,1.993,3.476
1886.0,-3.113,0.875,0.718,-1.375,1.993,3.476
1889.0,-3.549,0.887,1.082,-1.428,2.092,3.757
1893.0,-3.549,0.887,1.082,-1.428,2.092,3.757
1897.0,-4.076,0.808,1.506,-1.428,2.183,4.053
1901.0,-4.076,0.808,1.506,-1.5,2.183,4.053
1905.0,-4.076,0.808,1.506,-1.5,2.183,4.053
1908.0,-4.865,0.734,1.798,-1.577,2.277,4.344
1912.0,-4.865,0.734,1.798,-1.577,2.277,4.344
1916.0,-4.865,0.505,1.951,-1.577,2.277,4.344
1920.0,-5.806,0.505,1.951,-1.644,2.396,4.626
1924.0,-5.806,0.505,1.951,-1.644,2.396,4.626
1928.0,-6.765,0.165,2.157,-1.699,2.533,4.895
1931.0,-6.765,0.165,2.157,-1.699,2.533,4.895
1935.0,-6.765,0.165,2.157,-1.699,2.533,4.895
1939.0,-7.738,-0.11,2.504,-1.751,2.673,5.01
1943.0,-7.738,-0.11,2.504,-1.751,2.673,5.01
1947.0,-8.66,-0.461,2.926,-1.814,2.804,5.013
1951.0,-8.66,-0.461,2.926,-1.814,2.804,5.013
1955.0,-8.66,-0.461,2.926,-1.814,2.804,5.013
1959.0,-9.586,-1.024,3.412,-1.895,2.908,5.013
1962.0,-9.586,-1.024,3.412,-1.895,2.908,5.013
1966.0,-10.576,-1.659,3.802,-1.998,2.97,5.013
1970.0,-10.576,-1.659,3.802,-1.998,2.97,5.013
1974.0,-10.576,-1.659,3.802,-1.998,2.97,5.013
1978.0,-11.53,-2.125,4.076,-2.114,3.017,5.013
1982.0,-11.53,-2.125,4.076,-2.114,3.017,5.013
1986.0,-12.412,-2.461,4.311,-2.228,3.078,5.013
1990.0,-12.412,-2.461,4.311,-2.228,3.078,5.013
1994.0,-12.412,-2.461,4.311,-2.228,3.078,5.013
1998.0,-13.406,-2.993,4.661,-2.32,3.16,5.013
2002.0,-13.406,-2.993,4.661,-2.32,3.16,5.013
2006.0,-14.909,-4.006,5.304,-2.383,3.243,5.013
2010.0,-14.909,-4.006,5.304,-2.383,3.243,5.013
2014.0,-14.909,-4.006,5.304,-2.383,3.243,5.013
2018.0,-17.128,-5.374,5.889,-2.429,3.289,5.013
2022.0,-17.128,-5.374,5.889,-2.429,3.289,5.013
2026.0,-19.277,-6.939,6.103,-2.46,3.281,5.013
2030.0,-19.277,-6.939,6.103,-2.46,3.281,5.013
2034.0,-19.277,-6.939,6.122,-2.46,3.281,5.013
2038.0,-19.6,-8.458,6.122,-2.463,3.208,5.013
2042.0,-19.6,-8.458,6.122,-2.463,3.208,5.013
2046.0,-19.6,-9.941,6.322,-2.419,3.045,5.013
2050.0,-19.6,-9.941,6.322,-2.419,3.045,5.013
2054.0,-19.6,-11.221,6.491,-2.419,3.045,5.013
2058.0,-19.6,-11.221,6.491,-2.31,2.809,5.013
2062.0,-19.6,-11.221,6.491,-2.31,2.809,5.013
2066.0,-19.6,-12.605,6.529,-2.133,2.545,5.013
2071.0,-19.6,-12.605,6.529,-2.133,2.545,5.013
2075.0,-19.6,-13.39,6.17,-2.133,2.274,5.013
2079.0,-19.6,-13.39,6.17,-1.92,2.274,5.013
2083.0,-19.6,-13.39,6.17,-1.92,2.274,5.013
2087.0,-19.6,-13.37,5.848,-1.732,1.992,5.013
2091.0,-19.6,-13.37,5.848,-1.732,1.992,5.013
2095.0,-19.6,-13.164,5.62,-1.585,1.687,5.013
2099.0,-19.6,-13.164,5.62,-1.585,1.687,5.013
2103.0,-19.6,-13.164,5.62,-1.585,1.687,5.013
2107.0,-19.6,-13.066,5.352,-1.44,1.37,5.013
2111.0,-19.6,-13.066,5.352,-1.44,1.37,5.013
2115.0,-19.6,-12.872,4.893,-1.257,1.053,5.013
2119.0,-19.6,-12.872,4.893,-1.257,1.053,5.013
2124.0,-19.6,-12.299,4.21,-1.257,1.053,5.013
2128.0,-19.6,-12.299,4.21,-1.041,0.753,5.013
2132.0,-19.6,-12.299,4.21,-1.041,0.753,5.013
2136.0,-19.6,-11.478,3.569,-0.814,0.496,5.013
2140.0,-19.6,-11.478,3.569,-0.814,0.496,5.013
2144.0,-19.6,-10.562,2.917,-0.586,0.299,5.013
2148.0,-19.6,-10.562,2.917,-0.586,0.299,5.013
2152.0,-19.6,-10.562,2.917,-0.586,0.299,5.013
2156.0,-19.6,-9.635,2.455,-0.371,0.152,5.013
2160.0,-19.6,-9.635,2.455,-0.371,0.152,5.013
2164.0,-19.6,-8.749,2.357,-0.192,0.053,5.013
2168.0,-19.6,-8.749,2.357,-0.192,0.053,5.013
2172.0,-19.6,-8.749,2.357,-0.192,0.053,5.013
2176.0,-19.6,-7.891,2.312,-0.06,-0.001,5.013
2180.0,-19.6,-7.891,2.312,-0.06,-0.001,5.013
2184.0,-19.6,-7.117,2.337,0.019,-0.006,5.013
2188.0,-19.6,-7.117,2.337,0.019,-0.006,5.013
2192.0,-19.6,-7.117,2.377,0.019,-0.006,5.013
2196.0,-19.58,-6.62,2.377,0.063,0.016,5.011
2200.0,-19.58,-6.62,2.377,0.063,0.016,5.011
2204.0,-18.589,-6.043,2.205,0.103,0.056,4.868
2208.0,-18.589,-6.043,2.205,0.103,0.056,4.868
2212.0,-18.589,-6.043,1.993,0.103,0.056,4.868
2216.0,-17.117,-5.191,1.993,0.163,0.096,4.487
2220.0,-17.117,-5.191,1.993,0.163,0.096,4.487
2224.0,-15.469,-4.32,1.545,0.244,0.111,4.099
2228.0,-15.469,-4.32,1.545,0.244,0.111,4.099
2231.0,-15.469,-4.32,1.545,0.244,0.111,4.099
2235.0,-13.746,-3.425,0.971,0.334,0.144,3.739
2239.0,-13.746,-3.425,0.971,0.334,0.144,3.739
2243.0,-12.069,-2.8,0.674,0.438,0.23,3.429
2247.0,-12.069,-2.8,0.674,0.438,0.23,3.429
2251.0,-12.069,-2.8,0.674,0.438,0.23,3.429
2255.0,-10.365,-2.441,0.593,0.572,0.331,3.18
2259.0,-10.365,-2.441,0.593,0.572,0.331,3.18
2263.0,-8.501,-2.287,0.671,0.771,0.428,2.971
2267.0,-8.501,-2.287,0.671,0.771,0.428,2.971
2270.0,-8.501,-2.287,0.671,0.771,0.428,2.971
2274.0,-6.45,-2.319,0.983,1.065,0.497,2.773
2278.0,-6.45,-2.319,0.983,1.065,0.497,2.773
2282.0,-4.72,-1.966,0.916,1.065,0.523,2.558
2286.0,-4.72,-1.966,0.916,1.449,0.523,2.558
2289.0,-4.72,-1.966,0.916,1.449,0.523,2.558
2293.0,-3.659,-1.206,0.068,1.891,0.517,2.316
2297.0,-3.659,-1.206,0.068,1.891,0.517,2.316
2301.0,-3.659,-1.206,-1.629,1.891,0.517,2.316
2305.0,-3.307,-0.193,-1.629,2.32,0.525,2.053
2309.0,-3.307,-0.193,-1.629,2.32,0.525,2.053
2313.0,-3.58,0.796,-3.583,2.654,0.598,1.794
2316.0,-3.58,0.796,-3.583,2.654,0.598,1.794
2320.0,-3.58,0.796,-3.583,2.654,0.598,1.794
2324.0,-4.43,1.692,-5.1,2.841,0.757,1.547
2328.0,-4.43,1.692,-5.1,2.841,0.757,1.547
2332.0,-5.298,2.235,-5.806,2.877,0.959,1.309
2336.0,-5.298,2.235,-5.806,2.877,0.959,1.309
2339.0,-5.298,2.235,-5.806,2.877,0.959,1.309
2343.0,-5.731,2.5,-5.877,2.786,1.122,1.054
2347.0,-5.731,2.5,-5.877,2.786,1.122,1.054
2351.0,-5.803,2.71,-5.413,2.786,1.122,0.756
2355.0,-5.803,2.71,-5.413,2.627,1.207,0.756
2358.0,-5.803,2.71,-5.413,2.627,1.207,0.756
2362.0,-5.837,3.066,-5.076,2.435,1.188,0.433
2366.0,-5.837,3.066,-5.076,2.435,1.188,0.433
2370.0,-5.837,3.066,-5.336,2.435,1.188,0.433
2374.0,-5.838,3.508,-5.336,2.185,1.096,0.141
2378.0,-5.838,3.508,-5.336,2.185,1.096,0.141
2381.0,-5.6,4.05,-5.805,1.831,0.999,-0.092
2385.0,-5.6,4.05,-5.805,1.831,0.999,-0.092
2389.0,-5.6,4.05,-5.805,1.831,0.999,-0.092
2393.0,-4.971,4.546,-6.276,1.365,0.942,-0.251
2397.0,-4.971,4.546,-6.276,1.365,0.942,-0.251
2401.0,-4.025,4.953,-6.467,0.815,0.94,-0.332
2405.0,-4.025,4.953,-6.467,0.815,0.94,-0.332
2409.0,-4.025,4.953,-6.467,0.815,0.94,-0.332
2413.0,-3.215,5.17,-6.28,0.23,0.969,-0.343
2417.0,-3.215,5.17,-6.28,0.23,0.969,-0.343
2420.0,-2.883,4.933,-6.032,-0.354,1.019,-0.311
2424.0,-2.883,4.933,-6.032,-0.354,1.019,-0.311
2428.0,-2.883,4.933,-6.032,-0.354,1.019,-0.311
2432.0,-3.048,4.467,-5.673,-0.909,1.098,-0.29
2436.0,-3.048,4.467,-5.673,-0.909,1.098,-0.29
2440.0,-3.505,3.848,-5.056,-1.399,1.184,-0.3
2444.0,-3.505,3.848,-5.056,-1.399,1.184,-0.3
2448.0,-3.505,3.848,-5.056,-1.399,1.184,-0.3
2452.0,-4.003,3.369,-4.491,-1.788,1.254,-0.339
2456.0,-4.003,3.369,-4.491,-1.788,1.254,-0.339
2460.0,-4.354,2.884,-3.893,-2.06,1.312,-0.394
2464.0,-4.354,2.884,-3.893,-2.06,1.312,-0.394
2468.0,-4.354,2.884,-3.893,-2.06,1.312,-0.394
2472.0,-4.384,2.439,-3.237,-2.22,1.37,-0.48
2476.0,-4.384,2.439,-3.237,-2.22,1.37,-0.48
2480.0,-4.483,2.442,-2.565,-2.288,1.415,-0.625
2484.0,-4.483,2.442,-2.565,-2.288,1.415,-0.625
2488.0,-4.483,2.442,-1.934,-2.288,1.415,-0.625
2492.0,-4.765,2.669,-1.934,-2.315,1.433,-0.785
2496.0,-4.765,2.669,-1.934,-2.315,1.433,-0.785
2500.0,-5.248,2.996,-1.388,-2.36,1.429,-0.942
2504.0,-5.248,2.996,-1.388,-2.36,1.429,-0.942
2508.0,-5.248,3.146,-0.925,-2.36,1.429,-0.942
2512.0,-5.784,3.146,-0.925,-2.458,1.408,-1.074
2516.0,-5.784,3.146,-0.925,-2.458,1.408,-1.074
2520.0,-6.045,2.834,-0.546,-2.586,1.377,-1.175
2524.0,-6.045,2.834,-0.546,-2.586,1.377,-1.175
2528.0,-6.108,2.246,-0.049,-2.586,1.377,-1.175
2532.0,-6.108,2.246,-0.049,-2.695,1.345,-1.269
2536.0,-6.108,2.246,-0.049,-2.695,1.345,-1.269
2540.0,-6.143,1.645,0.466,-2.748,1.304,-1.371
2544.0,-6.143,1.645,0.466,-2.748,1.304,-1.371
2548.0,-6.255,1.156,0.872,-2.748,1.304,-1.371
2552.0,-6.255,1.156,0.872,-2.741,1.252,-1.461
2556.0,-6.255,1.156,0.872,-2.741,1.252,-1.461
2560.0,-6.392,0.849,1.269,-2.681,1.206,-1.522
2564.0,-6.392,0.849,1.269,-2.681,1.206,-1.522
2568.0,-6.324,0.54,1.906,-2.681,1.206,-1.522
2571.0,-6.324,0.54,1.906,-2.558,1.167,-1.534
2575.0,-6.324,0.54,1.906,-2.558,1.167,-1.534
2579.0,-6.104,0.205,2.686,-2.371,1.108,-1.514
2583.0,-6.104,0.205,2.686,-2.371,1.108,-1.514
2587.0,-6.104,0.205,3.121,-2.371,1.108,-1.514
2591.0,-5.863,-0.065,3.121,-2.146,1.035,-1.479
2595.0,-5.863,-0.065,3.121,-2.146,1.035,-1.479
2599.0,-5.764,-0.488,3.427,-1.914,0.977,-1.435
2603.0,-5.764,-0.488,3.427,-1.914,0.977,-1.435
2607.0,-5.764,-1.012,3.818,-1.914,0.977,-1.435
2611.0,-5.554,-1.012,3.818,-1.677,0.931,-1.398
2615.0,-5.554,-1.012,3.818,-1.677,0.931,-1.398
2619.0,-5.218,-1.467,4.22,-1.432,0.893,-1.402
2623.0,-5.218,-1.467,4.22,-1.432,0.893,-1.402
2627.0,-4.821,-1.812,4.595,-1.432,0.893,-1.402
2631.0,-4.821,-1.812,4.595,-1.182,0.867,-1.45
2635.0,-4.821,-1.812,4.595,-1.182,0.867,-1.45
2639.0,-4.661,-2.067,5.176,-0.93,0.852,-1.529
2643.0,-4.661,-2.067,5.176,-0.93,0.852,-1.529
2647.0,-4.613,-2.031,5.679,-0.93,0.852,-1.635
2651.0,-4.613,-2.031,5.679,-0.676,0.823,-1.635
2655.0,-4.613,-2.031,5.679,-0.676,0.823,-1.635
2659.0,-4.691,-1.862,6.248,-0.442,0.762,-1.78
2663.0,-4.691,-1.862,6.248,-0.442,0.762,-1.78
2667.0,-4.774,-1.689,6.801,-0.243,0.636,-1.97
2671.0,-4.774,-1.689,6.801,-0.243,0.636,-1.97
2675.0,-4.774,-1.689,6.801,-0.243,0.636,-1.97
2679.0,-4.722,-1.49,7.108,-0.084,0.447,-2.193
2683.0,-4.722,-1.49,7.108,-0.084,0.447,-2.193
2687.0,-4.78,-1.387,7.143,0.032,0.242,-2.417
2691.0,-4.78,-1.387,7.143,0.032,0.242,-2.417
2695.0,-4.78,-1.387,7.143,0.032,0.242,-2.417
2699.0,-5.089,-1.446,6.87,0.109,0.077,-2.618
2702.0,-5.089,-1.446,6.87,0.109,0.077,-2.618
2706.0,-5.814,-1.777,6.673,0.165,-0.03,-2.794
2710.0,-5.814,-1.777,6.673,0.165,-0.03,-2.794
2714.0,-5.814,-1.777,6.673,0.165,-0.03,-2.794
2718.0,-6.748,-2.522,6.766,0.213,-0.101,-2.956
2722.0,-6.748,-2.522,6.766,0.213,-0.101,-2.956
2726.0,-7.697,-3.44,7.138,0.271,-0.148,-3.125
2730.0,-7.697,-3.44,7.138,0.271,-0.148,-3.125
2734.0,-7.697,-3.44,7.138,0.271,-0.148,-3.125
2738.0,-8.734,-4.287,7.632,0.356,-0.183,-3.316
2742.0,-8.734,-4.287,7.632,0.356,-0.183,-3.316
2746.0,-9.787,-4.744,8.087,0.462,-0.22,-3.516
2750.0,-9.787,-4.744,8.087,0.462,-0.22,-3.516
2754.0,-9.787,-4.744,8.087,0.462,-0.22,-3.516
2758.0,-10.592,-4.927,8.132,0.571,-0.262,-3.686
2762.0,-10.592,-4.927,8.132,0.571,-0.262,-3.686
2766.0,-11.237,-4.973,7.991,0.624,-0.297,-3.825
2771.0,-11.237,-4.973,7.991,0.624,-0.297,-3.825
2775.0,-11.237,-4.973,7.688,0.624,-0.297,-3.825
2779.0,-11.99,-5.192,7.688,0.615,-0.332,-3.925
2783.0,-11.99,-5.192,7.688,0.615,-0.332,-3.925
2787.0,-13.203,-5.445,7.369,0.548,-0.377,-4.006
2791.0,-13.203,-5.445,7.369,0.548,-0.377,-4.006
2795.0,-14.613,-5.647,7.142,0.548,-0.431,-4.094
2799.0,-14.613,-5.647,7.142,0.449,-0.431,-4.094
2803.0,-14.613,-5.647,7.142,0.449,-0.431,-4.094
2807.0,-15.607,-5.957,7.084,0.338,-0.497,-4.194
2811.0,-15.607,-5.957,7.084,0.338,-0.497,-4.194
2815.0,-16.103,-6.333,7.317,0.24,-0.56,-4.305
2819.0,-16.103,-6.333,7.317,0.24,-0.56,-4.305
2824.0,-16.103,-6.333,7.317,0.24,-0.56,-4.305
2828.0,-16.308,-6.686,7.667,0.206,-0.614,-4.416
2832.0,-16.308,-6.686,7.667,0.206,-0.614,-4.416
2836.0,-16.25,-6.907,7.746,0.253,-0.66,-4.498
2840.0,-16.25,-6.907,7.746,0.253,-0.66,-4.498
2844.0,-15.796,-7.007,7.561,0.253,-0.66,-4.498
2848.0,-15.796,-7.007,7.561,0.382,-0.683,-4.532
2852.0,-15.796,-7.007,7.561,0.382,-0.683,-4.532
2856.0,-15.115,-6.945,7.309,0.581,-0.679,-4.532
2860.0,-15.115,-6.945,7.309,0.581,-0.679,-4.532
2864.0,-14.752,-6.769,6.848,0.824,-0.668,-4.499
2868.0,-14.752,-6.769,6.848,0.824,-0.668,-4.499
2873.0,-14.752,-6.769,6.848,0.824,-0.668,-4.499
2877.0,-14.68,-6.526,6.205,1.075,-0.662,-4.418
2881.0,-14.68,-6.526,6.205,1.075,-0.662,-4.418
2885.0,-14.629,-6.318,5.487,1.314,-0.663,-4.284
2889.0,-14.629,-6.318,5.487,1.314,-0.663,-4.284
2893.0,-14.629,-6.318,4.72,1.314,-0.663,-4.284
2897.0,-14.366,-6.291,4.72,1.538,-0.674,-4.108
2901.0,-14.366,-6.291,4.72,1.538,-0.674,-4.108
2905.0,-14.032,-6.38,3.956,1.75,-0.688,-3.912
2909.0,-14.032,-6.38,3.956,1.75,-0.688,-3.912
2913.0,-13.67,-6.426,3.147,1.75,-0.688,-3.712
2917.0,-13.67,-6.426,3.147,1.953,-0.694,-3.712
2921.0,-13.67,-6.426,3.147,1.953,-0.694,-3.712
2926.0,-13.208,-6.211,2.239,2.143,-0.697,-3.515
2930.0,-13.208,-6.211,2.239,2.143,-0.697,-3.515
2934.0,-12.756,-5.851,1.371,2.304,-0.693,-3.318
2938.0,-12.756,-5.851,1.371,2.304,-0.693,-3.318
2942.0,-12.756,-5.851,1.371,2.304,-0.693,-3.318
2946.0,-12.24,-5.451,0.517,2.426,-0.678,-3.123
2950.0,-12.24,-5.451,0.517,2.426,-0.678,-3.123
2954.0,-11.611,-5.082,-0.192,2.512,-0.654,-2.935
2958.0,-11.611,-5.082,-0.192,2.512,-0.654,-2.935
2962.0,-11.076,-4.818,-0.735,2.512,-0.654,-2.935
2967.0,-11.076,-4.818,-0.735,2.561,-0.621,-2.739
2971.0,-11.076,-4.818,-0.735,2.561,-0.621,-2.739
2975.0,-10.742,-4.895,-1.012,2.576,-0.587,-2.506
2979.0,-10.742,-4.895,-1.012,2.576,-0.587,-2.506
2983.0,-10.677,-5.474,-1.144,2.569,-0.55,-2.217
2987.0,-10.677,-5.474,-1.144,2.569,-0.55,-2.217
2992.0,-10.677,-5.474,-1.164,2.569,-0.55,-2.217
2996.0,-11.103,-6.408,-1.164,2.552,-0.492,-1.871
3000.0,-11.103,-6.408,-1.164,2.552,-0.492,-1.871
