deltaTime,Acc_X,Acc_Y,Acc_Z,Gyro_X,Gyro_Y,Gyro_Z
0.0,-6.541,-2.976,1.84,-1.344,-1.123,0.543
3.0,-6.541,-2.976,1.84,-1.344,-1.123,0.543
6.0,-6.541,-2.976,1.84,-1.344,-1.123,0.543
9.0,-6.729,-3.214,2.382,-1.284,-1.1,0.515
12.0,-6.729,-3.214,2.382,-1.284,-1.1,0.515
15.0,-6.729,-3.214,2.382,-1.284,-1.1,0.515
18.0,-6.729,-3.214,2.902,-1.284,-1.1,0.515
21.0,-6.93,-3.085,2.902,-1.183,-1.11,0.47
24.0,-6.93,-3.085,2.902,-1.183,-1.11,0.47
27.0,-6.93,-3.085,2.902,-1.183,-1.11,0.47
30.0,-7.09,-2.722,3.328,-1.094,-1.168,0.397
34.0,-7.09,-2.722,3.328,-1.094,-1.168,0.397
37.0,-7.09,-2.722,3.328,-1.094,-1.168,0.397
41.0,-7.052,-2.201,3.325,-1.069,-1.256,0.31
45.0,-7.052,-2.201,3.325,-1.069,-1.256,0.31
49.0,-6.986,-1.552,3.141,-1.133,-1.334,0.23
53.0,-6.986,-1.552,3.141,-1.133,-1.334,0.23
57.0,-6.986,-1.552,3.141,-1.133,-1.334,0.23
60.0,-6.958,-0.961,2.912,-1.304,-1.394,0.175
64.0,-6.958,-0.961,2.912,-1.304,-1.394,0.175
68.0,-6.958,-0.634,2.716,-1.304,-1.394,0.175
72.0,-6.958,-0.634,2.716,-1.562,-1.426,0.146
76.0,-6.958,-0.634,2.716,-1.562,-1.426,0.146
79.0,-7.038,-0.577,2.798,-1.86,-1.425,0.147
83.0,-7.038,-0.577,2.798,-1.86,-1.425,0.147
87.0,-7.038,-0.577,2.798,-1.86,-1.425,0.147
91.0,-7.414,-0.662,3.169,-2.161,-1.41,0.165
95.0,-7.414,-0.662,3.169,-2.161,-1.41,0.165
99.0,-8.181,-1.107,3.693,-2.438,-1.395,0.184
102.0,-8.181,-1.107,3.693,-2.438,-1.395,0.184
106.0,-8.181,-1.107,3.693,-2.438,-1.395,0.184
110.0,-8.981,-1.823,4.337,-2.619,-1.369,0.198
114.0,-8.981,-1.823,4.337,-2.619,-1.369,0.198
118.0,-9.781,-2.517,5.331,-2.651,-1.317,0.213
122.0,-9.781,-2.517,5.331,-2.651,-1.317,0.213
126.0,-9.781,-2.517,5.331,-2.651,-1.317,0.213
130.0,-11.292,-2.861,6.523,-2.543,-1.252,0.215
134.0,-11.292,-2.861,6.523,-2.543,-1.252,0.215
138.0,-13.342,-2.55,7.838,-2.372,-1.192,0.176
142.0,-13.342,-2.55,7.838,-2.372,-1.192,0.176
146.0,-13.342,-2.55,7.838,-2.372,-1.192,0.176
150.0,-15.277,-2.254,9.208,-2.192,-1.196,0.077
154.0,-15.277,-2.254,9.208,-2.192,-1.196,0.077
158.0,-16.503,-1.387,10.198,-2.008,-1.301,-0.052
162.0,-16.503,-1.387,10.198,-2.008,-1.301,-0.052
166.0,-16.503,-1.387,10.198,-2.008,-1.301,-0.052
170.0,-17.304,-0.344,10.364,-1.92,-1.47,-0.169
174.0,-17.304,-0.344,10.364,-1.92,-1.47,-0.169
178.0,-18.318,0.023,9.846,-1.972,-1.695,-0.227
182.0,-18.318,0.023,9.846,-1.972,-1.695,-0.227
186.0,-17.751,-0.38,9.573,-1.972,-1.695,-0.227
191.0,-17.751,-0.38,9.573,-2.058,-1.953,-0.222
195.0,-17.751,-0.38,9.573,-2.058,-1.953,-0.222
199.0,-16.979,-0.892,9.393,-2.095,-2.091,-0.157
203.0,-16.979,-0.892,9.393,-2.095,-2.091,-0.157
207.0,-16.435,-1.574,9.412,-2.084,-2.116,-0.059
211.0,-16.435,-1.574,9.412,-2.084,-2.116,-0.059
215.0,-16.435,-1.574,9.412,-2.084,-2.116,-0.059
219.0,-16.127,-2.364,9.777,-2.062,-2.101,0.064
223.0,-16.127,-2.364,9.777,-2.062,-2.101,0.064
227.0,-15.692,-2.995,10.298,-2.04,-2.08,0.19
231.0,-15.692,-2.995,10.298,-2.04,-2.08,0.19
235.0,-15.692,-2.995,10.298,-2.04,-2.08,0.19
239.0,-14.999,-3.501,10.762,-2.017,-2.046,0.315
243.0,-14.999,-3.501,10.762,-2.017,-2.046,0.315
247.0,-14.229,-3.857,10.954,-1.983,-1.987,0.451
252.0,-14.229,-3.857,10.954,-1.983,-1.987,0.451
256.0,-13.536,-4.274,10.962,-1.983,-1.987,0.451
260.0,-13.536,-4.274,10.962,-1.923,-1.894,0.615
264.0,-13.536,-4.274,10.962,-1.923,-1.894,0.615
268.0,-12.918,-4.836,11.119,-1.832,-1.781,0.796
272.0,-12.918,-4.836,11.119,-1.832,-1.781,0.796
276.0,-12.663,-5.756,11.084,-1.686,-1.712,0.96
280.0,-12.663,-5.756,11.084,-1.686,-1.712,0.96
284.0,-12.663,-5.756,11.084,-1.686,-1.712,0.96
288.0,-11.715,-6.55,10.783,-1.448,-1.747,1.099
292.0,-11.715,-6.55,10.783,-1.448,-1.747,1.099
296.0,-10.659,-7.588,10.123,-1.148,-1.736,1.218
301.0,-10.659,-7.588,10.123,-1.148,-1.736,1.218
305.0,-10.659,-7.588,9.408,-1.148,-1.736,1.218
309.0,-9.613,-8.681,9.408,-0.794,-1.687,1.314
312.0,-9.613,-8.681,9.408,-0.794,-1.687,1.314
316.0,-8.676,-9.477,8.643,-0.426,-1.619,1.372
320.0,-8.676,-9.477,8.643,-0.426,-1.619,1.372
324.0,-8.676,-9.477,8.643,-0.426,-1.619,1.372
328.0,-7.568,-10.018,7.618,-0.089,-1.517,1.373
332.0,-7.568,-10.018,7.618,-0.089,-1.517,1.373
336.0,-6.263,-10.4,6.499,0.187,-1.387,1.332
340.0,-6.263,-10.4,6.499,0.187,-1.387,1.332
344.0,-6.263,-10.4,6.499,0.187,-1.387,1.332
348.0,-4.685,-10.372,5.584,0.374,-1.234,1.296
352.0,-4.685,-10.372,5.584,0.374,-1.234,1.296
356.0,-3.052,-10.376,4.743,0.443,-1.036,1.285
360.0,-3.052,-10.376,4.743,0.443,-1.036,1.285
363.0,-3.052,-10.376,4.743,0.443,-1.036,1.285
367.0,-1.21,-10.658,3.857,0.44,-0.876,1.289
371.0,-1.21,-10.658,3.857,0.44,-0.876,1.289
375.0,0.473,-11.381,2.701,0.393,-0.785,1.261
379.0,0.473,-11.381,2.701,0.393,-0.785,1.261
383.0,0.473,-11.381,2.701,0.393,-0.785,1.261
387.0,2.021,-12.003,1.195,0.358,-0.794,1.166
390.0,2.021,-12.003,1.195,0.358,-0.794,1.166
394.0,3.179,-12.362,-0.207,0.358,-0.78,1.027
398.0,3.179,-12.362,-0.207,0.313,-0.78,1.027
402.0,3.179,-12.362,-0.207,0.313,-0.78,1.027
406.0,3.755,-12.507,-0.893,0.223,-0.676,0.872
410.0,3.755,-12.507,-0.893,0.223,-0.676,0.872
414.0,3.144,-12.867,-0.653,0.223,-0.676,0.704
418.0,3.144,-12.867,-0.653,0.11,-0.545,0.704
422.0,3.144,-12.867,-0.653,0.11,-0.545,0.704
426.0,2.037,-13.156,0.134,0.032,-0.499,0.51
429.0,2.037,-13.156,0.134,0.032,-0.499,0.51
433.0,0.174,-13.799,1.035,0.032,-0.499,0.51
437.0,0.174,-13.799,1.035,-0.006,-0.465,0.267
441.0,0.174,-13.799,1.035,-0.006,-0.465,0.267
445.0,-1.822,-14.604,1.645,0.054,-0.475,0.006
449.0,-1.822,-14.604,1.645,0.054,-0.475,0.006
453.0,-1.822,-14.604,1.841,0.054,-0.475,0.006
457.0,-3.479,-15.252,1.841,0.222,-0.506,-0.236
461.0,-3.479,-15.252,1.841,0.222,-0.506,-0.236
464.0,-4.453,-15.736,1.935,0.465,-0.544,-0.46
468.0,-4.453,-15.736,1.935,0.465,-0.544,-0.46
472.0,-4.453,-15.736,2.024,0.465,-0.544,-0.46
476.0,-4.81,-15.647,2.024,0.736,-0.584,-0.709
480.0,-4.81,-15.647,2.024,0.736,-0.584,-0.709
484.0,-4.707,-14.814,1.966,0.979,-0.629,-0.996
488.0,-4.707,-14.814,1.966,0.979,-0.629,-0.996
492.0,-4.429,-13.695,1.981,0.979,-0.629,-0.996
496.0,-4.429,-13.695,1.981,1.139,-0.675,-1.278
500.0,-4.429,-13.695,1.981,1.139,-0.675,-1.278
504.0,-4.269,-12.776,2.26,1.18,-0.723,-1.528
508.0,-4.269,-12.776,2.26,1.18,-0.723,-1.528
512.0,-4.241,-12.196,2.703,1.18,-0.723,-1.743
516.0,-4.241,-12.196,2.703,1.099,-0.776,-1.743
520.0,-4.241,-12.196,2.703,1.099,-0.776,-1.743
524.0,-4.144,-11.894,3.293,0.916,-0.833,-1.953
528.0,-4.144,-11.894,3.293,0.916,-0.833,-1.953
532.0,-3.988,-11.601,3.903,0.916,-0.892,-2.193
536.0,-3.988,-11.601,3.903,0.662,-0.892,-2.193
540.0,-3.988,-11.601,3.903,0.662,-0.892,-2.193
544.0,-3.749,-11.357,4.345,0.375,-0.949,-2.458
548.0,-3.749,-11.357,4.345,0.375,-0.949,-2.458
552.0,-3.379,-11.31,4.667,0.097,-1.003,-2.734
556.0,-3.379,-11.31,4.667,0.097,-1.003,-2.734
560.0,-3.379,-11.31,4.667,0.097,-1.003,-2.734
564.0,-3.183,-11.319,4.997,-0.15,-1.062,-3.023
568.0,-3.183,-11.319,4.997,-0.15,-1.062,-3.023
572.0,-3.282,-11.58,5.352,-0.353,-1.135,-3.317
577.0,-3.282,-11.58,5.352,-0.353,-1.135,-3.317
581.0,-3.282,-11.58,5.352,-0.353,-1.135,-3.317
585.0,-3.769,-12.045,5.83,-0.495,-1.232,-3.602
589.0,-3.769,-12.045,5.83,-0.495,-1.232,-3.602
593.0,-4.261,-12.671,6.467,-0.559,-1.38,-3.86
597.0,-4.261,-12.671,6.467,-0.559,-1.38,-3.86
601.0,-4.472,-13.579,7.042,-0.559,-1.38,-3.86
605.0,-4.472,-13.579,7.042,-0.553,-1.582,-4.096
609.0,-4.472,-13.579,7.042,-0.553,-1.582,-4.096
613.0,-4.235,-14.461,7.375,-0.489,-1.815,-4.338
617.0,-4.235,-14.461,7.375,-0.489,-1.815,-4.338
621.0,-3.757,-14.904,7.667,-0.369,-2.049,-4.606
626.0,-3.757,-14.904,7.667,-0.369,-2.049,-4.606
630.0,-3.757,-14.904,7.667,-0.369,-2.049,-4.606
634.0,-3.376,-15.05,8.002,-0.219,-2.265,-4.875
638.0,-3.376,-15.05,8.002,-0.219,-2.265,-4.875
642.0,-3.243,-14.986,8.159,-0.06,-2.46,-4.992
646.0,-3.243,-14.986,8.159,-0.06,-2.46,-4.992
650.0,-3.243,-14.986,8.136,-0.06,-2.46,-4.992
654.0,-3.084,-14.767,8.136,0.089,-2.645,-4.995
658.0,-3.084,-14.767,8.136,0.089,-2.645,-4.995
662.0,-2.666,-14.442,8.077,0.219,-2.817,-4.995
666.0,-2.666,-14.442,8.077,0.219,-2.817,-4.995
670.0,-2.201,-14.224,7.89,0.219,-2.817,-4.995
674.0,-2.201,-14.224,7.89,0.312,-2.956,-4.995
678.0,-2.201,-14.224,7.89,0.312,-2.956,-4.995
682.0,-1.956,-13.954,7.628,0.351,-3.052,-4.995
686.0,-1.956,-13.954,7.628,0.351,-3.052,-4.995
690.0,-1.659,-13.997,7.712,0.351,-3.052,-4.995
694.0,-1.659,-13.997,7.712,0.343,-3.105,-4.995
698.0,-1.659,-13.997,7.712,0.343,-3.105,-4.995
702.0,-1.877,-13.989,7.672,0.345,-3.13,-4.995
706.0,-1.877,-13.989,7.672,0.345,-3.13,-4.995
710.0,-2.274,-14.117,7.304,0.345,-3.153,-4.995
714.0,-2.274,-14.117,7.304,0.36,-3.153,-4.995
718.0,-2.274,-14.117,7.304,0.36,-3.153,-4.995
722.0,-2.375,-14.285,6.86,0.401,-3.146,-4.995
726.0,-2.375,-14.285,6.86,0.401,-3.146,-4.995
730.0,-2.122,-14.292,6.461,0.473,-3.112,-4.995
734.0,-2.122,-14.292,6.461,0.473,-3.112,-4.995
738.0,-2.122,-14.292,6.461,0.473,-3.112,-4.995
742.0,-1.901,-14.209,6.138,0.554,-3.06,-4.995
746.0,-1.901,-14.209,6.138,0.554,-3.06,-4.995
750.0,-2.049,-14.023,5.687,0.626,-2.978,-4.995
754.0,-2.049,-14.023,5.687,0.626,-2.978,-4.995
758.0,-2.049,-14.023,5.687,0.626,-2.978,-4.995
762.0,-2.431,-13.571,5.317,0.681,-2.856,-4.995
766.0,-2.431,-13.571,5.317,0.681,-2.856,-4.995
770.0,-2.789,-12.843,4.956,0.708,-2.702,-4.995
774.0,-2.789,-12.843,4.956,0.708,-2.702,-4.995
778.0,-2.789,-12.843,4.956,0.708,-2.702,-4.995
782.0,-2.878,-11.7,4.66,0.703,-2.51,-4.945
786.0,-2.878,-11.7,4.66,0.703,-2.51,-4.945
790.0,-2.757,-10.32,4.418,0.674,-2.275,-4.608
794.0,-2.757,-10.32,4.418,0.674,-2.275,-4.608
798.0,-2.757,-10.32,4.418,0.674,-2.275,-4.608
802.0,-2.705,-8.777,4.083,0.626,-2.004,-4.164
806.0,-2.705,-8.777,4.083,0.626,-2.004,-4.164
810.0,-2.776,-7.062,3.742,0.561,-1.696,-3.711
814.0,-2.776,-7.062,3.742,0.561,-1.696,-3.711
817.0,-2.776,-7.062,3.742,0.561,-1.696,-3.711
821.0,-2.748,-5.429,3.453,0.489,-1.356,-3.238
825.0,-2.748,-5.429,3.453,0.489,-1.356,-3.238
829.0,-2.692,-3.959,3.334,0.438,-1.005,-2.753
833.0,-2.692,-3.959,3.334,0.438,-1.005,-2.753
837.0,-2.692,-3.959,3.334,0.438,-1.005,-2.753
841.0,-2.852,-2.744,3.322,0.409,-0.674,-2.272
845.0,-2.852,-2.744,3.322,0.409,-0.674,-2.272
849.0,-3.411,-1.616,3.129,0.435,-0.374,-1.796
853.0,-3.411,-1.616,3.129,0.435,-0.374,-1.796
857.0,-3.411,-1.616,3.129,0.435,-0.374,-1.796
860.0,-3.973,-0.662,2.884,0.523,-0.104,-1.307
864.0,-3.973,-0.662,2.884,0.523,-0.104,-1.307
868.0,-4.37,0.146,2.722,0.685,0.146,-0.807
872.0,-4.37,0.146,2.722,0.685,0.146,-0.807
876.0,-4.37,0.146,2.722,0.685,0.146,-0.807
879.0,-4.715,0.872,2.757,0.88,0.381,-0.326
883.0,-4.715,0.872,2.757,0.88,0.381,-0.326
887.0,-4.715,0.872,2.875,0.88,0.381,-0.326
891.0,-5.201,1.655,2.875,1.08,0.61,0.109
894.0,-5.201,1.655,2.875,1.08,0.61,0.109
898.0,-5.736,2.533,2.918,1.257,0.846,0.501
902.0,-5.736,2.533,2.918,1.257,0.846,0.501
905.0,-5.736,2.533,2.918,1.257,0.846,0.501
909.0,-6.135,3.299,2.859,1.381,1.098,0.875
912.0,-6.135,3.299,2.859,1.381,1.098,0.875
916.0,-6.135,3.299,2.859,1.381,1.098,0.875
920.0,-6.279,3.809,2.723,1.423,1.379,1.25
923.0,-6.279,3.809,2.723,1.423,1.379,1.25
927.0,-6.27,4.019,2.816,1.423,1.379,1.635
931.0,-6.27,4.019,2.816,1.371,1.707,1.635
934.0,-6.27,4.019,2.816,1.371,1.707,1.635
938.0,-6.386,3.955,3.014,1.23,2.069,2.026
942.0,-6.386,3.955,3.014,1.23,2.069,2.026
945.0,-6.386,3.955,3.014,1.23,2.069,2.026
949.0,-6.847,3.719,3.202,1.018,2.459,2.422
953.0,-6.847,3.719,3.202,1.018,2.459,2.422
956.0,-6.847,3.258,3.535,1.018,2.459,2.422
960.0,-7.652,3.258,3.535,0.751,2.882,2.834
964.0,-7.652,3.258,3.535,0.751,2.882,2.834
967.0,-8.43,2.556,4.063,0.449,3.318,3.28
971.0,-8.43,2.556,4.063,0.449,3.318,3.28
974.0,-8.43,2.556,4.063,0.449,3.318,3.28
978.0,-9.06,1.67,4.767,0.135,3.754,3.759
982.0,-9.06,1.67,4.767,0.135,3.754,3.759
985.0,-9.06,1.67,4.767,0.135,3.754,3.759
989.0,-9.932,0.84,5.573,-0.176,4.174,4.247
993.0,-9.932,0.84,5.573,-0.176,4.174,4.247
997.0,-10.98,0.268,6.148,-0.477,4.538,4.719
1000.0,-10.98,0.268,6.148,-0.477,4.538,4.719
1004.0,-10.98,0.268,6.148,-0.477,4.538,4.719
1008.0,-11.809,-0.126,6.327,-0.761,4.82,4.994
1012.0,-11.809,-0.126,6.327,-0.761,4.82,4.994
1016.0,-12.409,-0.492,6.24,-1.014,4.987,5.013
1020.0,-12.409,-0.492,6.24,-1.014,4.987,5.013
1024.0,-12.409,-0.492,6.24,-1.014,4.987,5.013
1028.0,-13.047,-0.913,6.215,-1.234,5.015,5.013
1032.0,-13.047,-0.913,6.215,-1.234,5.015,5.013
1036.0,-14.036,-1.56,6.574,-1.421,5.015,5.013
1040.0,-14.036,-1.56,6.574,-1.421,5.015,5.013
1044.0,-14.036,-1.56,6.574,-1.421,5.015,5.013
1048.0,-15.154,-2.138,7.18,-1.572,5.015,5.013
1052.0,-15.154,-2.138,7.18,-1.572,5.015,5.013
1056.0,-15.945,-2.651,7.879,-1.672,5.015,5.013
1060.0,-15.945,-2.651,7.879,-1.672,5.015,5.013
1064.0,-15.945,-2.651,7.879,-1.672,5.015,5.013
1068.0,-16.643,-3.21,8.651,-1.705,4.97,5.013
1072.0,-16.643,-3.21,8.651,-1.705,4.97,5.013
1076.0,-16.996,-3.751,9.17,-1.656,4.786,5.013
1080.0,-16.996,-3.751,9.17,-1.656,4.786,5.013
1084.0,-16.996,-3.751,9.17,-1.656,4.786,5.013
1088.0,-17.101,-4.5,9.848,-1.537,4.537,5.013
1092.0,-17.101,-4.5,9.848,-1.537,4.537,5.013
1096.0,-17.658,-5.403,10.634,-1.376,4.258,5.013
1100.0,-17.658,-5.403,10.634,-1.376,4.258,5.013
1104.0,-17.658,-5.403,10.716,-1.376,4.258,5.013
1108.0,-18.026,-5.778,10.716,-1.201,3.956,5.013
1112.0,-18.026,-5.778,10.716,-1.201,3.956,5.013
1116.0,-17.39,-5.379,10.662,-1.017,3.688,5.013
1120.0,-17.39,-5.379,10.662,-1.017,3.688,5.013
1125.0,-17.251,-5.39,11.179,-1.017,3.469,5.013
1129.0,-17.251,-5.39,11.179,-0.836,3.469,5.013
1133.0,-17.251,-5.39,11.179,-0.836,3.469,5.013
1137.0,-18.062,-5.171,11.727,-0.626,3.255,5.013
1141.0,-18.062,-5.171,11.727,-0.626,3.255,5.013
1145.0,-18.954,-4.719,11.82,-0.481,3.032,5.013
1149.0,-18.954,-4.719,11.82,-0.481,3.032,5.013
1153.0,-18.954,-4.719,11.82,-0.481,3.032,5.013
1157.0,-19.323,-4.513,11.715,-0.404,2.822,5.013
1161.0,-19.323,-4.513,11.715,-0.404,2.822,5.013
1165.0,-18.94,-4.629,11.717,-0.346,2.635,5.013
1169.0,-18.94,-4.629,11.717,-0.346,2.635,5.013
1174.0,-18.589,-3.833,11.533,-0.346,2.635,5.013
1178.0,-18.589,-3.833,11.533,-0.294,2.489,5.013
1182.0,-18.589,-3.833,11.533,-0.294,2.489,5.013
1186.0,-19.238,-3.429,12.458,-0.318,2.355,5.013
1190.0,-19.238,-3.429,12.458,-0.318,2.355,5.013
1194.0,-17.717,-4.244,11.74,-0.414,2.179,5.013
1198.0,-17.717,-4.244,11.74,-0.414,2.179,5.013
1202.0,-17.717,-4.244,11.74,-0.414,2.179,5.013
1206.0,-15.537,-4.153,10.114,-0.633,2.036,5.013
1210.0,-15.537,-4.153,10.114,-0.633,2.036,5.013
1214.0,-17.897,-9.13,13.466,-0.7,1.798,5.013
1218.0,-17.897,-9.13,13.466,-0.7,1.798,5.013
1222.0,-17.897,-9.13,12.117,-0.7,1.798,5.013
1227.0,-19.0,-3.617,12.117,-0.32,1.602,5.013
1231.0,-19.0,-3.617,12.117,-0.32,1.602,5.013
1235.0,-19.107,-1.786,12.352,-0.293,1.508,5.013
1239.0,-19.107,-1.786,12.352,-0.293,1.508,5.013
1243.0,-19.6,-3.584,13.172,-0.293,1.508,5.013
1247.0,-19.6,-3.584,13.172,-0.464,1.389,5.013
1251.0,-19.6,-3.584,13.172,-0.464,1.389,5.013
1255.0,-19.6,-5.027,13.622,-0.563,1.178,5.013
1259.0,-19.6,-5.027,13.622,-0.563,1.178,5.013
1263.0,-19.207,-5.615,13.11,-0.621,0.996,5.013
1267.0,-19.207,-5.615,13.11,-0.621,0.996,5.013
1271.0,-19.207,-5.615,13.11,-0.621,0.996,5.013
1276.0,-18.964,-6.048,12.583,-0.679,0.947,5.013
1280.0,-18.964,-6.048,12.583,-0.679,0.947,5.013
1284.0,-19.019,-6.272,12.507,-0.737,0.947,5.013
1288.0,-19.019,-6.272,12.507,-0.737,0.947,5.013
1292.0,-19.019,-6.345,12.29,-0.737,0.947,5.013
1296.0,-17.834,-6.345,12.29,-0.774,0.921,5.008
1300.0,-17.834,-6.345,12.29,-0.774,0.921,5.008
1304.0,-16.15,-6.296,11.883,-0.767,0.9,4.907
1308.0,-16.15,-6.296,11.883,-0.767,0.9,4.907
1312.0,-14.536,-6.139,11.328,-0.75,0.889,4.582
1316.0,-14.536,-6.139,11.328,-0.75,0.889,4.582
1320.0,-14.536,-6.139,11.328,-0.75,0.889,4.582
1324.0,-13.116,-6.028,10.929,-0.723,0.865,4.166
1329.0,-13.116,-6.028,10.929,-0.723,0.865,4.166
1333.0,-11.483,-5.899,10.909,-0.67,0.761,3.731
1337.0,-11.483,-5.899,10.909,-0.67,0.761,3.731
1341.0,-11.483,-5.899,10.909,-0.67,0.761,3.731
1345.0,-9.616,-5.938,10.644,-0.587,0.542,3.312
1349.0,-9.616,-5.938,10.644,-0.587,0.542,3.312
1353.0,-8.045,-6.127,9.896,-0.486,0.269,2.926
1357.0,-8.045,-6.127,9.896,-0.486,0.269,2.926
1361.0,-8.045,-6.127,9.14,-0.486,0.269,2.926
1365.0,-6.973,-6.4,9.14,-0.377,0.014,2.596
1368.0,-6.973,-6.4,9.14,-0.377,0.014,2.596
1372.0,-6.093,-6.739,8.451,-0.263,-0.206,2.337
1376.0,-6.093,-6.739,8.451,-0.263,-0.206,2.337
1380.0,-6.093,-6.739,7.854,-0.263,-0.206,2.337
1384.0,-5.183,-6.956,7.854,-0.149,-0.39,2.128
1388.0,-5.183,-6.956,7.854,-0.149,-0.39,2.128
1392.0,-3.97,-6.96,7.183,-0.042,-0.536,1.936
1396.0,-3.97,-6.96,7.183,-0.042,-0.536,1.936
1400.0,-3.97,-6.72,6.468,-0.042,-0.536,1.936
1404.0,-2.403,-6.72,6.468,0.04,-0.638,1.723
1408.0,-2.403,-6.72,6.468,0.04,-0.638,1.723
1412.0,-0.863,-6.291,5.96,0.08,-0.695,1.452
1416.0,-0.863,-6.291,5.96,0.08,-0.695,1.452
1420.0,-0.863,-6.291,5.505,0.08,-0.695,1.452
1424.0,0.415,-5.894,5.505,0.09,-0.734,1.112
1428.0,0.415,-5.894,5.505,0.09,-0.734,1.112
1431.0,1.337,-5.64,4.74,0.073,-0.77,0.725
1435.0,1.337,-5.64,4.74,0.073,-0.77,0.725
1439.0,1.337,-5.64,4.74,0.073,-0.77,0.725
1443.0,1.72,-5.507,3.79,0.016,-0.779,0.347
1447.0,1.72,-5.507,3.79,0.016,-0.779,0.347
1451.0,1.419,-5.652,3.004,-0.085,-0.733,0.021
1455.0,1.419,-5.652,3.004,-0.085,-0.733,0.021
1458.0,1.419,-5.652,3.004,-0.085,-0.733,0.021
1462.0,0.536,-6.052,2.359,-0.198,-0.648,-0.261
1466.0,0.536,-6.052,2.359,-0.198,-0.648,-0.261
1470.0,-0.544,-6.526,1.94,-0.283,-0.569,-0.546
1474.0,-0.544,-6.526,1.94,-0.283,-0.569,-0.546
1478.0,-0.544,-6.526,1.94,-0.283,-0.569,-0.546
1483.0,-1.551,-7.001,1.77,-0.333,-0.529,-0.866
1487.0,-1.551,-7.001,1.77,-0.333,-0.529,-0.866
1491.0,-2.467,-7.36,1.602,-0.357,-0.525,-1.21
1495.0,-2.467,-7.36,1.602,-0.357,-0.525,-1.21
1499.0,-2.467,-7.36,1.422,-0.357,-0.525,-1.21
1503.0,-3.394,-7.641,1.422,-0.368,-0.529,-1.548
1507.0,-3.394,-7.641,1.422,-0.368,-0.529,-1.548
1511.0,-4.448,-7.853,1.241,-0.385,-0.524,-1.867
1515.0,-4.448,-7.853,1.241,-0.385,-0.524,-1.867
1519.0,-5.598,-7.983,1.068,-0.385,-0.524,-2.174
1523.0,-5.598,-7.983,1.068,-0.418,-0.507,-2.174
1527.0,-5.598,-7.983,1.068,-0.418,-0.507,-2.174
1531.0,-6.781,-7.947,0.916,-0.467,-0.485,-2.468
1536.0,-6.781,-7.947,0.916,-0.467,-0.485,-2.468
1540.0,-7.845,-7.862,0.915,-0.523,-0.456,-2.74
1544.0,-7.845,-7.862,0.915,-0.523,-0.456,-2.74
1548.0,-7.845,-7.862,0.915,-0.523,-0.456,-2.74
1552.0,-8.545,-7.804,0.977,-0.579,-0.421,-2.979
1556.0,-8.545,-7.804,0.977,-0.579,-0.421,-2.979
1560.0,-8.828,-7.918,1.136,-0.632,-0.374,-3.188
1564.0,-8.828,-7.918,1.136,-0.632,-0.374,-3.188
1568.0,-8.878,-8.109,1.333,-0.632,-0.374,-3.188
1572.0,-8.878,-8.109,1.333,-0.685,-0.31,-3.382
1576.0,-8.878,-8.109,1.333,-0.685,-0.31,-3.382
1580.0,-8.931,-8.253,1.498,-0.737,-0.219,-3.574
1585.0,-8.931,-8.253,1.498,-0.737,-0.219,-3.574
1589.0,-9.079,-8.337,1.784,-0.794,-0.106,-3.766
1593.0,-9.079,-8.337,1.784,-0.794,-0.106,-3.766
1597.0,-9.079,-8.337,1.784,-0.794,-0.106,-3.766
1601.0,-9.447,-8.432,2.013,-0.851,0.011,-3.955
1605.0,-9.447,-8.432,2.013,-0.851,0.011,-3.955
1609.0,-10.016,-8.577,2.21,-0.904,0.132,-4.131
1613.0,-10.016,-8.577,2.21,-0.904,0.132,-4.131
1617.0,-10.016,-8.577,2.21,-0.904,0.132,-4.131
1621.0,-10.776,-8.76,2.515,-0.939,0.26,-4.282
1625.0,-10.776,-8.76,2.515,-0.939,0.26,-4.282
1629.0,-11.642,-9.159,3.047,-0.941,0.373,-4.401
1633.0,-11.642,-9.159,3.047,-0.941,0.373,-4.401
1637.0,-12.437,-9.556,3.585,-0.941,0.373,-4.401
1641.0,-12.437,-9.556,3.585,-0.898,0.443,-4.506
1646.0,-12.437,-9.556,3.585,-0.898,0.443,-4.506
1650.0,-13.003,-9.82,4.091,-0.805,0.467,-4.608
1654.0,-13.003,-9.82,4.091,-0.805,0.467,-4.608
1658.0,-13.406,-9.99,4.504,-0.672,0.464,-4.699
1662.0,-13.406,-9.99,4.504,-0.672,0.464,-4.699
1666.0,-13.406,-9.99,4.504,-0.672,0.464,-4.699
1670.0,-13.793,-10.183,4.868,-0.518,0.449,-4.775
1674.0,-13.793,-10.183,4.868,-0.518,0.449,-4.775
1678.0,-14.098,-10.248,5.355,-0.364,0.429,-4.846
1683.0,-14.098,-10.248,5.355,-0.364,0.429,-4.846
1687.0,-14.145,-10.228,6.068,-0.364,0.429,-4.846
1691.0,-14.145,-10.228,6.068,-0.218,0.387,-4.927
1695.0,-14.145,-10.228,6.068,-0.218,0.387,-4.927
1699.0,-14.145,-10.256,6.812,-0.082,0.297,-4.987
1703.0,-14.145,-10.256,6.812,-0.082,0.297,-4.987
1708.0,-14.392,-10.311,7.353,0.036,0.155,-4.995
1712.0,-14.392,-10.311,7.353,0.036,0.155,-4.995
1716.0,-14.392,-10.311,7.353,0.036,0.155,-4.995
1720.0,-14.817,-10.303,7.766,0.125,-0.018,-4.995
1724.0,-14.817,-10.303,7.766,0.125,-0.018,-4.995
1728.0,-15.169,-10.231,8.123,0.18,-0.219,-4.995
1732.0,-15.169,-10.231,8.123,0.18,-0.219,-4.995
1736.0,-15.322,-10.276,8.423,0.18,-0.434,-4.995
1741.0,-15.322,-10.276,8.423,0.203,-0.434,-4.995
1745.0,-15.322,-10.276,8.423,0.203,-0.434,-4.995
1749.0,-15.4,-10.586,8.845,0.198,-0.644,-4.995
1753.0,-15.4,-10.586,8.845,0.198,-0.644,-4.995
1757.0,-15.695,-11.14,9.367,0.172,-0.849,-4.995
1761.0,-15.695,-11.14,9.367,0.172,-0.849,-4.995
1766.0,-16.274,-11.588,10.025,0.172,-0.849,-4.995
1770.0,-16.274,-11.588,10.025,0.125,-1.054,-4.995
1774.0,-16.274,-11.588,10.025,0.125,-1.054,-4.995
1778.0,-16.941,-12.051,10.731,0.029,-1.279,-4.995
1783.0,-16.941,-12.051,10.731,0.029,-1.279,-4.995
1787.0,-17.84,-12.604,11.019,-0.115,-1.513,-4.995
1791.0,-17.84,-12.604,11.019,-0.115,-1.513,-4.995
1796.0,-18.567,-13.585,11.401,-0.115,-1.513,-4.995
1800.0,-18.567,-13.585,11.401,-0.351,-1.732,-4.995
1804.0,-18.567,-13.585,11.401,-0.351,-1.732,-4.995
1809.0,-18.945,-14.74,11.441,-0.587,-1.94,-4.995
1813.0,-18.945,-14.74,11.441,-0.587,-1.94,-4.995
1817.0,-18.925,-15.824,11.496,-0.807,-2.13,-4.995
1822.0,-18.925,-15.824,11.496,-0.807,-2.13,-4.995
1826.0,-18.799,-16.88,11.637,-0.974,-2.301,-4.995
1830.0,-18.799,-16.88,11.637,-0.974,-2.301,-4.995
1835.0,-18.799,-18.293,11.862,-0.974,-2.301,-4.995
1839.0,-18.22,-18.293,11.862,-1.067,-2.441,-4.995
1843.0,-18.22,-18.293,11.862,-1.067,-2.441,-4.995
1848.0,-17.852,-19.266,11.988,-1.036,-2.532,-4.995
1852.0,-17.852,-19.266,11.988,-1.036,-2.532,-4.995
1856.0,-17.521,-19.6,12.036,-0.936,-2.601,-4.995
1861.0,-17.521,-19.6,12.036,-0.936,-2.601,-4.995
1865.0,-16.726,-19.6,12.015,-0.809,-2.667,-4.995
1869.0,-16.726,-19.6,12.015,-0.809,-2.667,-4.995
1874.0,-16.726,-19.6,12.015,-0.809,-2.667,-4.995
1878.0,-16.012,-19.6,11.618,-0.608,-2.735,-4.995
1882.0,-16.012,-19.6,11.618,-0.608,-2.735,-4.995
1887.0,-14.795,-19.571,10.786,-0.313,-2.811,-4.995
1891.0,-14.795,-19.571,10.786,-0.313,-2.811,-4.995
1895.0,-13.018,-18.276,9.957,0.054,-2.862,-4.995
1900.0,-13.018,-18.276,9.957,0.054,-2.862,-4.995
1904.0,-13.018,-16.156,9.126,0.054,-2.862,-4.995
1908.0,-11.382,-16.156,9.126,0.46,-2.875,-4.995
1912.0,-11.382,-16.156,9.126,0.46,-2.875,-4.995
1916.0,-10.327,-13.875,7.899,0.874,-2.873,-4.995
1920.0,-10.327,-13.875,7.899,0.874,-2.873,-4.995
1925.0,-9.435,-11.478,6.436,1.232,-2.876,-4.995
1929.0,-9.435,-11.478,6.436,1.232,-2.876,-4.995
1933.0,-9.435,-11.478,6.436,1.232,-2.876,-4.995
1937.0,-8.168,-9.19,4.996,1.492,-2.867,-4.995
1941.0,-8.168,-9.19,4.996,1.492,-2.867,-4.995
1945.0,-6.876,-7.097,3.814,1.651,-2.815,-4.995
1949.0,-6.876,-7.097,3.814,1.651,-2.815,-4.995
1953.0,-6.876,-7.097,3.814,1.651,-2.815,-4.995
1957.0,-5.812,-5.201,2.882,1.72,-2.707,-4.995
1961.0,-5.812,-5.201,2.882,1.72,-2.707,-4.995
1965.0,-5.107,-3.507,2.152,1.717,-2.545,-4.995
1969.0,-5.107,-3.507,2.152,1.717,-2.545,-4.995
1973.0,-5.107,-3.507,1.63,1.717,-2.545,-4.995
1977.0,-4.658,-2.085,1.63,1.659,-2.343,-4.922
1981.0,-4.658,-2.085,1.63,1.659,-2.343,-4.922
1985.0,-4.537,-0.84,1.263,1.58,-2.135,-4.515
1989.0,-4.537,-0.84,1.263,1.58,-2.135,-4.515
1993.0,-4.57,0.228,0.664,1.58,-2.135,-4.515
1997.0,-4.57,0.228,0.664,1.501,-1.933,-4.009
2001.0,-4.57,0.228,0.664,1.501,-1.933,-4.009
2004.0,-4.62,1.018,0.202,1.418,-1.712,-3.498
2008.0,-4.62,1.018,0.202,1.418,-1.712,-3.498
2012.0,-4.62,1.604,-0.16,1.418,-1.712,-3.498
2016.0,-4.787,1.604,-0.16,1.343,-1.463,-2.99
2020.0,-4.787,1.604,-0.16,1.343,-1.463,-2.99
2024.0,-5.021,2.087,-0.54,1.29,-1.193,-2.479
2028.0,-5.021,2.087,-0.54,1.29,-1.193,-2.479
2032.0,-5.406,2.428,-0.875,1.29,-1.193,-2.479
2036.0,-5.406,2.428,-0.875,1.253,-0.901,-1.933
2040.0,-5.406,2.428,-0.875,1.253,-0.901,-1.933
2044.0,-5.889,2.565,-1.055,1.215,-0.587,-1.342
2048.0,-5.889,2.565,-1.055,1.215,-0.587,-1.342
2052.0,-6.377,2.472,-0.992,1.215,-0.587,-0.738
2056.0,-6.377,2.472,-0.992,1.179,-0.256,-0.738
2060.0,-6.377,2.472,-0.992,1.179,-0.256,-0.738
2064.0,-6.653,2.347,-0.775,1.149,0.067,-0.157
2068.0,-6.653,2.347,-0.775,1.149,0.067,-0.157
2072.0,-6.659,2.399,-0.545,1.149,0.067,0.388
2076.0,-6.659,2.399,-0.545,1.115,0.363,0.388
2080.0,-6.659,2.399,-0.545,1.115,0.363,0.388
2083.0,-6.521,2.626,-0.361,1.059,0.631,0.907
2087.0,-6.521,2.626,-0.361,1.059,0.631,0.907
2091.0,-6.521,2.626,-0.268,1.059,0.631,0.907
2095.0,-6.4,2.823,-0.268,0.967,0.886,1.409
2099.0,-6.4,2.823,-0.268,0.967,0.886,1.409
2102.0,-6.276,2.927,-0.199,0.836,1.143,1.896
2106.0,-6.276,2.927,-0.199,0.836,1.143,1.896
2110.0,-6.276,2.927,-0.199,0.836,1.143,1.896
2114.0,-6.107,2.925,-0.09,0.669,1.411,2.364
2118.0,-6.107,2.925,-0.09,0.669,1.411,2.364
2122.0,-5.834,2.806,0.185,0.471,1.69,2.812
2125.0,-5.834,2.806,0.185,0.471,1.69,2.812
2129.0,-5.834,2.806,0.185,0.471,1.69,2.812
2133.0,-5.57,2.575,0.589,0.256,1.977,3.244
2137.0,-5.57,2.575,0.589,0.256,1.977,3.244
2140.0,-5.57,2.575,0.589,0.256,1.977,3.244
2144.0,-5.446,2.255,0.986,0.032,2.268,3.672
2148.0,-5.446,2.255,0.986,0.032,2.268,3.672
2151.0,-5.464,1.92,1.391,-0.202,2.57,4.102
2155.0,-5.464,1.92,1.391,-0.202,2.57,4.102
2159.0,-5.464,1.92,1.391,-0.202,2.57,4.102
2163.0,-5.68,1.504,1.857,-0.448,2.889,4.542
2167.0,-5.68,1.504,1.857,-0.448,2.889,4.542
2171.0,-6.193,0.96,2.465,-0.448,2.889,4.926
2174.0,-6.193,0.96,2.465,-0.709,3.217,4.926
2178.0,-6.193,0.96,2.465,-0.709,3.217,4.926
2182.0,-7.007,0.331,3.127,-0.975,3.54,5.013
2186.0,-7.007,0.331,3.127,-0.975,3.54,5.013
2190.0,-7.007,0.331,3.127,-0.975,3.54,5.013
2193.0,-8.101,-0.514,3.815,-1.237,3.835,5.013
2197.0,-8.101,-0.514,3.815,-1.237,3.835,5.013
2201.0,-9.449,-1.507,4.404,-1.477,4.088,5.013
2205.0,-9.449,-1.507,4.404,-1.477,4.088,5.013
2209.0,-9.449,-1.507,4.404,-1.477,4.088,5.013
2213.0,-10.902,-2.636,4.954,-1.674,4.289,5.013
2217.0,-10.902,-2.636,4.954,-1.674,4.289,5.013
2221.0,-12.407,-3.811,5.535,-1.811,4.424,5.013
2225.0,-12.407,-3.811,5.535,-1.811,4.424,5.013
2229.0,-12.407,-3.811,5.535,-1.811,4.424,5.013
2233.0,-13.705,-5.21,5.883,-1.836,4.487,5.013
2237.0,-13.705,-5.21,5.883,-1.836,4.487,5.013
2241.0,-15.011,-5.514,6.135,-1.775,4.473,5.013
2245.0,-15.011,-5.514,6.135,-1.775,4.473,5.013
2249.0,-15.011,-5.514,6.962,-1.775,4.473,5.013
2253.0,-16.217,-6.48,6.962,-1.688,4.405,5.013
2257.0,-16.217,-6.48,6.962,-1.688,4.405,5.013
2261.0,-17.538,-7.45,7.637,-1.517,4.285,5.013
2265.0,-17.538,-7.45,7.637,-1.517,4.285,5.013
2269.0,-17.538,-8.282,8.023,-1.517,4.285,5.013
2273.0,-17.954,-8.282,8.023,-1.297,4.114,5.013
2277.0,-17.954,-8.282,8.023,-1.297,4.114,5.013
2281.0,-18.288,-10.126,9.092,-0.989,3.846,5.013
2285.0,-18.288,-10.126,9.092,-0.989,3.846,5.013
2289.0,-19.6,-9.934,10.007,-0.989,3.846,5.013
2293.0,-19.6,-9.934,10.007,-0.71,3.497,5.013
2297.0,-19.6,-9.934,10.007,-0.71,3.497,5.013
2301.0,-19.6,-9.233,9.779,-0.578,3.163,5.013
2305.0,-19.6,-9.233,9.779,-0.578,3.163,5.013
2309.0,-19.6,-8.401,9.473,-0.497,2.872,5.013
2313.0,-19.6,-8.401,9.473,-0.497,2.872,5.013
2317.0,-19.6,-8.401,9.473,-0.497,2.872,5.013
2321.0,-19.6,-7.543,9.37,-0.449,2.654,5.013
2325.0,-19.6,-7.543,9.37,-0.449,2.654,5.013
2329.0,-19.6,-6.678,9.48,-0.43,2.472,5.013
2333.0,-19.6,-6.678,9.48,-0.43,2.472,5.013
2337.0,-19.6,-6.678,9.48,-0.43,2.472,5.013
2341.0,-19.6,-6.257,9.708,-0.423,2.301,5.013
2345.0,-19.6,-6.257,9.708,-0.423,2.301,5.013
2349.0,-19.6,-6.087,10.026,-0.449,2.118,5.013
2353.0,-19.6,-6.087,10.026,-0.449,2.118,5.013
2357.0,-19.6,-6.087,10.026,-0.449,2.118,5.013
2361.0,-19.6,-6.249,10.323,-0.517,1.9,5.013
2366.0,-19.6,-6.249,10.323,-0.517,1.9,5.013
2370.0,-19.6,-6.595,10.546,-0.609,1.649,5.013
2374.0,-19.6,-6.595,10.546,-0.609,1.649,5.013
2378.0,-19.6,-6.335,10.396,-0.609,1.649,5.013
2382.0,-19.6,-6.335,10.396,-0.683,1.386,5.013
2386.0,-19.6,-6.335,10.396,-0.683,1.386,5.013
2390.0,-19.6,-5.823,10.209,-0.754,1.15,5.013
2394.0,-19.6,-5.823,10.209,-0.754,1.15,5.013
2398.0,-19.6,-5.545,10.302,-0.837,0.95,5.013
2402.0,-19.6,-5.545,10.302,-0.837,0.95,5.013
2406.0,-19.6,-5.545,10.302,-0.837,0.95,5.013
2410.0,-19.6,-5.337,10.718,-0.924,0.768,5.013
2414.0,-19.6,-5.337,10.718,-0.924,0.768,5.013
2419.0,-19.6,-5.163,11.155,-1.023,0.572,5.013
2423.0,-19.6,-5.163,11.155,-1.023,0.572,5.013
2427.0,-19.6,-5.163,11.409,-1.023,0.572,5.013
2431.0,-19.6,-5.249,11.409,-1.13,0.363,5.013
2435.0,-19.6,-5.249,11.409,-1.13,0.363,5.013
2439.0,-19.6,-5.495,11.597,-1.218,0.18,5.013
2443.0,-19.6,-5.495,11.597,-1.218,0.18,5.013
2447.0,-19.6,-5.919,11.781,-1.218,0.02,5.013
2451.0,-19.6,-5.919,11.781,-1.259,0.02,5.013
2455.0,-19.6,-5.919,11.781,-1.259,0.02,5.013
2459.0,-19.6,-6.209,11.801,-1.249,-0.139,5.013
2464.0,-19.6,-6.209,11.801,-1.249,-0.139,5.013
2468.0,-19.36,-6.22,11.572,-1.205,-0.305,5.013
2472.0,-19.36,-6.22,11.572,-1.205,-0.305,5.013
2476.0,-19.36,-6.22,11.225,-1.205,-0.305,5.013
2480.0,-18.266,-6.008,11.225,-1.153,-0.462,5.013
2484.0,-18.266,-6.008,11.225,-1.153,-0.462,5.013
2489.0,-17.101,-5.654,10.915,-1.113,-0.59,5.013
2493.0,-17.101,-5.654,10.915,-1.113,-0.59,5.013
2497.0,-15.972,-5.233,10.763,-1.099,-0.7,5.013
2501.0,-15.972,-5.233,10.763,-1.099,-0.7,5.013
2505.0,-15.972,-5.233,10.763,-1.099,-0.7,5.013
2509.0,-15.217,-4.77,10.839,-1.12,-0.839,5.003
2514.0,-15.217,-4.77,10.839,-1.12,-0.839,5.003
2518.0,-14.628,-4.444,10.82,-1.177,-1.033,4.95
2522.0,-14.628,-4.444,10.82,-1.177,-1.033,4.95
2526.0,-13.907,-4.448,10.209,-1.177,-1.033,4.88
2530.0,-13.907,-4.448,10.209,-1.28,-1.266,4.88
2534.0,-13.907,-4.448,10.209,-1.28,-1.266,4.88
2539.0,-13.163,-4.627,9.074,-1.457,-1.465,4.803
2543.0,-13.163,-4.627,9.074,-1.457,-1.465,4.803
2547.0,-12.401,-4.636,7.779,-1.737,-1.576,4.697
2551.0,-12.401,-4.636,7.779,-1.737,-1.576,4.697
2555.0,-12.401,-4.636,7.779,-1.737,-1.576,4.697
2559.0,-11.301,-4.598,6.946,-2.108,-1.617,4.541
2563.0,-11.301,-4.598,6.946,-2.108,-1.617,4.541
2567.0,-9.72,-4.593,6.459,-2.538,-1.659,4.289
2571.0,-9.72,-4.593,6.459,-2.538,-1.659,4.289
2575.0,-7.89,-4.61,6.036,-2.538,-1.659,4.289
2579.0,-7.89,-4.61,6.036,-2.989,-1.711,3.905
2583.0,-7.89,-4.61,6.036,-2.989,-1.711,3.905
2587.0,-6.071,-4.7,5.428,-3.422,-1.739,3.403
2591.0,-6.071,-4.7,5.428,-3.422,-1.739,3.403
2595.0,-4.573,-4.901,4.825,-3.422,-1.739,2.843
2599.0,-4.573,-4.901,4.825,-3.803,-1.726,2.843
2603.0,-4.573,-4.901,4.825,-3.803,-1.726,2.843
2607.0,-3.505,-5.235,4.249,-4.084,-1.661,2.297
2611.0,-3.505,-5.235,4.249,-4.084,-1.661,2.297
2615.0,-2.879,-5.862,3.835,-4.084,-1.548,1.812
2619.0,-2.879,-5.862,3.835,-4.221,-1.548,1.812
2623.0,-2.879,-5.862,3.835,-4.221,-1.548,1.812
2627.0,-2.513,-6.745,3.569,-4.187,-1.425,1.384
2631.0,-2.513,-6.745,3.569,-4.187,-1.425,1.384
2635.0,-2.18,-7.735,3.302,-3.963,-1.336,0.986
2639.0,-2.18,-7.735,3.302,-3.963,-1.336,0.986
2643.0,-2.18,-7.735,3.302,-3.963,-1.336,0.986
2647.0,-1.792,-8.575,2.797,-3.553,-1.267,0.599
2651.0,-1.792,-8.575,2.797,-3.553,-1.267,0.599
2655.0,-1.537,-9.098,2.233,-2.991,-1.165,0.236
2659.0,-1.537,-9.098,2.233,-2.991,-1.165,0.236
2663.0,-1.537,-9.098,2.233,-2.991,-1.165,0.236
2667.0,-1.615,-9.306,1.736,-2.332,-1.018,-0.084
2671.0,-1.615,-9.306,1.736,-2.332,-1.018,-0.084
2675.0,-1.967,-9.147,1.323,-1.63,-0.851,-0.367
2679.0,-1.967,-9.147,1.323,-1.63,-0.851,-0.367
2683.0,-1.967,-9.147,0.899,-1.63,-0.851,-0.367
2687.0,-2.424,-8.663,0.899,-0.946,-0.693,-0.63
2691.0,-2.424,-8.663,0.899,-0.946,-0.693,-0.63
2695.0,-2.954,-8.041,0.544,-0.314,-0.54,-0.889
2700.0,-2.954,-8.041,0.544,-0.314,-0.54,-0.889
2704.0,-3.459,-7.4,0.404,-0.314,-0.54,-1.137
2708.0,-3.459,-7.4,0.404,0.243,-0.374,-1.137
2712.0,-3.459,-7.4,0.404,0.243,-0.374,-1.137
2716.0,-3.887,-6.788,0.387,0.723,-0.193,-1.386
2720.0,-3.887,-6.788,0.387,0.723,-0.193,-1.386
2724.0,-4.237,-6.236,0.23,1.121,-0.015,-1.637
2728.0,-4.237,-6.236,0.23,1.121,-0.015,-1.637
2732.0,-4.237,-6.236,0.23,1.121,-0.015,-1.637
2736.0,-4.565,-5.743,0.002,1.431,0.159,-1.894
2740.0,-4.565,-5.743,0.002,1.431,0.159,-1.894
2743.0,-4.979,-5.36,-0.203,1.663,0.331,-2.149
2747.0,-4.979,-5.36,-0.203,1.663,0.331,-2.149
2751.0,-4.979,-5.36,-0.203,1.663,0.331,-2.149
2755.0,-5.457,-5.052,-0.377,1.83,0.49,-2.394
2759.0,-5.457,-5.052,-0.377,1.83,0.49,-2.394
2763.0,-6.014,-4.798,-0.428,1.944,0.629,-2.629
2767.0,-6.014,-4.798,-0.428,1.944,0.629,-2.629
2771.0,-6.014,-4.798,-0.428,1.944,0.629,-2.629
2775.0,-6.668,-4.559,-0.427,2.01,0.74,-2.849
2779.0,-6.668,-4.559,-0.427,2.01,0.74,-2.849
2783.0,-7.336,-4.372,-0.436,2.028,0.82,-3.046
2787.0,-7.336,-4.372,-0.436,2.028,0.82,-3.046
2791.0,-7.336,-4.372,-0.436,2.028,0.82,-3.046
2795.0,-7.989,-4.231,-0.455,2.005,0.882,-3.217
2799.0,-7.989,-4.231,-0.455,2.005,0.882,-3.217
2803.0,-8.607,-4.216,-0.468,1.951,0.932,-3.363
2807.0,-8.607,-4.216,-0.468,1.951,0.932,-3.363
2811.0,-8.607,-4.216,-0.468,1.951,0.932,-3.363
2815.0,-9.194,-4.203,-0.469,1.877,0.975,-3.493
2819.0,-9.194,-4.203,-0.469,1.877,0.975,-3.493
2823.0,-9.741,-4.149,-0.377,1.786,1.014,-3.61
2827.0,-9.741,-4.149,-0.377,1.786,1.014,-3.61
2831.0,-9.741,-4.149,-0.26,1.786,1.014,-3.61
2835.0,-10.265,-4.114,-0.26,1.674,1.042,-3.717
2839.0,-10.265,-4.114,-0.26,1.674,1.042,-3.717
2843.0,-10.778,-4.098,-0.075,1.535,1.063,-3.823
2848.0,-10.778,-4.098,-0.075,1.535,1.063,-3.823
2852.0,-11.261,-4.086,0.177,1.535,1.063,-3.938
2856.0,-11.261,-4.086,0.177,1.37,1.082,-3.938
2860.0,-11.261,-4.086,0.177,1.37,1.082,-3.938
2864.0,-11.759,-4.158,0.514,1.184,1.099,-4.061
2868.0,-11.759,-4.158,0.514,1.184,1.099,-4.061
2872.0,-12.395,-4.371,0.863,1.184,1.104,-4.199
2876.0,-12.395,-4.371,0.863,0.988,1.104,-4.199
2880.0,-12.395,-4.371,0.863,0.988,1.104,-4.199
2884.0,-13.122,-4.637,1.216,0.805,1.087,-4.351
2888.0,-13.122,-4.637,1.216,0.805,1.087,-4.351
2892.0,-13.724,-5.005,1.61,0.658,1.049,-4.517
2896.0,-13.724,-5.005,1.61,0.658,1.049,-4.517
2900.0,-13.724,-5.005,1.61,0.658,1.049,-4.517
2904.0,-14.103,-5.451,2.099,0.558,1.008,-4.689
2908.0,-14.103,-5.451,2.099,0.558,1.008,-4.689
2912.0,-14.325,-5.967,2.696,0.498,0.971,-4.858
2916.0,-14.325,-5.967,2.696,0.498,0.971,-4.858
2920.0,-14.325,-5.967,2.696,0.498,0.971,-4.858
2923.0,-14.545,-6.403,3.234,0.457,0.93,-4.979
2927.0,-14.545,-6.403,3.234,0.457,0.93,-4.979
2931.0,-14.693,-6.804,3.733,0.421,0.869,-4.995
2935.0,-14.693,-6.804,3.733,0.421,0.869,-4.995
2939.0,-14.693,-6.804,3.733,0.421,0.869,-4.995
2943.0,-14.599,-7.263,4.371,0.394,0.79,-4.995
2947.0,-14.599,-7.263,4.371,0.394,0.79,-4.995
2951.0,-14.474,-7.787,5.14,0.392,0.691,-4.995
2955.0,-14.474,-7.787,5.14,0.392,0.691,-4.995
2959.0,-14.474,-7.787,5.14,0.392,0.691,-4.995
2963.0,-14.617,-8.162,5.897,0.418,0.578,-4.995
2967.0,-14.617,-8.162,5.897,0.418,0.578,-4.995
2971.0,-14.768,-8.589,6.461,0.448,0.45,-4.995
2975.0,-14.768,-8.589,6.461,0.448,0.45,-4.995
2979.0,-14.768,-8.589,6.922,0.448,0.45,-4.995
2983.0,-15.335,-8.91,6.922,0.467,0.322,-4.995
2987.0,-15.335,-8.91,6.922,0.467,0.322,-4.995
2991.0,-15.976,-9.476,7.698,0.452,0.169,-4.995
2995.0,-15.976,-9.476,7.698,0.452,0.169,-4.995
2999.0,-16.808,-10.046,8.659,0.452,0.169,-4.995
