deltaTime,Acc_X,Acc_Y,Acc_Z,Gyro_X,Gyro_Y,Gyro_Z
0.0,-7.341,-8.17,0.539,0.747,-0.947,0.32
3.0,-7.341,-8.17,0.539,0.747,-0.947,0.32
6.0,-7.341,-8.17,0.539,0.747,-0.947,0.32
9.0,-7.81,-7.496,0.52,0.66,-0.891,0.376
12.0,-7.81,-7.496,0.52,0.66,-0.891,0.376
15.0,-7.81,-7.496,0.52,0.66,-0.891,0.376
18.0,-8.201,-7.018,0.668,0.432,-0.84,0.393
21.0,-8.201,-7.018,0.668,0.432,-0.84,0.393
24.0,-8.201,-7.018,0.668,0.432,-0.84,0.393
27.0,-8.078,-6.753,0.884,0.123,-0.799,0.374
30.0,-8.078,-6.753,0.884,0.123,-0.799,0.374
33.0,-8.078,-6.753,0.884,0.123,-0.799,0.374
36.0,-7.663,-6.726,1.09,0.123,-0.799,0.374
39.0,-7.663,-6.726,1.09,-0.199,-0.75,0.338
43.0,-7.663,-6.726,1.09,-0.199,-0.75,0.338
47.0,-7.21,-6.926,1.287,-0.465,-0.685,0.308
51.0,-7.21,-6.926,1.287,-0.465,-0.685,0.308
55.0,-7.21,-6.926,1.287,-0.465,-0.685,0.308
59.0,-6.513,-6.857,1.376,-0.646,-0.604,0.277
62.0,-6.513,-6.857,1.376,-0.646,-0.604,0.277
66.0,-6.051,-6.614,1.338,-0.789,-0.499,0.231
70.0,-6.051,-6.614,1.338,-0.789,-0.499,0.231
74.0,-6.051,-6.614,1.338,-0.789,-0.499,0.231
78.0,-5.871,-6.177,1.256,-0.939,-0.379,0.174
81.0,-5.871,-6.177,1.256,-0.939,-0.379,0.174
85.0,-5.662,-5.398,1.201,-0.939,-0.379,0.174
89.0,-5.662,-5.398,1.201,-1.15,-0.245,0.105
93.0,-5.662,-5.398,1.201,-1.15,-0.245,0.105
97.0,-5.358,-5.144,1.252,-1.438,-0.104,0.051
101.0,-5.358,-5.144,1.252,-1.438,-0.104,0.051
104.0,-5.358,-5.144,1.433,-1.438,-0.104,0.051
108.0,-4.688,-5.438,1.433,-1.705,0.055,0.053
112.0,-4.688,-5.438,1.433,-1.705,0.055,0.053
116.0,-4.519,-5.467,1.698,-1.87,0.24,0.088
120.0,-4.519,-5.467,1.698,-1.87,0.24,0.088
124.0,-4.519,-5.467,1.698,-1.87,0.24,0.088
127.0,-4.321,-5.329,2.023,-1.944,0.358,0.108
131.0,-4.321,-5.329,2.023,-1.944,0.358,0.108
135.0,-4.197,-5.355,2.416,-1.969,0.468,0.134
139.0,-4.197,-5.355,2.416,-1.969,0.468,0.134
143.0,-4.197,-5.355,2.416,-1.969,0.468,0.134
147.0,-4.225,-5.854,2.694,-1.915,0.555,0.188
150.0,-4.225,-5.854,2.694,-1.915,0.555,0.188
154.0,-4.366,-6.53,2.812,-1.915,0.555,0.188
158.0,-4.366,-6.53,2.812,-1.709,0.576,0.274
162.0,-4.366,-6.53,2.812,-1.709,0.576,0.274
166.0,-4.417,-6.689,2.63,-1.323,0.527,0.358
169.0,-4.417,-6.689,2.63,-1.323,0.527,0.358
173.0,-4.417,-6.689,2.63,-1.323,0.527,0.358
177.0,-4.455,-6.038,2.263,-0.867,0.454,0.39
181.0,-4.455,-6.038,2.263,-0.867,0.454,0.39
185.0,-4.113,-5.778,2.057,-0.453,0.394,0.401
189.0,-4.113,-5.778,2.057,-0.453,0.394,0.401
192.0,-4.113,-5.778,2.057,-0.453,0.394,0.401
196.0,-3.667,-5.56,1.95,-0.07,0.35,0.443
200.0,-3.667,-5.56,1.95,-0.07,0.35,0.443
204.0,-3.245,-5.53,2.237,-0.07,0.35,0.496
208.0,-3.245,-5.53,2.237,0.27,0.316,0.496
211.0,-3.245,-5.53,2.237,0.27,0.316,0.496
215.0,-3.154,-5.403,3.249,0.563,0.264,0.536
219.0,-3.154,-5.403,3.249,0.563,0.264,0.536
223.0,-3.154,-5.403,3.249,0.563,0.264,0.536
226.0,-3.251,-5.536,4.677,0.782,0.148,0.542
230.0,-3.251,-5.536,4.677,0.782,0.148,0.542
234.0,-3.205,-5.999,6.11,0.916,-0.049,0.486
238.0,-3.205,-5.999,6.11,0.916,-0.049,0.486
241.0,-3.205,-5.999,6.11,0.916,-0.049,0.486
245.0,-2.272,-6.923,7.525,0.968,-0.296,0.342
249.0,-2.272,-6.923,7.525,0.968,-0.296,0.342
253.0,-0.641,-7.969,8.798,0.968,-0.296,0.342
257.0,-0.641,-7.969,8.798,0.943,-0.525,0.071
261.0,-0.641,-7.969,8.798,0.943,-0.525,0.071
264.0,0.62,-8.89,10.158,0.823,-0.672,-0.321
268.0,0.62,-8.89,10.158,0.823,-0.672,-0.321
272.0,0.62,-8.89,10.158,0.823,-0.672,-0.321
276.0,0.465,-10.128,11.529,0.586,-0.806,-0.81
280.0,0.465,-10.128,11.529,0.586,-0.806,-0.81
284.0,0.323,-11.602,12.575,0.347,-1.154,-1.325
288.0,0.323,-11.602,12.575,0.347,-1.154,-1.325
292.0,0.323,-11.602,13.366,0.347,-1.154,-1.325
296.0,-0.391,-14.256,13.366,0.076,-1.538,-1.845
300.0,-0.391,-14.256,13.366,0.076,-1.538,-1.845
304.0,-1.36,-17.152,13.459,-0.12,-1.944,-2.409
308.0,-1.36,-17.152,13.459,-0.12,-1.944,-2.409
313.0,-2.066,-19.409,13.43,-0.12,-2.363,-3.012
317.0,-2.066,-19.409,13.43,-0.201,-2.363,-3.012
321.0,-2.066,-19.409,13.43,-0.201,-2.363,-3.012
325.0,-2.423,-19.6,13.451,-0.218,-2.781,-3.655
329.0,-2.423,-19.6,13.451,-0.218,-2.781,-3.655
333.0,-2.39,-19.6,13.05,-0.206,-3.22,-4.332
338.0,-2.39,-19.6,13.05,-0.206,-3.22,-4.332
342.0,-2.376,-19.6,12.442,-0.206,-3.22,-4.332
346.0,-2.376,-19.6,12.442,-0.143,-3.669,-4.891
350.0,-2.376,-19.6,12.442,-0.143,-3.669,-4.891
354.0,-2.789,-19.6,11.665,-0.009,-4.112,-4.995
358.0,-2.789,-19.6,11.665,-0.009,-4.112,-4.995
363.0,-3.95,-19.6,10.818,0.193,-4.517,-4.995
367.0,-3.95,-19.6,10.818,0.193,-4.517,-4.995
371.0,-3.95,-19.6,10.818,0.193,-4.517,-4.995
375.0,-5.621,-19.6,9.291,0.461,-4.853,-4.995
379.0,-5.621,-19.6,9.291,0.461,-4.853,-4.995
383.0,-6.779,-19.6,7.342,0.768,-4.988,-4.995
387.0,-6.779,-19.6,7.342,0.768,-4.988,-4.995
391.0,-6.779,-19.6,5.862,0.768,-4.988,-4.995
395.0,-6.742,-19.6,5.862,1.063,-4.992,-4.995
399.0,-6.742,-19.6,5.862,1.063,-4.992,-4.995
403.0,-5.62,-19.522,4.658,1.313,-4.992,-4.995
407.0,-5.62,-19.522,4.658,1.313,-4.992,-4.995
411.0,-5.62,-17.859,3.54,1.313,-4.992,-4.995
415.0,-4.533,-17.859,3.54,1.506,-4.97,-4.995
419.0,-4.533,-17.859,3.54,1.506,-4.97,-4.995
423.0,-3.66,-15.689,2.615,1.633,-4.737,-4.995
427.0,-3.66,-15.689,2.615,1.633,-4.737,-4.995
431.0,-3.278,-13.694,1.838,1.633,-4.737,-4.995
435.0,-3.278,-13.694,1.838,1.707,-4.324,-4.995
439.0,-3.278,-13.694,1.838,1.707,-4.324,-4.995
443.0,-3.179,-11.974,1.095,1.738,-3.857,-4.995
447.0,-3.179,-11.974,1.095,1.738,-3.857,-4.995
451.0,-3.459,-10.315,0.22,1.738,-3.857,-4.995
455.0,-3.459,-10.315,0.22,1.746,-3.375,-4.995
459.0,-3.459,-10.315,0.22,1.746,-3.375,-4.995
463.0,-4.053,-8.845,-0.639,1.724,-2.901,-4.929
467.0,-4.053,-8.845,-0.639,1.724,-2.901,-4.929
471.0,-5.325,-7.872,-1.57,1.724,-2.402,-4.603
475.0,-5.325,-7.872,-1.57,1.629,-2.402,-4.603
479.0,-5.325,-7.872,-1.57,1.629,-2.402,-4.603
483.0,-6.08,-6.997,-2.227,1.516,-2.024,-4.201
487.0,-6.08,-6.997,-2.227,1.516,-2.024,-4.201
491.0,-6.368,-6.258,-2.425,1.36,-1.658,-3.766
495.0,-6.368,-6.258,-2.425,1.36,-1.658,-3.766
499.0,-6.368,-6.258,-2.425,1.36,-1.658,-3.766
503.0,-6.712,-5.6,-2.387,1.191,-1.241,-3.296
507.0,-6.712,-5.6,-2.387,1.191,-1.241,-3.296
511.0,-7.16,-4.799,-2.353,1.066,-0.8,-2.787
515.0,-7.16,-4.799,-2.353,1.066,-0.8,-2.787
519.0,-7.16,-4.799,-2.353,1.066,-0.8,-2.787
523.0,-7.59,-3.728,-2.198,1.007,-0.349,-2.236
527.0,-7.59,-3.728,-2.198,1.007,-0.349,-2.236
531.0,-8.04,-2.593,-2.184,1.014,0.093,-1.644
534.0,-8.04,-2.593,-2.184,1.014,0.093,-1.644
538.0,-8.04,-2.593,-2.184,1.014,0.093,-1.644
542.0,-8.546,-1.404,-1.86,1.071,0.535,-1.033
546.0,-8.546,-1.404,-1.86,1.071,0.535,-1.033
550.0,-9.342,-0.121,-1.241,1.193,0.954,-0.428
554.0,-9.342,-0.121,-1.241,1.193,0.954,-0.428
558.0,-9.342,-0.121,-1.241,1.193,0.954,-0.428
562.0,-10.359,1.038,-0.905,1.36,1.311,0.176
566.0,-10.359,1.038,-0.905,1.36,1.311,0.176
569.0,-11.121,2.091,-0.855,1.531,1.611,0.8
573.0,-11.121,2.091,-0.855,1.531,1.611,0.8
577.0,-11.121,2.091,-0.855,1.531,1.611,0.8
581.0,-11.204,2.889,-0.914,1.666,1.877,1.472
585.0,-11.204,2.889,-0.914,1.666,1.877,1.472
588.0,-10.604,3.252,-0.854,1.666,1.877,1.472
592.0,-10.604,3.252,-0.854,1.732,2.145,2.182
596.0,-10.604,3.252,-0.854,1.732,2.145,2.182
600.0,-9.815,3.138,-0.561,1.714,2.448,2.877
604.0,-9.815,3.138,-0.561,1.714,2.448,2.877
607.0,-9.815,3.138,-0.561,1.714,2.448,2.877
611.0,-9.183,2.76,-0.121,1.622,2.79,3.504
615.0,-9.183,2.76,-0.121,1.622,2.79,3.504
619.0,-8.859,2.422,0.221,1.622,3.157,4.037
622.0,-8.859,2.422,0.221,1.461,3.157,4.037
626.0,-8.859,2.422,0.221,1.461,3.157,4.037
630.0,-8.801,2.189,0.51,1.228,3.545,4.486
633.0,-8.801,2.189,0.51,1.228,3.545,4.486
637.0,-8.801,2.189,0.51,1.228,3.545,4.486
640.0,-9.123,1.992,0.767,0.921,3.943,4.859
644.0,-9.123,1.992,0.767,0.921,3.943,4.859
648.0,-9.77,1.71,1.031,0.921,3.943,4.859
651.0,-9.77,1.71,1.031,0.541,4.338,5.009
655.0,-9.77,1.71,1.031,0.541,4.338,5.009
659.0,-10.495,1.318,1.049,0.099,4.714,5.013
662.0,-10.495,1.318,1.049,0.099,4.714,5.013
666.0,-10.495,1.318,1.049,0.099,4.714,5.013
670.0,-11.304,0.881,0.932,-0.368,4.982,5.013
674.0,-11.304,0.881,0.932,-0.368,4.982,5.013
678.0,-12.37,0.206,0.901,-0.368,4.982,5.013
681.0,-12.37,0.206,0.901,-0.839,5.015,5.013
685.0,-12.37,0.206,0.901,-0.839,5.015,5.013
689.0,-13.947,-1.253,1.266,-1.301,5.015,5.013
693.0,-13.947,-1.253,1.266,-1.301,5.015,5.013
697.0,-13.947,-1.253,1.726,-1.301,5.015,5.013
701.0,-15.845,-3.299,1.726,-1.733,5.015,5.013
705.0,-15.845,-3.299,1.726,-1.733,5.015,5.013
709.0,-17.351,-5.725,2.362,-2.107,5.015,5.013
712.0,-17.351,-5.725,2.362,-2.107,5.015,5.013
716.0,-17.351,-5.725,2.362,-2.107,5.015,5.013
720.0,-17.611,-7.481,2.448,-2.38,5.015,5.013
724.0,-17.611,-7.481,2.448,-2.38,5.015,5.013
728.0,-16.851,-7.898,1.95,-2.515,5.015,5.013
732.0,-16.851,-7.898,1.95,-2.515,5.015,5.013
736.0,-16.851,-7.898,1.95,-2.515,5.015,5.013
740.0,-16.429,-7.439,1.772,-2.523,5.015,5.013
744.0,-16.429,-7.439,1.772,-2.523,5.015,5.013
748.0,-16.914,-6.814,2.538,-2.46,5.015,5.013
752.0,-16.914,-6.814,2.538,-2.46,5.015,5.013
755.0,-16.914,-6.814,2.538,-2.46,5.015,5.013
759.0,-18.151,-6.629,3.891,-2.361,5.012,5.013
763.0,-18.151,-6.629,3.891,-2.361,5.012,5.013
767.0,-19.181,-6.906,5.167,-2.216,4.856,5.013
771.0,-19.181,-6.906,5.167,-2.216,4.856,5.013
775.0,-19.181,-6.906,5.167,-2.216,4.856,5.013
779.0,-16.506,-7.881,7.163,-1.963,4.465,5.013
783.0,-16.506,-7.881,7.163,-1.963,4.465,5.013
787.0,-17.214,-9.06,7.497,-1.618,4.034,5.013
791.0,-17.214,-9.06,7.497,-1.618,4.034,5.013
794.0,-17.214,-9.06,7.497,-1.618,4.034,5.013
798.0,-17.514,-11.386,7.763,-1.079,3.537,5.013
802.0,-17.514,-11.386,7.763,-1.079,3.537,5.013
806.0,-18.347,-7.911,6.689,-0.452,3.211,5.013
810.0,-18.347,-7.911,6.689,-0.452,3.211,5.013
814.0,-18.347,-7.911,6.689,-0.452,3.211,5.013
818.0,-19.436,-3.473,6.453,-0.194,3.017,5.013
822.0,-19.436,-3.473,6.453,-0.194,3.017,5.013
826.0,-19.595,-2.66,6.745,-0.194,2.864,5.01
830.0,-19.595,-2.66,6.745,-0.318,2.864,5.01
834.0,-19.595,-2.66,6.745,-0.318,2.864,5.01
838.0,-19.6,-2.147,7.055,-0.517,2.727,4.97
842.0,-19.6,-2.147,7.055,-0.517,2.727,4.97
845.0,-19.6,-1.588,6.727,-0.517,2.727,4.844
849.0,-19.6,-1.588,6.727,-0.728,2.634,4.844
853.0,-19.6,-1.588,6.727,-0.728,2.634,4.844
857.0,-19.6,-1.332,6.388,-0.958,2.634,4.61
861.0,-19.6,-1.332,6.388,-0.958,2.634,4.61
865.0,-19.495,-1.537,6.827,-0.958,2.634,4.61
869.0,-19.495,-1.537,6.827,-1.191,2.655,4.412
873.0,-19.495,-1.537,6.827,-1.191,2.655,4.412
877.0,-19.592,-1.152,7.317,-1.508,2.633,4.353
881.0,-19.592,-1.152,7.317,-1.508,2.633,4.353
885.0,-19.592,-2.538,7.907,-1.508,2.633,4.353
888.0,-19.6,-2.538,7.907,-1.686,2.615,4.54
892.0,-19.6,-2.538,7.907,-1.686,2.615,4.54
896.0,-19.6,-3.169,8.149,-1.674,2.543,4.813
900.0,-19.6,-3.169,8.149,-1.674,2.543,4.813
904.0,-19.6,-3.169,8.706,-1.674,2.543,4.813
908.0,-19.6,-4.158,8.706,-1.567,2.404,4.985
912.0,-19.6,-4.158,8.706,-1.567,2.404,4.985
916.0,-19.6,-3.878,8.468,-1.342,2.273,5.013
920.0,-19.6,-3.878,8.468,-1.342,2.273,5.013
924.0,-19.6,-3.878,8.468,-1.342,2.273,5.013
927.0,-19.488,-4.083,8.781,-1.152,2.22,5.013
931.0,-19.488,-4.083,8.781,-1.152,2.22,5.013
935.0,-19.6,-4.307,9.349,-1.015,2.182,5.013
939.0,-19.6,-4.307,9.349,-1.015,2.182,5.013
943.0,-19.6,-4.307,9.349,-1.015,2.182,5.013
947.0,-19.6,-4.486,9.741,-0.95,2.13,5.013
951.0,-19.6,-4.486,9.741,-0.95,2.13,5.013
955.0,-19.6,-4.708,10.022,-0.977,2.039,4.953
959.0,-19.6,-4.708,10.022,-0.977,2.039,4.953
963.0,-19.6,-4.708,10.022,-0.977,2.039,4.953
967.0,-19.6,-4.927,10.156,-1.067,1.883,4.633
971.0,-19.6,-4.927,10.156,-1.067,1.883,4.633
975.0,-19.404,-5.057,10.034,-1.187,1.686,4.203
979.0,-19.404,-5.057,10.034,-1.187,1.686,4.203
983.0,-19.404,-5.057,10.034,-1.187,1.686,4.203
987.0,-17.827,-5.406,9.791,-1.327,1.448,3.773
991.0,-17.827,-5.406,9.791,-1.327,1.448,3.773
995.0,-15.608,-5.867,9.44,-1.474,1.171,3.335
998.0,-15.608,-5.867,9.44,-1.474,1.171,3.335
1002.0,-15.608,-5.867,9.44,-1.474,1.171,3.335
1006.0,-13.125,-6.178,9.111,-1.609,0.879,2.886
1010.0,-13.125,-6.178,9.111,-1.609,0.879,2.886
1014.0,-10.548,-6.172,8.716,-1.717,0.581,2.439
1018.0,-10.548,-6.172,8.716,-1.717,0.581,2.439
1022.0,-10.548,-6.172,8.716,-1.717,0.581,2.439
1026.0,-8.287,-5.856,8.429,-1.777,0.284,2.019
1030.0,-8.287,-5.856,8.429,-1.777,0.284,2.019
1034.0,-6.251,-5.498,8.114,-1.784,-0.028,1.646
1038.0,-6.251,-5.498,8.114,-1.784,-0.028,1.646
1042.0,-6.251,-5.498,7.463,-1.784,-0.028,1.646
1046.0,-4.093,-5.298,7.463,-1.766,-0.351,1.327
1050.0,-4.093,-5.298,7.463,-1.766,-0.351,1.327
1054.0,-1.835,-5.285,6.642,-1.744,-0.63,1.068
1058.0,-1.835,-5.285,6.642,-1.744,-0.63,1.068
1062.0,-1.835,-5.517,6.093,-1.744,-0.63,1.068
1066.0,0.428,-5.517,6.093,-1.709,-0.84,0.863
1070.0,0.428,-5.517,6.093,-1.709,-0.84,0.863
1074.0,2.752,-5.944,5.879,-1.626,-1.012,0.652
1078.0,2.752,-5.944,5.879,-1.626,-1.012,0.652
1082.0,2.752,-5.944,5.571,-1.626,-1.012,0.652
1086.0,4.954,-6.423,5.571,-1.47,-1.169,0.384
1090.0,4.954,-6.423,5.571,-1.47,-1.169,0.384
1093.0,6.483,-6.939,4.916,-1.26,-1.3,0.085
1097.0,6.483,-6.939,4.916,-1.26,-1.3,0.085
1101.0,6.483,-6.939,4.916,-1.26,-1.3,0.085
1105.0,6.74,-7.366,4.096,-1.019,-1.379,-0.22
1109.0,6.74,-7.366,4.096,-1.019,-1.379,-0.22
1113.0,5.433,-7.629,3.574,-0.763,-1.417,-0.524
1117.0,5.433,-7.629,3.574,-0.763,-1.417,-0.524
1121.0,5.433,-7.629,3.371,-0.763,-1.417,-0.524
1125.0,3.128,-7.795,3.371,-0.509,-1.468,-0.812
1129.0,3.128,-7.795,3.371,-0.509,-1.468,-0.812
1133.0,0.749,-8.114,3.412,-0.272,-1.559,-1.063
1137.0,0.749,-8.114,3.412,-0.272,-1.559,-1.063
1141.0,0.749,-8.691,3.451,-0.272,-1.559,-1.063
1145.0,-1.474,-8.691,3.451,-0.055,-1.682,-1.28
1149.0,-1.474,-8.691,3.451,-0.055,-1.682,-1.28
1153.0,-3.626,-9.396,3.528,0.134,-1.819,-1.478
1157.0,-3.626,-9.396,3.528,0.134,-1.819,-1.478
1161.0,-5.688,-9.969,3.529,0.134,-1.819,-1.677
1165.0,-5.688,-9.969,3.529,0.276,-1.957,-1.677
1169.0,-5.688,-9.969,3.529,0.276,-1.957,-1.677
1173.0,-7.489,-9.942,3.389,0.351,-2.083,-1.897
1177.0,-7.489,-9.942,3.389,0.351,-2.083,-1.897
1181.0,-8.739,-9.504,3.351,0.351,-2.186,-2.131
1185.0,-8.739,-9.504,3.351,0.334,-2.186,-2.131
1189.0,-8.739,-9.504,3.351,0.334,-2.186,-2.131
1193.0,-9.219,-8.801,3.523,0.21,-2.252,-2.39
1197.0,-9.219,-8.801,3.523,0.21,-2.252,-2.39
1201.0,-9.048,-7.987,3.823,-0.013,-2.281,-2.695
1205.0,-9.048,-7.987,3.823,-0.013,-2.281,-2.695
1209.0,-9.048,-7.987,3.823,-0.013,-2.281,-2.695
1213.0,-8.768,-7.351,4.162,-0.303,-2.278,-3.04
1217.0,-8.768,-7.351,4.162,-0.303,-2.278,-3.04
1222.0,-8.919,-7.272,4.403,-0.613,-2.245,-3.395
1226.0,-8.919,-7.272,4.403,-0.613,-2.245,-3.395
1230.0,-8.919,-7.272,4.343,-0.613,-2.245,-3.395
1234.0,-9.062,-7.759,4.343,-0.895,-2.186,-3.727
1238.0,-9.062,-7.759,4.343,-0.895,-2.186,-3.727
1242.0,-9.184,-8.557,4.219,-1.102,-2.075,-4.03
1246.0,-9.184,-8.557,4.219,-1.102,-2.075,-4.03
1250.0,-9.815,-9.095,3.983,-1.102,-2.075,-4.269
1254.0,-9.815,-9.095,3.983,-1.223,-1.939,-4.269
1258.0,-9.815,-9.095,3.983,-1.223,-1.939,-4.269
1262.0,-9.434,-9.999,4.177,-1.268,-1.808,-4.46
1266.0,-9.434,-9.999,4.177,-1.268,-1.808,-4.46
1271.0,-9.973,-10.51,4.216,-1.203,-1.668,-4.668
1275.0,-9.973,-10.51,4.216,-1.203,-1.668,-4.668
1279.0,-9.973,-10.51,4.216,-1.203,-1.668,-4.668
1283.0,-11.083,-11.113,4.298,-1.085,-1.579,-4.831
1287.0,-11.083,-11.113,4.298,-1.085,-1.579,-4.831
1292.0,-12.086,-12.013,4.588,-0.904,-1.511,-4.959
1296.0,-12.086,-12.013,4.588,-0.904,-1.511,-4.959
1300.0,-13.202,-13.033,5.167,-0.619,-1.475,-4.995
1304.0,-13.202,-13.033,5.167,-0.619,-1.475,-4.995
1309.0,-13.202,-13.033,5.167,-0.619,-1.475,-4.995
1313.0,-14.39,-14.078,5.813,-0.233,-1.526,-4.995
1317.0,-14.39,-14.078,5.813,-0.233,-1.526,-4.995
1321.0,-15.545,-14.719,6.233,0.215,-1.65,-4.995
1325.0,-15.545,-14.719,6.233,0.215,-1.65,-4.995
1330.0,-16.378,-14.793,6.794,0.652,-1.825,-4.995
1334.0,-16.378,-14.793,6.794,0.652,-1.825,-4.995
1338.0,-16.378,-14.793,6.794,0.652,-1.825,-4.995
1342.0,-16.945,-14.759,7.547,1.006,-2.061,-4.995
1346.0,-16.945,-14.759,7.547,1.006,-2.061,-4.995
1350.0,-17.775,-14.828,8.115,1.239,-2.352,-4.995
1355.0,-17.775,-14.828,8.115,1.239,-2.352,-4.995
1359.0,-18.575,-15.164,8.545,1.239,-2.687,-4.995
1363.0,-18.575,-15.164,8.545,1.355,-2.687,-4.995
1367.0,-18.575,-15.164,8.545,1.355,-2.687,-4.995
1371.0,-19.368,-15.903,9.322,1.373,-3.046,-4.995
1375.0,-19.368,-15.903,9.322,1.373,-3.046,-4.995
1380.0,-19.6,-16.517,9.982,1.31,-3.429,-4.995
1384.0,-19.6,-16.517,9.982,1.31,-3.429,-4.995
1388.0,-19.6,-16.503,10.45,1.31,-3.429,-4.995
1392.0,-19.6,-16.503,10.45,1.178,-3.841,-4.995
1396.0,-19.6,-16.503,10.45,1.178,-3.841,-4.995
1401.0,-19.6,-16.215,11.099,0.977,-4.253,-4.995
1405.0,-19.6,-16.215,11.099,0.977,-4.253,-4.995
1409.0,-19.6,-15.713,11.389,0.698,-4.633,-4.995
1413.0,-19.6,-15.713,11.389,0.698,-4.633,-4.995
1418.0,-19.6,-15.373,11.581,0.698,-4.633,-4.995
1422.0,-19.6,-15.373,11.581,0.356,-4.915,-4.995
1426.0,-19.6,-15.373,11.581,0.356,-4.915,-4.995
1431.0,-19.023,-15.374,11.646,0.001,-4.992,-4.995
1435.0,-19.023,-15.374,11.646,0.001,-4.992,-4.995
1439.0,-17.592,-15.422,11.617,-0.307,-4.992,-4.995
1443.0,-17.592,-15.422,11.617,-0.307,-4.992,-4.995
1448.0,-16.092,-15.004,11.267,-0.307,-4.992,-4.995
1452.0,-16.092,-15.004,11.267,-0.541,-4.992,-4.995
1456.0,-16.092,-15.004,11.267,-0.541,-4.992,-4.995
1461.0,-14.521,-14.341,10.884,-0.703,-4.992,-4.995
1465.0,-14.521,-14.341,10.884,-0.703,-4.992,-4.995
1469.0,-13.262,-13.691,10.582,-0.801,-4.992,-4.995
1474.0,-13.262,-13.691,10.582,-0.801,-4.992,-4.995
1478.0,-12.256,-12.849,10.127,-0.821,-4.992,-4.995
1482.0,-12.256,-12.849,10.127,-0.821,-4.992,-4.995
1487.0,-11.293,-11.85,9.597,-0.821,-4.992,-4.995
1491.0,-11.293,-11.85,9.597,-0.75,-4.991,-4.995
1495.0,-11.293,-11.85,9.597,-0.75,-4.991,-4.995
1500.0,-10.687,-11.011,9.17,-0.607,-4.918,-4.995
1504.0,-10.687,-11.011,9.17,-0.607,-4.918,-4.995
1508.0,-10.236,-10.049,8.74,-0.414,-4.718,-4.995
1512.0,-10.236,-10.049,8.74,-0.414,-4.718,-4.995
1517.0,-10.001,-8.821,8.283,-0.414,-4.718,-4.995
1521.0,-10.001,-8.821,8.283,-0.196,-4.513,-4.995
1525.0,-10.001,-8.821,8.283,-0.196,-4.513,-4.995
1529.0,-10.185,-7.39,7.295,0.019,-4.339,-4.993
1533.0,-10.185,-7.39,7.295,0.019,-4.339,-4.993
1537.0,-10.405,-5.816,6.024,0.173,-4.166,-4.835
1541.0,-10.405,-5.816,6.024,0.173,-4.166,-4.835
1545.0,-10.405,-5.816,6.024,0.173,-4.166,-4.835
1549.0,-10.638,-4.235,5.098,0.222,-3.907,-4.354
1554.0,-10.638,-4.235,5.098,0.222,-3.907,-4.354
1558.0,-11.153,-2.785,4.569,0.155,-3.515,-3.712
1562.0,-11.153,-2.785,4.569,0.155,-3.515,-3.712
1566.0,-11.83,-1.683,4.324,0.155,-3.515,-3.712
1570.0,-11.83,-1.683,4.324,0.019,-2.989,-2.953
1574.0,-11.83,-1.683,4.324,0.019,-2.989,-2.953
1578.0,-11.947,-0.843,4.256,-0.104,-2.39,-2.187
1582.0,-11.947,-0.843,4.256,-0.104,-2.39,-2.187
1586.0,-11.708,0.143,3.867,-0.155,-1.786,-1.514
1590.0,-11.708,0.143,3.867,-0.155,-1.786,-1.514
1594.0,-11.708,0.143,3.867,-0.155,-1.786,-1.514
1599.0,-11.305,1.006,3.61,-0.195,-1.204,-0.917
1603.0,-11.305,1.006,3.61,-0.195,-1.204,-0.917
1607.0,-11.281,1.869,3.114,-0.163,-0.664,-0.366
1611.0,-11.281,1.869,3.114,-0.163,-0.664,-0.366
1615.0,-11.281,2.491,2.388,-0.163,-0.664,-0.366
1619.0,-11.417,2.491,2.388,-0.125,-0.169,0.22
1623.0,-11.417,2.491,2.388,-0.125,-0.169,0.22
1627.0,-11.243,2.524,1.889,-0.134,0.325,0.848
1631.0,-11.243,2.524,1.889,-0.134,0.325,0.848
1635.0,-11.016,2.075,2.027,-0.134,0.325,0.848
1639.0,-11.016,2.075,2.027,-0.2,0.846,1.472
1643.0,-11.016,2.075,2.027,-0.2,0.846,1.472
1646.0,-11.073,1.497,2.565,-0.296,1.38,2.045
1650.0,-11.073,1.497,2.565,-0.296,1.38,2.045
1654.0,-11.073,1.497,3.169,-0.296,1.38,2.045
1658.0,-11.23,1.019,3.169,-0.383,1.894,2.572
1662.0,-11.23,1.019,3.169,-0.383,1.894,2.572
1666.0,-11.282,0.693,3.869,-0.431,2.359,3.082
1670.0,-11.282,0.693,3.869,-0.431,2.359,3.082
1674.0,-11.282,0.693,3.869,-0.431,2.359,3.082
1678.0,-11.185,0.311,4.335,-0.437,2.75,3.595
1682.0,-11.185,0.311,4.335,-0.437,2.75,3.595
1686.0,-11.053,-0.176,4.521,-0.414,3.077,4.1
1690.0,-11.053,-0.176,4.521,-0.414,3.077,4.1
1694.0,-11.053,-0.176,4.521,-0.414,3.077,4.1
1698.0,-10.723,-0.744,4.504,-0.384,3.375,4.584
1702.0,-10.723,-0.744,4.504,-0.384,3.375,4.584
1705.0,-10.58,-1.426,4.771,-0.384,3.651,4.95
1709.0,-10.58,-1.426,4.771,-0.384,3.651,4.95
1713.0,-10.58,-1.426,5.265,-0.384,3.651,4.95
1717.0,-10.718,-2.006,5.265,-0.432,3.883,5.013
1721.0,-10.718,-2.006,5.265,-0.432,3.883,5.013
1725.0,-10.938,-2.424,5.649,-0.527,4.063,5.013
1729.0,-10.938,-2.424,5.649,-0.527,4.063,5.013
1733.0,-11.295,-2.944,6.176,-0.527,4.063,5.013
1737.0,-11.295,-2.944,6.176,-0.652,4.207,5.013
1741.0,-11.295,-2.944,6.176,-0.652,4.207,5.013
1745.0,-11.826,-3.552,6.703,-0.784,4.312,5.013
1749.0,-11.826,-3.552,6.703,-0.784,4.312,5.013
1753.0,-12.232,-4.245,7.22,-0.784,4.312,5.013
1757.0,-12.232,-4.245,7.22,-0.882,4.392,5.013
1761.0,-12.232,-4.245,7.22,-0.882,4.392,5.013
1765.0,-12.605,-4.949,7.997,-0.924,4.461,5.013
1769.0,-12.605,-4.949,7.997,-0.924,4.461,5.013
1773.0,-13.131,-5.529,9.046,-0.924,4.5,5.013
1777.0,-13.131,-5.529,9.046,-0.895,4.5,5.013
1781.0,-13.131,-5.529,9.046,-0.895,4.5,5.013
1785.0,-14.061,-6.39,10.196,-0.801,4.48,5.013
1789.0,-14.061,-6.39,10.196,-0.801,4.48,5.013
1794.0,-15.089,-7.223,10.855,-0.66,4.383,5.013
1798.0,-15.089,-7.223,10.855,-0.66,4.383,5.013
1802.0,-15.089,-7.223,10.855,-0.66,4.383,5.013
1806.0,-15.879,-7.822,11.188,-0.493,4.218,5.013
1810.0,-15.879,-7.822,11.188,-0.493,4.218,5.013
1814.0,-16.103,-7.875,11.377,-0.319,4.019,5.013
1818.0,-16.103,-7.875,11.377,-0.319,4.019,5.013
1822.0,-16.103,-7.875,11.716,-0.319,4.019,5.013
1826.0,-16.12,-7.517,11.716,-0.155,3.823,5.013
1830.0,-16.12,-7.517,11.716,-0.155,3.823,5.013
1834.0,-16.767,-7.225,12.469,-0.013,3.628,5.013
1838.0,-16.767,-7.225,12.469,-0.013,3.628,5.013
1842.0,-17.915,-7.263,13.271,-0.013,3.389,5.013
1847.0,-17.915,-7.263,13.271,0.086,3.389,5.013
1851.0,-17.915,-7.263,13.271,0.086,3.389,5.013
1855.0,-18.458,-6.976,13.583,0.128,3.091,5.013
1859.0,-18.458,-6.976,13.583,0.128,3.091,5.013
1863.0,-18.257,-6.672,13.902,0.118,2.789,5.013
1867.0,-18.257,-6.672,13.902,0.118,2.789,5.013
1871.0,-18.257,-6.672,13.902,0.118,2.789,5.013
1875.0,-18.081,-6.468,14.107,0.084,2.542,5.013
1879.0,-18.081,-6.468,14.107,0.084,2.542,5.013
1882.0,-18.196,-6.148,14.141,0.052,2.372,5.013
1886.0,-18.196,-6.148,14.141,0.052,2.372,5.013
1890.0,-18.196,-6.148,14.141,0.052,2.372,5.013
1894.0,-18.309,-5.905,14.28,0.025,2.251,5.013
1898.0,-18.309,-5.905,14.28,0.025,2.251,5.013
1902.0,-18.452,-5.453,14.423,0.018,2.155,5.013
1906.0,-18.452,-5.453,14.423,0.018,2.155,5.013
1910.0,-18.452,-5.453,14.423,0.018,2.155,5.013
1914.0,-18.594,-4.878,14.353,0.054,2.08,5.013
1918.0,-18.594,-4.878,14.353,0.054,2.08,5.013
1922.0,-18.632,-4.578,14.21,0.132,1.996,5.013
1926.0,-18.632,-4.578,14.21,0.132,1.996,5.013
1930.0,-18.632,-4.578,14.21,0.132,1.996,5.013
1934.0,-18.309,-4.547,13.927,0.233,1.878,5.013
1938.0,-18.309,-4.547,13.927,0.233,1.878,5.013
1942.0,-17.63,-4.634,13.907,0.324,1.761,5.013
1946.0,-17.63,-4.634,13.907,0.324,1.761,5.013
1950.0,-17.63,-4.634,14.016,0.324,1.761,5.013
1954.0,-17.021,-4.979,14.016,0.423,1.67,5.013
1958.0,-17.021,-4.979,14.016,0.423,1.67,5.013
1962.0,-16.763,-5.573,13.841,0.51,1.582,5.013
1966.0,-16.763,-5.573,13.841,0.51,1.582,5.013
1970.0,-16.461,-5.699,14.165,0.51,1.582,5.013
1974.0,-16.461,-5.699,14.165,0.576,1.511,5.013
1978.0,-16.461,-5.699,14.165,0.576,1.511,5.013
1982.0,-15.926,-5.587,14.779,0.632,1.413,5.013
1986.0,-15.926,-5.587,14.779,0.632,1.413,5.013
1990.0,-15.153,-5.58,15.196,0.632,1.413,5.013
1994.0,-15.153,-5.58,15.196,0.7,1.233,5.013
1998.0,-15.153,-5.58,15.196,0.7,1.233,5.013
2002.0,-14.21,-5.673,14.882,0.819,0.949,5.013
2006.0,-14.21,-5.673,14.882,0.819,0.949,5.013
2010.0,-13.482,-6.429,14.059,0.819,0.593,5.013
2014.0,-13.482,-6.429,14.059,0.993,0.593,5.013
2018.0,-13.482,-6.429,14.059,0.993,0.593,5.013
2022.0,-12.959,-7.953,12.741,1.203,0.238,5.013
2026.0,-12.959,-7.953,12.741,1.203,0.238,5.013
2030.0,-12.101,-9.514,11.236,1.414,-0.035,5.013
2034.0,-12.101,-9.514,11.236,1.414,-0.035,5.013
2038.0,-12.101,-9.514,11.236,1.414,-0.035,5.013
2042.0,-10.314,-9.883,9.709,1.526,-0.172,5.013
2046.0,-10.314,-9.883,9.709,1.526,-0.172,5.013
2050.0,-7.81,-9.248,8.215,1.403,-0.162,5.013
2054.0,-7.81,-9.248,8.215,1.403,-0.162,5.013
2058.0,-7.81,-9.248,8.215,1.403,-0.162,5.013
2062.0,-5.396,-8.857,6.964,0.979,-0.032,4.896
2066.0,-5.396,-8.857,6.964,0.979,-0.032,4.896
2070.0,-3.73,-8.78,5.949,0.315,0.169,4.303
2074.0,-3.73,-8.78,5.949,0.315,0.169,4.303
2078.0,-3.73,-8.78,5.949,0.315,0.169,4.303
2081.0,-2.778,-8.731,4.86,-0.489,0.374,3.471
2085.0,-2.778,-8.731,4.86,-0.489,0.374,3.471
2089.0,-2.207,-9.026,4.121,-0.489,0.523,2.571
2093.0,-2.207,-9.026,4.121,-1.296,0.523,2.571
2097.0,-2.207,-9.026,4.121,-1.296,0.523,2.571
2101.0,-2.146,-9.972,3.949,-1.965,0.554,1.705
2105.0,-2.146,-9.972,3.949,-1.965,0.554,1.705
2109.0,-2.796,-11.969,3.611,-1.965,0.554,0.939
2113.0,-2.796,-11.969,3.611,-2.407,0.451,0.939
2117.0,-2.796,-11.969,3.611,-2.407,0.451,0.939
2121.0,-4.15,-14.147,2.739,-2.579,0.293,0.258
2125.0,-4.15,-14.147,2.739,-2.579,0.293,0.258
2129.0,-5.651,-15.481,2.067,-2.579,0.144,-0.386
2133.0,-5.651,-15.481,2.067,-2.487,0.144,-0.386
2137.0,-5.651,-15.481,2.067,-2.487,0.144,-0.386
2141.0,-6.728,-15.235,1.704,-2.215,-0.033,-1.039
2145.0,-6.728,-15.235,1.704,-2.215,-0.033,-1.039
2149.0,-7.435,-13.88,1.333,-1.836,-0.256,-1.691
2153.0,-7.435,-13.88,1.333,-1.836,-0.256,-1.691
2158.0,-7.435,-13.88,0.794,-1.836,-0.256,-1.691
2162.0,-8.323,-12.398,0.794,-1.46,-0.486,-2.326
2166.0,-8.323,-12.398,0.794,-1.46,-0.486,-2.326
2170.0,-9.715,-11.112,0.336,-1.155,-0.654,-2.956
2174.0,-9.715,-11.112,0.336,-1.155,-0.654,-2.956
2178.0,-11.416,-10.244,0.426,-0.904,-0.731,-3.56
2183.0,-11.416,-10.244,0.426,-0.904,-0.731,-3.56
2187.0,-11.416,-10.244,0.426,-0.904,-0.731,-3.56
2191.0,-13.202,-9.513,0.848,-0.648,-0.758,-4.099
2195.0,-13.202,-9.513,0.848,-0.648,-0.758,-4.099
2200.0,-14.622,-8.835,1.004,-0.376,-0.798,-4.551
2204.0,-14.622,-8.835,1.004,-0.376,-0.798,-4.551
2208.0,-15.492,-8.307,0.861,-0.109,-0.836,-4.897
2212.0,-15.492,-8.307,0.861,-0.109,-0.836,-4.897
2216.0,-15.492,-8.307,0.861,-0.109,-0.836,-4.897
2220.0,-15.955,-7.741,0.68,0.132,-0.846,-4.994
2225.0,-15.955,-7.741,0.68,0.132,-0.846,-4.994
2229.0,-16.211,-7.03,0.588,0.333,-0.837,-4.995
2233.0,-16.211,-7.03,0.588,0.333,-0.837,-4.995
2237.0,-16.211,-6.351,0.634,0.333,-0.837,-4.995
2241.0,-16.402,-6.351,0.634,0.483,-0.822,-4.995
2245.0,-16.402,-6.351,0.634,0.483,-0.822,-4.995
2249.0,-16.723,-5.882,0.842,0.58,-0.811,-4.995
2253.0,-16.723,-5.882,0.842,0.58,-0.811,-4.995
2257.0,-17.217,-5.618,1.223,0.58,-0.823,-4.995
2261.0,-17.217,-5.618,1.223,0.624,-0.823,-4.995
2265.0,-17.217,-5.618,1.223,0.624,-0.823,-4.995
2269.0,-17.769,-5.302,1.54,0.619,-0.859,-4.995
2273.0,-17.769,-5.302,1.54,0.619,-0.859,-4.995
2278.0,-18.186,-5.07,1.948,0.571,-0.903,-4.995
2282.0,-18.186,-5.07,1.948,0.571,-0.903,-4.995
2286.0,-18.186,-5.07,1.948,0.571,-0.903,-4.995
2290.0,-18.69,-5.0,2.582,0.474,-0.942,-4.995
2294.0,-18.69,-5.0,2.582,0.474,-0.942,-4.995
2298.0,-19.317,-5.094,3.225,0.334,-0.976,-4.995
2302.0,-19.317,-5.094,3.225,0.334,-0.976,-4.995
2306.0,-19.6,-5.294,3.701,0.334,-0.976,-4.995
2310.0,-19.6,-5.294,3.701,0.163,-1.002,-4.995
2314.0,-19.6,-5.294,3.701,0.163,-1.002,-4.995
2318.0,-19.6,-5.624,4.205,-0.032,-1.013,-4.995
2323.0,-19.6,-5.624,4.205,-0.032,-1.013,-4.995
2327.0,-19.6,-5.999,4.786,-0.234,-1.015,-4.995
2331.0,-19.6,-5.999,4.786,-0.234,-1.015,-4.995
2335.0,-19.6,-5.999,4.786,-0.234,-1.015,-4.995
2339.0,-19.6,-6.521,5.438,-0.417,-1.032,-4.995
2343.0,-19.6,-6.521,5.438,-0.417,-1.032,-4.995
2348.0,-19.6,-7.336,6.096,-0.544,-1.089,-4.995
2352.0,-19.6,-7.336,6.096,-0.544,-1.089,-4.995
2356.0,-19.6,-8.363,6.684,-0.544,-1.186,-4.995
2360.0,-19.6,-8.363,6.684,-0.578,-1.186,-4.995
2364.0,-19.6,-8.363,6.684,-0.578,-1.186,-4.995
2368.0,-19.6,-9.232,7.23,-0.508,-1.315,-4.995
2373.0,-19.6,-9.232,7.23,-0.508,-1.315,-4.995
2377.0,-19.6,-9.749,7.811,-0.358,-1.468,-4.995
2381.0,-19.6,-9.749,7.811,-0.358,-1.468,-4.995
2385.0,-19.6,-9.852,8.244,-0.358,-1.468,-4.995
2389.0,-19.6,-9.852,8.244,-0.176,-1.644,-4.995
2393.0,-19.6,-9.852,8.244,-0.176,-1.644,-4.995
2398.0,-19.6,-9.833,8.442,-0.015,-1.842,-4.995
2402.0,-19.6,-9.833,8.442,-0.015,-1.842,-4.995
2406.0,-19.6,-9.789,8.645,0.1,-2.073,-4.995
2410.0,-19.6,-9.789,8.645,0.1,-2.073,-4.995
2414.0,-19.6,-9.789,8.645,0.1,-2.073,-4.995
2418.0,-19.6,-9.672,8.764,0.18,-2.326,-4.995
2422.0,-19.6,-9.672,8.764,0.18,-2.326,-4.995
2426.0,-19.455,-9.367,8.837,0.234,-2.585,-4.995
2430.0,-19.455,-9.367,8.837,0.234,-2.585,-4.995
2434.0,-18.768,-8.97,9.027,0.234,-2.585,-4.995
2438.0,-18.768,-8.97,9.027,0.265,-2.839,-4.995
2443.0,-18.768,-8.97,9.027,0.265,-2.839,-4.995
2447.0,-18.187,-8.444,8.922,0.274,-3.083,-4.995
2451.0,-18.187,-8.444,8.922,0.274,-3.083,-4.995
2455.0,-17.45,-8.006,8.654,0.246,-3.298,-4.995
2459.0,-17.45,-8.006,8.654,0.246,-3.298,-4.995
2463.0,-17.45,-8.006,8.654,0.246,-3.298,-4.995
2467.0,-16.505,-7.789,8.489,0.18,-3.472,-4.995
2471.0,-16.505,-7.789,8.489,0.18,-3.472,-4.995
2475.0,-15.306,-7.264,8.11,0.103,-3.598,-4.995
2479.0,-15.306,-7.264,8.11,0.103,-3.598,-4.995
2483.0,-15.306,-7.264,7.746,0.103,-3.598,-4.995
2487.0,-13.752,-6.572,7.746,0.036,-3.67,-4.995
2492.0,-13.752,-6.572,7.746,0.036,-3.67,-4.995
2496.0,-12.148,-5.95,7.416,-0.007,-3.675,-4.995
2500.0,-12.148,-5.95,7.416,-0.007,-3.675,-4.995
2504.0,-10.607,-5.185,7.061,-0.025,-3.6,-4.995
2508.0,-10.607,-5.185,7.061,-0.025,-3.6,-4.995
2512.0,-10.607,-5.185,7.061,-0.025,-3.6,-4.995
2516.0,-9.029,-4.193,6.766,-0.027,-3.44,-4.995
2521.0,-9.029,-4.193,6.766,-0.027,-3.44,-4.995
2525.0,-7.714,-3.125,6.444,-0.015,-3.215,-4.995
2529.0,-7.714,-3.125,6.444,-0.015,-3.215,-4.995
2533.0,-7.714,-3.125,5.923,-0.015,-3.215,-4.995
2537.0,-6.543,-1.978,5.923,0.021,-2.958,-4.94
2541.0,-6.543,-1.978,5.923,0.021,-2.958,-4.94
2545.0,-5.316,-0.698,5.365,0.093,-2.683,-4.547
2549.0,-5.316,-0.698,5.365,0.093,-2.683,-4.547
2553.0,-4.109,0.48,4.845,0.093,-2.683,-4.547
2557.0,-4.109,0.48,4.845,0.2,-2.399,-4.041
2561.0,-4.109,0.48,4.845,0.2,-2.399,-4.041
2565.0,-3.122,1.407,4.457,0.329,-2.101,-3.564
2568.0,-3.122,1.407,4.457,0.329,-2.101,-3.564
2572.0,-3.122,2.055,4.14,0.329,-2.101,-3.564
2576.0,-2.574,2.055,4.14,0.468,-1.788,-3.09
2580.0,-2.574,2.055,4.14,0.468,-1.788,-3.09
2584.0,-2.432,2.489,3.916,0.606,-1.471,-2.596
2588.0,-2.432,2.489,3.916,0.606,-1.471,-2.596
2592.0,-2.432,2.489,3.707,0.606,-1.471,-2.596
2596.0,-2.368,2.695,3.707,0.743,-1.159,-2.073
2600.0,-2.368,2.695,3.707,0.743,-1.159,-2.073
2604.0,-2.016,2.655,3.562,0.889,-0.852,-1.539
2607.0,-2.016,2.655,3.562,0.889,-0.852,-1.539
2611.0,-2.016,2.655,3.562,0.889,-0.852,-1.539
2615.0,-1.625,2.419,3.562,1.053,-0.547,-1.04
2619.0,-1.625,2.419,3.562,1.053,-0.547,-1.04
2623.0,-1.491,2.129,3.455,1.239,-0.263,-0.608
2627.0,-1.491,2.129,3.455,1.239,-0.263,-0.608
2631.0,-1.491,2.129,3.455,1.239,-0.263,-0.608
2635.0,-1.566,1.987,3.05,1.422,-0.006,-0.237
2639.0,-1.566,1.987,3.05,1.422,-0.006,-0.237
2643.0,-1.698,2.057,2.405,1.563,0.251,0.108
2646.0,-1.698,2.057,2.405,1.563,0.251,0.108
2650.0,-1.698,2.057,2.405,1.563,0.251,0.108
2654.0,-1.816,1.985,1.823,1.613,0.545,0.467
2658.0,-1.816,1.985,1.823,1.613,0.545,0.467
2661.0,-2.133,1.684,1.453,1.613,0.545,0.467
2665.0,-2.133,1.684,1.453,1.538,0.88,0.839
2669.0,-2.133,1.684,1.453,1.538,0.88,0.839
2673.0,-3.063,1.068,1.407,1.336,1.24,1.217
2676.0,-3.063,1.068,1.407,1.336,1.24,1.217
2680.0,-3.063,1.068,1.407,1.336,1.24,1.217
2684.0,-4.577,0.272,1.438,1.029,1.597,1.595
2687.0,-4.577,0.272,1.438,1.029,1.597,1.595
2691.0,-6.415,-0.618,1.592,1.029,1.597,1.98
2695.0,-6.415,-0.618,1.592,0.655,1.937,1.98
2699.0,-6.415,-0.618,1.592,0.655,1.937,1.98
2703.0,-8.353,-1.652,1.774,0.259,2.238,2.38
2706.0,-8.353,-1.652,1.774,0.259,2.238,2.38
2710.0,-8.353,-1.652,1.687,0.259,2.238,2.38
2714.0,-10.015,-2.53,1.687,-0.117,2.488,2.799
2718.0,-10.015,-2.53,1.687,-0.117,2.488,2.799
2722.0,-10.962,-3.205,1.438,-0.442,2.703,3.25
2726.0,-10.962,-3.205,1.438,-0.442,2.703,3.25
2730.0,-10.962,-3.205,1.272,-0.442,2.703,3.25
2734.0,-11.277,-3.619,1.272,-0.701,2.89,3.71
2738.0,-11.277,-3.619,1.272,-0.701,2.89,3.71
2742.0,-11.392,-3.818,1.301,-0.89,3.045,4.145
2746.0,-11.392,-3.818,1.301,-0.89,3.045,4.145
2750.0,-11.392,-3.951,1.51,-0.89,3.045,4.145
2754.0,-11.633,-3.951,1.51,-1.024,3.168,4.533
2758.0,-11.633,-3.951,1.51,-1.024,3.168,4.533
2762.0,-12.285,-4.495,2.034,-1.119,3.251,4.862
2766.0,-12.285,-4.495,2.034,-1.119,3.251,4.862
2770.0,-13.315,-5.106,2.483,-1.119,3.251,4.862
2774.0,-13.315,-5.106,2.483,-1.184,3.285,5.007
2778.0,-13.315,-5.106,2.483,-1.184,3.285,5.007
2782.0,-14.108,-5.521,2.843,-1.213,3.29,5.013
2786.0,-14.108,-5.521,2.843,-1.213,3.29,5.013
2790.0,-14.641,-5.731,3.246,-1.213,3.29,5.013
2794.0,-14.641,-5.731,3.246,-1.209,3.285,5.013
2798.0,-14.641,-5.731,3.246,-1.209,3.285,5.013
2802.0,-14.937,-5.808,3.464,-1.174,3.277,5.013
2806.0,-14.937,-5.808,3.464,-1.174,3.277,5.013
2810.0,-14.955,-5.785,3.543,-1.115,3.287,5.013
2814.0,-14.955,-5.785,3.543,-1.115,3.287,5.013
2818.0,-14.955,-5.785,3.543,-1.115,3.287,5.013
2822.0,-14.989,-5.743,3.589,-1.047,3.324,5.013
2826.0,-14.989,-5.743,3.589,-1.047,3.324,5.013
2830.0,-15.398,-5.845,3.649,-0.983,3.386,5.013
2834.0,-15.398,-5.845,3.649,-0.983,3.386,5.013
2838.0,-15.398,-5.845,3.649,-0.983,3.386,5.013
2842.0,-16.138,-5.835,3.718,-0.929,3.47,5.013
2846.0,-16.138,-5.835,3.718,-0.929,3.47,5.013
2850.0,-17.05,-5.688,3.817,-0.88,3.563,5.013
2854.0,-17.05,-5.688,3.817,-0.88,3.563,5.013
2858.0,-17.05,-5.688,3.817,-0.88,3.563,5.013
2862.0,-18.141,-5.703,4.089,-0.834,3.639,5.013
2866.0,-18.141,-5.703,4.089,-0.834,3.639,5.013
2870.0,-19.198,-5.705,4.337,-0.777,3.674,5.013
2874.0,-19.198,-5.705,4.337,-0.777,3.674,5.013
2878.0,-19.198,-5.705,4.337,-0.777,3.674,5.013
2882.0,-19.6,-5.561,4.578,-0.713,3.678,5.013
2886.0,-19.6,-5.561,4.578,-0.713,3.678,5.013
2890.0,-19.6,-5.329,4.687,-0.655,3.645,5.013
2894.0,-19.6,-5.329,4.687,-0.655,3.645,5.013
2898.0,-19.6,-5.329,4.622,-0.655,3.645,5.013
2902.0,-19.6,-4.941,4.622,-0.616,3.571,5.013
2906.0,-19.6,-4.941,4.622,-0.616,3.571,5.013
2910.0,-19.6,-4.473,4.514,-0.598,3.475,5.013
2914.0,-19.6,-4.473,4.514,-0.598,3.475,5.013
2918.0,-19.6,-4.14,4.537,-0.598,3.475,5.013
2922.0,-19.6,-4.14,4.537,-0.604,3.359,5.013
2926.0,-19.6,-4.14,4.537,-0.604,3.359,5.013
2930.0,-19.6,-3.851,4.508,-0.634,3.207,5.013
2934.0,-19.6,-3.851,4.508,-0.634,3.207,5.013
2938.0,-19.6,-3.827,4.619,-0.634,3.207,5.013
2942.0,-19.6,-3.827,4.619,-0.679,3.026,5.013
2946.0,-19.6,-3.827,4.619,-0.679,3.026,5.013
2950.0,-19.6,-3.724,4.556,-0.741,2.826,5.013
2954.0,-19.6,-3.724,4.556,-0.741,2.826,5.013
2958.0,-19.6,-2.828,4.104,-0.741,2.826,5.013
2962.0,-19.6,-2.828,4.104,-0.806,2.636,5.013
2966.0,-19.6,-2.828,4.104,-0.806,2.636,5.013
2970.0,-19.6,-2.296,3.94,-0.879,2.465,5.013
2974.0,-19.6,-2.296,3.94,-0.879,2.465,5.013
2978.0,-19.583,-2.282,3.804,-0.879,2.284,5.013
2982.0,-19.583,-2.282,3.804,-0.938,2.284,5.013
2986.0,-19.583,-2.282,3.804,-0.938,2.284,5.013
2990.0,-19.103,-2.052,3.587,-0.969,2.087,5.013
2994.0,-19.103,-2.052,3.587,-0.969,2.087,5.013
2998.0,-18.332,-1.893,3.423,-0.978,1.891,5.013
