deltaTime,Acc_X,Acc_Y,Acc_Z,Gyro_X,Gyro_Y,Gyro_Z
0.0,-8.986,-5.513,3.06,-1.99,-0.332,0.841
3.0,-8.383,-5.513,3.06,-1.807,-0.341,0.851
6.0,-8.383,-5.513,3.06,-1.807,-0.341,0.851
9.0,-8.383,-5.513,3.06,-1.807,-0.341,0.851
12.0,-7.949,-5.524,3.203,-1.546,-0.369,0.833
15.0,-7.949,-5.524,3.203,-1.546,-0.369,0.833
18.0,-7.949,-5.524,3.203,-1.546,-0.369,0.833
21.0,-7.63,-5.082,2.978,-1.286,-0.405,0.793
24.0,-7.63,-5.082,2.978,-1.286,-0.405,0.793
27.0,-7.63,-5.082,2.978,-1.286,-0.405,0.793
30.0,-7.612,-4.251,2.642,-1.286,-0.405,0.793
33.0,-7.612,-4.251,2.642,-1.072,-0.44,0.765
37.0,-7.612,-4.251,2.642,-1.072,-0.44,0.765
41.0,-7.308,-3.062,2.083,-0.959,-0.477,0.749
45.0,-7.308,-3.062,2.083,-0.959,-0.477,0.749
49.0,-7.308,-3.062,2.083,-0.959,-0.477,0.749
52.0,-6.622,-2.023,1.603,-0.993,-0.494,0.747
56.0,-6.622,-2.023,1.603,-0.993,-0.494,0.747
60.0,-5.847,-1.629,1.273,-0.993,-0.469,0.782
64.0,-5.847,-1.629,1.273,-1.132,-0.469,0.782
68.0,-5.847,-1.629,1.273,-1.132,-0.469,0.782
72.0,-5.127,-1.819,1.25,-1.272,-0.44,0.839
75.0,-5.127,-1.819,1.25,-1.272,-0.44,0.839
79.0,-5.127,-1.996,1.542,-1.272,-0.44,0.839
83.0,-5.091,-1.996,1.542,-1.36,-0.424,0.886
87.0,-5.091,-1.996,1.542,-1.36,-0.424,0.886
91.0,-5.197,-2.243,1.828,-1.43,-0.435,0.905
94.0,-5.197,-2.243,1.828,-1.43,-0.435,0.905
98.0,-5.197,-2.243,1.828,-1.43,-0.435,0.905
102.0,-5.085,-2.527,1.999,-1.478,-0.479,0.921
106.0,-5.085,-2.527,1.999,-1.478,-0.479,0.921
110.0,-5.274,-2.706,2.105,-1.496,-0.54,0.934
114.0,-5.274,-2.706,2.105,-1.496,-0.54,0.934
118.0,-5.274,-2.706,2.105,-1.496,-0.54,0.934
122.0,-5.582,-2.882,2.122,-1.495,-0.609,0.942
126.0,-5.582,-2.882,2.122,-1.495,-0.609,0.942
129.0,-5.847,-3.09,2.103,-1.467,-0.673,0.949
133.0,-5.847,-3.09,2.103,-1.467,-0.673,0.949
137.0,-5.847,-3.09,2.103,-1.467,-0.673,0.949
141.0,-6.031,-2.885,2.073,-1.399,-0.732,0.953
145.0,-6.031,-2.885,2.073,-1.399,-0.732,0.953
149.0,-6.22,-2.426,2.054,-1.332,-0.794,0.939
153.0,-6.22,-2.426,2.054,-1.332,-0.794,0.939
157.0,-6.22,-2.426,2.054,-1.332,-0.794,0.939
161.0,-5.941,-1.988,2.05,-1.276,-0.87,0.92
165.0,-5.941,-1.988,2.05,-1.276,-0.87,0.92
169.0,-5.378,-1.563,2.026,-1.276,-0.94,0.908
172.0,-5.378,-1.563,2.026,-1.207,-0.94,0.908
176.0,-5.378,-1.563,2.026,-1.207,-0.94,0.908
180.0,-5.122,-1.135,1.981,-1.129,-0.991,0.893
184.0,-5.122,-1.135,1.981,-1.129,-0.991,0.893
188.0,-5.464,-1.071,1.967,-1.129,-0.991,0.893
192.0,-5.464,-1.071,1.967,-1.054,-1.012,0.869
196.0,-5.464,-1.071,1.967,-1.054,-1.012,0.869
200.0,-6.006,-0.879,2.0,-0.963,-1.003,0.852
204.0,-6.006,-0.879,2.0,-0.963,-1.003,0.852
208.0,-6.69,-0.72,2.165,-0.963,-1.003,0.852
212.0,-6.69,-0.72,2.165,-0.885,-0.976,0.855
215.0,-6.69,-0.72,2.165,-0.885,-0.976,0.855
219.0,-7.598,-1.264,2.785,-0.833,-0.959,0.839
223.0,-7.598,-1.264,2.785,-0.833,-0.959,0.839
227.0,-7.598,-1.264,3.703,-0.833,-0.959,0.839
231.0,-8.353,-1.432,3.703,-0.744,-0.958,0.767
235.0,-8.353,-1.432,3.703,-0.744,-0.958,0.767
239.0,-8.614,-0.423,4.619,-0.687,-0.964,0.649
243.0,-8.614,-0.423,4.619,-0.687,-0.964,0.649
247.0,-8.614,-0.423,4.619,-0.687,-0.964,0.649
251.0,-8.424,0.814,5.528,-0.81,-0.959,0.492
254.0,-8.424,0.814,5.528,-0.81,-0.959,0.492
258.0,-8.549,1.549,6.234,-1.112,-0.895,0.356
262.0,-8.549,1.549,6.234,-1.112,-0.895,0.356
266.0,-8.549,1.549,6.234,-1.112,-0.895,0.356
270.0,-9.675,0.852,6.698,-1.477,-0.824,0.295
273.0,-9.675,0.852,6.698,-1.477,-0.824,0.295
277.0,-11.072,0.115,6.907,-1.664,-0.79,0.35
281.0,-11.072,0.115,6.907,-1.664,-0.79,0.35
285.0,-11.072,0.115,6.907,-1.664,-0.79,0.35
289.0,-12.065,0.046,7.132,-1.712,-0.813,0.401
293.0,-12.065,0.046,7.132,-1.712,-0.813,0.401
297.0,-12.43,-0.164,7.519,-1.712,-0.813,0.443
301.0,-12.43,-0.164,7.519,-1.737,-0.895,0.443
305.0,-12.43,-0.164,7.519,-1.737,-0.895,0.443
309.0,-12.434,-0.648,7.985,-1.749,-1.021,0.535
313.0,-12.434,-0.648,7.985,-1.749,-1.021,0.535
317.0,-12.416,-1.595,8.483,-1.727,-1.132,0.688
321.0,-12.416,-1.595,8.483,-1.727,-1.132,0.688
325.0,-12.416,-1.595,8.483,-1.727,-1.132,0.688
329.0,-12.692,-2.773,8.914,-1.647,-1.187,0.873
333.0,-12.692,-2.773,8.914,-1.647,-1.187,0.873
337.0,-13.177,-3.724,9.223,-1.509,-1.195,1.074
341.0,-13.177,-3.724,9.223,-1.509,-1.195,1.074
345.0,-13.177,-3.724,9.223,-1.509,-1.195,1.074
349.0,-13.61,-4.419,9.469,-1.344,-1.175,1.291
353.0,-13.61,-4.419,9.469,-1.344,-1.175,1.291
357.0,-13.818,-4.743,9.625,-1.191,-1.134,1.52
361.0,-13.818,-4.743,9.625,-1.191,-1.134,1.52
365.0,-13.818,-4.743,9.625,-1.191,-1.134,1.52
369.0,-13.692,-4.925,9.735,-1.073,-1.074,1.752
373.0,-13.692,-4.925,9.735,-1.073,-1.074,1.752
377.0,-13.146,-5.201,9.69,-0.991,-0.997,1.963
381.0,-13.146,-5.201,9.69,-0.991,-0.997,1.963
385.0,-13.146,-5.201,9.69,-0.991,-0.997,1.963
389.0,-12.314,-5.408,9.51,-0.929,-0.902,2.116
393.0,-12.314,-5.408,9.51,-0.929,-0.902,2.116
397.0,-11.588,-5.568,9.331,-0.875,-0.8,2.206
401.0,-11.588,-5.568,9.331,-0.875,-0.8,2.206
405.0,-11.588,-5.568,9.116,-0.875,-0.8,2.206
409.0,-11.22,-5.743,9.116,-0.819,-0.705,2.25
413.0,-11.22,-5.743,9.116,-0.819,-0.705,2.25
417.0,-10.977,-6.014,8.849,-0.749,-0.636,2.281
421.0,-10.977,-6.014,8.849,-0.749,-0.636,2.281
425.0,-10.977,-6.483,8.428,-0.749,-0.636,2.281
429.0,-10.591,-6.483,8.428,-0.646,-0.588,2.315
433.0,-10.591,-6.483,8.428,-0.646,-0.588,2.315
437.0,-10.076,-7.183,7.778,-0.498,-0.537,2.365
441.0,-10.076,-7.183,7.778,-0.498,-0.537,2.365
445.0,-9.446,-8.167,7.006,-0.498,-0.537,2.365
448.0,-9.446,-8.167,7.006,-0.316,-0.424,2.419
452.0,-9.446,-8.167,7.006,-0.316,-0.424,2.419
456.0,-8.917,-9.226,6.324,-0.092,-0.277,2.437
460.0,-8.917,-9.226,6.324,-0.092,-0.277,2.437
464.0,-8.917,-9.963,5.965,-0.092,-0.277,2.437
468.0,-8.178,-9.963,5.965,0.154,-0.127,2.422
472.0,-8.178,-9.963,5.965,0.154,-0.127,2.422
476.0,-7.825,-10.673,6.185,0.349,0.078,2.358
479.0,-7.825,-10.673,6.185,0.349,0.078,2.358
483.0,-7.825,-10.673,6.185,0.349,0.078,2.358
487.0,-7.402,-11.503,6.888,0.519,0.238,2.2
491.0,-7.402,-11.503,6.888,0.519,0.238,2.2
495.0,-6.537,-12.192,7.144,0.718,0.276,1.92
499.0,-6.537,-12.192,7.144,0.718,0.276,1.92
502.0,-6.537,-12.192,7.144,0.718,0.276,1.92
506.0,-5.274,-12.738,5.967,0.987,0.215,1.569
510.0,-5.274,-12.738,5.967,0.987,0.215,1.569
514.0,-4.336,-13.616,3.895,0.987,0.215,1.266
518.0,-4.336,-13.616,3.895,1.283,0.181,1.266
521.0,-4.336,-13.616,3.895,1.283,0.181,1.266
525.0,-3.284,-14.26,1.862,1.561,0.122,1.062
529.0,-3.284,-14.26,1.862,1.561,0.122,1.062
533.0,-3.284,-14.26,0.852,1.561,0.122,1.062
537.0,-2.741,-14.667,0.852,1.703,0.104,0.867
541.0,-2.741,-14.667,0.852,1.703,0.104,0.867
544.0,-2.761,-15.089,0.946,1.718,0.032,0.564
548.0,-2.761,-15.089,0.946,1.718,0.032,0.564
552.0,-2.761,-15.089,0.946,1.718,0.032,0.564
556.0,-3.54,-15.617,1.252,1.649,-0.136,0.142
560.0,-3.54,-15.617,1.252,1.649,-0.136,0.142
564.0,-5.059,-16.078,1.186,1.54,-0.358,-0.343
568.0,-5.059,-16.078,1.186,1.54,-0.358,-0.343
572.0,-5.059,-16.078,1.186,1.54,-0.358,-0.343
576.0,-6.788,-16.42,0.956,1.418,-0.596,-0.839
580.0,-6.788,-16.42,0.956,1.418,-0.596,-0.839
584.0,-7.881,-16.264,0.597,1.295,-0.827,-1.33
588.0,-7.881,-16.264,0.597,1.295,-0.827,-1.33
592.0,-7.881,-16.264,0.597,1.295,-0.827,-1.33
596.0,-7.659,-15.75,0.171,1.16,-1.003,-1.819
600.0,-7.659,-15.75,0.171,1.16,-1.003,-1.819
604.0,-6.714,-15.095,0.019,0.997,-1.095,-2.303
608.0,-6.714,-15.095,0.019,0.997,-1.095,-2.303
612.0,-6.714,-15.095,0.019,0.997,-1.095,-2.303
616.0,-6.215,-14.537,-0.137,0.811,-1.118,-2.763
620.0,-6.215,-14.537,-0.137,0.811,-1.118,-2.763
624.0,-6.467,-14.343,-0.307,0.635,-1.091,-3.173
628.0,-6.467,-14.343,-0.307,0.635,-1.091,-3.173
632.0,-6.467,-14.461,-0.321,0.635,-1.091,-3.173
636.0,-7.056,-14.461,-0.321,0.514,-1.029,-3.506
640.0,-7.056,-14.461,-0.321,0.514,-1.029,-3.506
644.0,-7.564,-14.74,-0.218,0.464,-0.954,-3.766
648.0,-7.564,-14.74,-0.218,0.464,-0.954,-3.766
652.0,-7.954,-15.041,-0.163,0.464,-0.871,-3.978
656.0,-7.954,-15.041,-0.163,0.485,-0.871,-3.978
660.0,-7.954,-15.041,-0.163,0.485,-0.871,-3.978
665.0,-8.286,-15.327,-0.11,0.582,-0.788,-4.17
669.0,-8.286,-15.327,-0.11,0.582,-0.788,-4.17
673.0,-8.53,-15.45,-0.099,0.747,-0.713,-4.365
677.0,-8.53,-15.45,-0.099,0.747,-0.713,-4.365
681.0,-8.53,-15.45,-0.099,0.747,-0.713,-4.365
685.0,-8.736,-15.391,0.072,0.947,-0.64,-4.57
689.0,-8.736,-15.391,0.072,0.947,-0.64,-4.57
693.0,-9.02,-15.121,0.398,1.135,-0.577,-4.785
697.0,-9.02,-15.121,0.398,1.135,-0.577,-4.785
701.0,-9.02,-15.121,0.765,1.135,-0.577,-4.785
705.0,-9.312,-14.73,0.765,1.275,-0.541,-4.962
709.0,-9.312,-14.73,0.765,1.275,-0.541,-4.962
713.0,-9.535,-14.493,1.162,1.356,-0.544,-4.995
717.0,-9.535,-14.493,1.162,1.356,-0.544,-4.995
721.0,-9.825,-14.539,1.588,1.356,-0.544,-4.995
725.0,-9.825,-14.539,1.588,1.39,-0.578,-4.995
729.0,-9.825,-14.539,1.588,1.39,-0.578,-4.995
733.0,-10.209,-14.749,1.951,1.405,-0.637,-4.995
737.0,-10.209,-14.749,1.951,1.405,-0.637,-4.995
741.0,-10.607,-14.914,2.265,1.405,-0.722,-4.995
745.0,-10.607,-14.914,2.265,1.419,-0.722,-4.995
749.0,-10.607,-14.914,2.265,1.419,-0.722,-4.995
753.0,-10.924,-14.966,2.699,1.41,-0.845,-4.995
757.0,-10.924,-14.966,2.699,1.41,-0.845,-4.995
761.0,-11.006,-14.845,3.126,1.351,-1.004,-4.995
765.0,-11.006,-14.845,3.126,1.351,-1.004,-4.995
770.0,-11.006,-14.845,3.126,1.351,-1.004,-4.995
774.0,-11.003,-14.746,3.591,1.227,-1.181,-4.995
778.0,-11.003,-14.746,3.591,1.227,-1.181,-4.995
782.0,-11.173,-14.922,4.083,1.045,-1.362,-4.995
786.0,-11.173,-14.922,4.083,1.045,-1.362,-4.995
790.0,-11.511,-15.407,4.516,1.045,-1.362,-4.995
794.0,-11.511,-15.407,4.516,0.832,-1.543,-4.995
798.0,-11.511,-15.407,4.516,0.832,-1.543,-4.995
802.0,-11.846,-16.283,5.029,0.633,-1.72,-4.995
806.0,-11.846,-16.283,5.029,0.633,-1.72,-4.995
810.0,-11.958,-17.306,5.576,0.494,-1.883,-4.995
814.0,-11.958,-17.306,5.576,0.494,-1.883,-4.995
819.0,-11.958,-17.306,5.576,0.494,-1.883,-4.995
823.0,-11.932,-18.008,6.04,0.417,-2.036,-4.995
827.0,-11.932,-18.008,6.04,0.417,-2.036,-4.995
831.0,-11.549,-18.527,6.475,0.387,-2.176,-4.995
835.0,-11.549,-18.527,6.475,0.387,-2.176,-4.995
839.0,-11.549,-18.527,6.97,0.387,-2.176,-4.995
843.0,-10.895,-19.11,6.97,0.391,-2.291,-4.995
847.0,-10.895,-19.11,6.97,0.391,-2.291,-4.995
851.0,-10.202,-19.503,7.333,0.434,-2.39,-4.995
855.0,-10.202,-19.503,7.333,0.434,-2.39,-4.995
859.0,-9.631,-19.461,7.51,0.434,-2.39,-4.995
863.0,-9.631,-19.461,7.51,0.523,-2.493,-4.995
867.0,-9.631,-19.461,7.51,0.523,-2.493,-4.995
871.0,-9.129,-18.933,7.539,0.664,-2.599,-4.995
875.0,-9.129,-18.933,7.539,0.664,-2.599,-4.995
879.0,-8.505,-17.719,7.375,0.664,-2.699,-4.995
883.0,-8.505,-17.719,7.375,0.856,-2.699,-4.995
887.0,-8.505,-17.719,7.375,0.856,-2.699,-4.995
891.0,-7.705,-16.091,7.077,1.07,-2.783,-4.995
895.0,-7.705,-16.091,7.077,1.07,-2.783,-4.995
899.0,-6.857,-14.3,6.58,1.261,-2.846,-4.995
903.0,-6.857,-14.3,6.58,1.261,-2.846,-4.995
907.0,-6.857,-14.3,6.58,1.261,-2.846,-4.995
911.0,-5.831,-12.547,6.092,1.381,-2.883,-4.995
915.0,-5.831,-12.547,6.092,1.381,-2.883,-4.995
919.0,-4.806,-10.685,5.537,1.405,-2.89,-4.995
923.0,-4.806,-10.685,5.537,1.405,-2.89,-4.995
927.0,-4.806,-10.685,5.537,1.405,-2.89,-4.995
931.0,-3.799,-8.734,5.074,1.335,-2.861,-4.995
935.0,-3.799,-8.734,5.074,1.335,-2.861,-4.995
939.0,-2.716,-6.775,4.568,1.196,-2.788,-4.993
943.0,-2.716,-6.775,4.568,1.196,-2.788,-4.993
947.0,-2.716,-6.775,4.568,1.196,-2.788,-4.993
951.0,-1.702,-5.016,4.037,1.024,-2.655,-4.836
955.0,-1.702,-5.016,4.037,1.024,-2.655,-4.836
959.0,-0.96,-3.496,3.548,0.853,-2.467,-4.42
962.0,-0.96,-3.496,3.548,0.853,-2.467,-4.42
966.0,-0.96,-3.496,3.548,0.853,-2.467,-4.42
970.0,-0.423,-2.225,3.018,0.721,-2.233,-4.005
974.0,-0.423,-2.225,3.018,0.721,-2.233,-4.005
978.0,-0.108,-1.351,2.563,0.611,-1.972,-3.609
982.0,-0.108,-1.351,2.563,0.611,-1.972,-3.609
986.0,-0.108,-1.351,2.563,0.611,-1.972,-3.609
990.0,-0.319,-0.892,2.331,0.541,-1.684,-3.234
994.0,-0.319,-0.892,2.331,0.541,-1.684,-3.234
998.0,-1.354,-0.594,2.115,0.541,-1.415,-2.872
1002.0,-1.354,-0.594,2.115,0.543,-1.415,-2.872
1006.0,-1.354,-0.594,2.115,0.543,-1.415,-2.872
1009.0,-3.02,-0.096,1.691,0.626,-1.183,-2.467
1013.0,-3.02,-0.096,1.691,0.626,-1.183,-2.467
1017.0,-4.741,0.419,1.225,0.626,-0.961,-1.962
1021.0,-4.741,0.419,1.225,0.754,-0.961,-1.962
1025.0,-4.741,0.419,1.225,0.754,-0.961,-1.962
1029.0,-6.147,0.876,0.854,0.913,-0.705,-1.374
1033.0,-6.147,0.876,0.854,0.913,-0.705,-1.374
1037.0,-6.895,1.403,0.564,0.913,-0.705,-0.754
1041.0,-6.895,1.403,0.564,1.061,-0.423,-0.754
1045.0,-6.895,1.403,0.564,1.061,-0.423,-0.754
1049.0,-7.019,1.923,0.427,1.148,-0.128,-0.137
1053.0,-7.019,1.923,0.427,1.148,-0.128,-0.137
1057.0,-7.05,2.447,0.57,1.148,-0.128,-0.137
1060.0,-7.05,2.447,0.57,1.149,0.178,0.443
1064.0,-7.05,2.447,0.57,1.149,0.178,0.443
1068.0,-7.374,3.063,0.872,1.062,0.47,0.975
1072.0,-7.374,3.063,0.872,1.062,0.47,0.975
1075.0,-7.374,3.063,0.872,1.062,0.47,0.975
1079.0,-7.7,3.655,1.138,0.895,0.735,1.482
1083.0,-7.7,3.655,1.138,0.895,0.735,1.482
1087.0,-7.574,3.897,1.306,0.895,1.013,1.998
1090.0,-7.574,3.897,1.306,0.661,1.013,1.998
1094.0,-7.574,3.897,1.306,0.661,1.013,1.998
1098.0,-7.098,3.683,1.493,0.383,1.346,2.526
1102.0,-7.098,3.683,1.493,0.383,1.346,2.526
1105.0,-7.098,3.683,1.493,0.383,1.346,2.526
1109.0,-6.82,3.17,1.959,0.091,1.757,3.033
1113.0,-6.82,3.17,1.959,0.091,1.757,3.033
1116.0,-7.057,2.628,2.654,-0.179,2.222,3.494
1120.0,-7.057,2.628,2.654,-0.179,2.222,3.494
1124.0,-7.057,2.628,2.654,-0.179,2.222,3.494
1128.0,-7.697,2.108,3.607,-0.406,2.688,3.915
1132.0,-7.697,2.108,3.607,-0.406,2.688,3.915
1136.0,-8.554,1.59,4.607,-0.406,2.688,3.915
1139.0,-8.554,1.59,4.607,-0.593,3.104,4.314
1143.0,-8.554,1.59,4.607,-0.593,3.104,4.314
1147.0,-9.345,1.176,5.461,-0.756,3.46,4.702
1151.0,-9.345,1.176,5.461,-0.756,3.46,4.702
1155.0,-9.345,1.176,5.461,-0.756,3.46,4.702
1158.0,-10.074,0.592,6.203,-0.913,3.752,4.981
1162.0,-10.074,0.592,6.203,-0.913,3.752,4.981
1166.0,-10.997,-0.242,6.73,-1.071,3.969,5.013
1170.0,-10.997,-0.242,6.73,-1.071,3.969,5.013
1174.0,-10.997,-0.242,6.73,-1.071,3.969,5.013
1178.0,-12.044,-1.024,6.87,-1.222,4.109,5.013
1182.0,-12.044,-1.024,6.87,-1.222,4.109,5.013
1186.0,-12.88,-1.764,6.909,-1.351,4.195,5.013
1190.0,-12.88,-1.764,6.909,-1.351,4.195,5.013
1194.0,-12.88,-1.764,7.076,-1.351,4.195,5.013
1198.0,-13.439,-2.383,7.076,-1.438,4.229,5.013
1202.0,-13.439,-2.383,7.076,-1.438,4.229,5.013
1206.0,-13.926,-3.05,7.507,-1.471,4.205,5.013
1210.0,-13.926,-3.05,7.507,-1.471,4.205,5.013
1214.0,-13.926,-3.905,8.106,-1.471,4.205,5.013
1218.0,-14.591,-3.905,8.106,-1.45,4.116,5.013
1222.0,-14.591,-3.905,8.106,-1.45,4.116,5.013
1226.0,-15.333,-4.711,8.543,-1.39,3.97,5.013
1230.0,-15.333,-4.711,8.543,-1.39,3.97,5.013
1234.0,-15.949,-5.438,8.593,-1.39,3.97,5.013
1238.0,-15.949,-5.438,8.593,-1.315,3.793,5.013
1242.0,-15.949,-5.438,8.593,-1.315,3.793,5.013
1246.0,-16.504,-6.058,8.397,-1.239,3.616,5.013
1250.0,-16.504,-6.058,8.397,-1.239,3.616,5.013
1254.0,-17.113,-6.785,8.642,-1.239,3.616,5.013
1258.0,-17.113,-6.785,8.642,-1.167,3.454,5.013
1262.0,-17.113,-6.785,8.642,-1.167,3.454,5.013
1266.0,-18.136,-7.688,9.457,-1.1,3.271,5.013
1270.0,-18.136,-7.688,9.457,-1.1,3.271,5.013
1274.0,-19.255,-8.55,10.337,-1.1,3.047,5.013
1278.0,-19.255,-8.55,10.337,-1.031,3.047,5.013
1282.0,-19.255,-8.55,10.337,-1.031,3.047,5.013
1286.0,-19.6,-8.974,10.719,-0.955,2.808,5.013
1290.0,-19.6,-8.974,10.719,-0.955,2.808,5.013
1294.0,-19.6,-9.112,10.7,-0.882,2.565,5.013
1299.0,-19.6,-9.112,10.7,-0.882,2.565,5.013
1303.0,-19.6,-9.112,10.7,-0.882,2.565,5.013
1307.0,-19.6,-9.098,10.44,-0.813,2.326,5.013
1311.0,-19.6,-9.098,10.44,-0.813,2.326,5.013
1315.0,-19.6,-8.652,10.368,-0.732,2.109,5.013
1319.0,-19.6,-8.652,10.368,-0.732,2.109,5.013
1323.0,-19.6,-8.201,10.513,-0.732,2.109,5.013
1327.0,-19.6,-8.201,10.513,-0.636,1.892,5.013
1331.0,-19.6,-8.201,10.513,-0.636,1.892,5.013
1335.0,-19.467,-8.665,10.808,-0.519,1.652,5.013
1339.0,-19.467,-8.665,10.808,-0.519,1.652,5.013
1343.0,-13.662,-5.965,7.482,-0.435,1.402,5.013
1347.0,-13.662,-5.965,7.482,-0.435,1.402,5.013
1351.0,-13.662,-5.965,7.482,-0.435,1.402,5.013
1355.0,-11.136,-3.428,7.09,-0.614,1.207,5.013
1359.0,-11.136,-3.428,7.09,-0.614,1.207,5.013
1363.0,-19.491,-8.146,11.55,-0.626,1.09,5.013
1367.0,-19.491,-8.146,11.55,-0.626,1.09,5.013
1372.0,-19.491,-8.146,11.55,-0.626,1.09,5.013
1376.0,-19.6,-8.206,12.059,-0.601,0.932,5.013
1380.0,-19.6,-8.206,12.059,-0.601,0.932,5.013
1384.0,-19.6,-8.381,11.976,-0.485,0.82,5.013
1388.0,-19.6,-8.381,11.976,-0.485,0.82,5.013
1392.0,-19.6,-8.819,12.223,-0.485,0.82,5.013
1396.0,-19.6,-8.819,12.223,-0.33,0.777,5.013
1400.0,-19.6,-8.819,12.223,-0.33,0.777,5.013
1404.0,-19.6,-8.588,12.209,-0.145,0.724,5.013
1408.0,-19.6,-8.588,12.209,-0.145,0.724,5.013
1412.0,-19.6,-8.02,11.899,-0.031,0.618,5.013
1416.0,-19.6,-8.02,11.899,-0.031,0.618,5.013
1421.0,-19.6,-8.02,11.899,-0.031,0.618,5.013
1425.0,-19.6,-8.317,11.772,0.055,0.545,5.013
1429.0,-19.6,-8.317,11.772,0.055,0.545,5.013
1433.0,-19.6,-8.568,11.627,0.259,0.519,5.013
1437.0,-19.6,-8.568,11.627,0.259,0.519,5.013
1441.0,-19.6,-8.568,11.627,0.259,0.519,5.013
1445.0,-19.6,-8.693,11.431,0.47,0.423,5.013
1449.0,-19.6,-8.693,11.431,0.47,0.423,5.013
1453.0,-19.582,-8.619,11.359,0.602,0.285,5.013
1457.0,-19.582,-8.619,11.359,0.602,0.285,5.013
1461.0,-19.582,-8.619,11.359,0.602,0.285,5.013
1465.0,-18.559,-8.174,11.141,0.624,0.169,5.013
1469.0,-18.559,-8.174,11.141,0.624,0.169,5.013
1473.0,-16.99,-7.757,10.833,0.514,0.087,5.013
1477.0,-16.99,-7.757,10.833,0.514,0.087,5.013
1480.0,-16.99,-7.757,10.424,0.514,0.087,5.013
1484.0,-15.272,-7.347,10.424,0.312,0.034,5.005
1488.0,-15.272,-7.347,10.424,0.312,0.034,5.005
1492.0,-13.752,-6.708,10.482,0.06,-0.021,4.81
1497.0,-13.752,-6.708,10.482,0.06,-0.021,4.81
1501.0,-12.55,-6.256,10.658,0.06,-0.021,4.81
1505.0,-12.55,-6.256,10.658,-0.216,-0.149,4.43
1509.0,-12.55,-6.256,10.658,-0.216,-0.149,4.43
1513.0,-11.889,-6.26,10.214,-0.5,-0.357,4.061
1517.0,-11.889,-6.26,10.214,-0.5,-0.357,4.061
1521.0,-11.332,-6.895,9.148,-0.772,-0.576,3.705
1525.0,-11.332,-6.895,9.148,-0.772,-0.576,3.705
1530.0,-11.332,-6.895,9.148,-0.772,-0.576,3.705
1534.0,-10.278,-7.742,8.063,-0.993,-0.764,3.337
1538.0,-10.278,-7.742,8.063,-0.993,-0.764,3.337
1542.0,-8.648,-8.332,7.435,-1.138,-0.932,2.932
1546.0,-8.648,-8.332,7.435,-1.138,-0.932,2.932
1550.0,-8.648,-8.437,7.022,-1.138,-0.932,2.932
1554.0,-6.72,-8.437,7.022,-1.203,-1.097,2.47
1558.0,-6.72,-8.437,7.022,-1.203,-1.097,2.47
1562.0,-4.695,-8.011,6.653,-1.193,-1.262,1.931
1566.0,-4.695,-8.011,6.653,-1.193,-1.262,1.931
1570.0,-2.859,-7.197,6.034,-1.193,-1.262,1.931
1574.0,-2.859,-7.197,6.034,-1.131,-1.422,1.335
1578.0,-2.859,-7.197,6.034,-1.131,-1.422,1.335
1582.0,-1.423,-6.356,5.221,-1.047,-1.545,0.741
1586.0,-1.423,-6.356,5.221,-1.047,-1.545,0.741
1590.0,-0.565,-5.684,4.393,-1.047,-1.545,0.214
1594.0,-0.565,-5.684,4.393,-0.965,-1.587,0.214
1598.0,-0.565,-5.684,4.393,-0.965,-1.587,0.214
1602.0,-0.174,-5.381,3.693,-0.899,-1.552,-0.203
1606.0,-0.174,-5.381,3.693,-0.899,-1.552,-0.203
1610.0,-0.16,-5.381,3.18,-0.834,-1.481,-0.542
1614.0,-0.16,-5.381,3.18,-0.834,-1.481,-0.542
1618.0,-0.16,-5.381,3.18,-0.834,-1.481,-0.542
1622.0,-0.348,-5.621,2.629,-0.744,-1.408,-0.858
1626.0,-0.348,-5.621,2.629,-0.744,-1.408,-0.858
1630.0,-0.726,-5.789,2.139,-0.664,-1.326,-1.182
1634.0,-0.726,-5.789,2.139,-0.664,-1.326,-1.182
1638.0,-0.726,-5.789,1.682,-0.664,-1.326,-1.182
1642.0,-1.41,-5.852,1.682,-0.581,-1.222,-1.516
1647.0,-1.41,-5.852,1.682,-0.581,-1.222,-1.516
1651.0,-2.332,-5.768,1.287,-0.493,-1.099,-1.827
1655.0,-2.332,-5.768,1.287,-0.493,-1.099,-1.827
1659.0,-3.353,-5.511,0.926,-0.493,-1.099,-2.093
1663.0,-3.353,-5.511,0.926,-0.41,-0.962,-2.093
1667.0,-3.353,-5.511,0.926,-0.41,-0.962,-2.093
1671.0,-4.263,-5.206,0.586,-0.343,-0.811,-2.297
1675.0,-4.263,-5.206,0.586,-0.343,-0.811,-2.297
1679.0,-4.933,-5.057,0.427,-0.299,-0.657,-2.447
1683.0,-4.933,-5.057,0.427,-0.299,-0.657,-2.447
1687.0,-4.933,-5.057,0.427,-0.299,-0.657,-2.447
1691.0,-5.381,-5.013,0.487,-0.282,-0.519,-2.577
1696.0,-5.381,-5.013,0.487,-0.282,-0.519,-2.577
1700.0,-5.812,-5.009,0.665,-0.288,-0.41,-2.706
1704.0,-5.812,-5.009,0.665,-0.288,-0.41,-2.706
1708.0,-5.812,-5.06,0.748,-0.288,-0.41,-2.706
1712.0,-6.178,-5.06,0.748,-0.305,-0.322,-2.828
1716.0,-6.178,-5.06,0.748,-0.305,-0.322,-2.828
1720.0,-6.366,-5.206,0.68,-0.324,-0.233,-2.931
1724.0,-6.366,-5.206,0.68,-0.324,-0.233,-2.931
1728.0,-6.42,-5.39,0.626,-0.34,-0.121,-3.003
1732.0,-6.42,-5.39,0.626,-0.34,-0.121,-3.003
1736.0,-6.42,-5.39,0.626,-0.34,-0.121,-3.003
1740.0,-6.479,-5.503,0.637,-0.353,0.021,-3.061
1744.0,-6.479,-5.503,0.637,-0.353,0.021,-3.061
1748.0,-6.642,-5.51,0.715,-0.365,0.178,-3.117
1752.0,-6.642,-5.51,0.715,-0.365,0.178,-3.117
1756.0,-6.642,-5.51,0.715,-0.365,0.178,-3.117
1760.0,-6.939,-5.509,0.861,-0.385,0.334,-3.176
1764.0,-6.939,-5.509,0.861,-0.385,0.334,-3.176
1768.0,-7.382,-5.533,0.976,-0.416,0.477,-3.239
1772.0,-7.382,-5.533,0.976,-0.416,0.477,-3.239
1776.0,-7.382,-5.533,0.976,-0.416,0.477,-3.239
1780.0,-7.939,-5.667,1.079,-0.453,0.605,-3.3
1784.0,-7.939,-5.667,1.079,-0.453,0.605,-3.3
1788.0,-8.547,-5.981,1.162,-0.488,0.716,-3.356
1792.0,-8.547,-5.981,1.162,-0.488,0.716,-3.356
1796.0,-8.547,-5.981,1.257,-0.488,0.716,-3.356
1800.0,-9.173,-6.439,1.257,-0.507,0.815,-3.416
1804.0,-9.173,-6.439,1.257,-0.507,0.815,-3.416
1808.0,-9.786,-7.051,1.402,-0.499,0.9,-3.492
1812.0,-9.786,-7.051,1.402,-0.499,0.9,-3.492
1816.0,-9.786,-7.656,1.522,-0.499,0.9,-3.492
1820.0,-10.39,-7.656,1.522,-0.465,0.965,-3.597
1824.0,-10.39,-7.656,1.522,-0.465,0.965,-3.597
1828.0,-10.963,-8.188,1.646,-0.417,1.018,-3.737
1832.0,-10.963,-8.188,1.646,-0.417,1.018,-3.737
1837.0,-11.446,-8.478,1.755,-0.417,1.065,-3.909
1841.0,-11.446,-8.478,1.755,-0.374,1.065,-3.909
1845.0,-11.446,-8.478,1.755,-0.374,1.065,-3.909
1849.0,-11.887,-8.791,2.043,-0.348,1.101,-4.103
1853.0,-11.887,-8.791,2.043,-0.348,1.101,-4.103
1857.0,-12.411,-9.253,2.508,-0.345,1.123,-4.319
1861.0,-12.411,-9.253,2.508,-0.345,1.123,-4.319
1865.0,-12.411,-9.253,2.508,-0.345,1.123,-4.319
1869.0,-13.04,-9.869,3.085,-0.359,1.137,-4.549
1873.0,-13.04,-9.869,3.085,-0.359,1.137,-4.549
1877.0,-13.549,-10.526,3.687,-0.378,1.134,-4.785
1882.0,-13.549,-10.526,3.687,-0.378,1.134,-4.785
1886.0,-13.857,-11.168,4.298,-0.378,1.134,-4.966
1890.0,-13.857,-11.168,4.298,-0.386,1.113,-4.966
1894.0,-13.857,-11.168,4.298,-0.386,1.113,-4.966
1898.0,-14.015,-11.621,4.858,-0.369,1.078,-4.995
1902.0,-14.015,-11.621,4.858,-0.369,1.078,-4.995
1907.0,-14.122,-11.949,5.466,-0.321,1.014,-4.995
1911.0,-14.122,-11.949,5.466,-0.321,1.014,-4.995
1915.0,-14.122,-11.949,6.252,-0.321,1.014,-4.995
1919.0,-14.173,-12.354,6.252,-0.228,0.898,-4.995
1923.0,-14.173,-12.354,6.252,-0.228,0.898,-4.995
1927.0,-14.157,-12.791,7.134,-0.088,0.719,-4.995
1932.0,-14.157,-12.791,7.134,-0.088,0.719,-4.995
1936.0,-14.225,-13.179,7.965,0.076,0.492,-4.995
1940.0,-14.225,-13.179,7.965,0.076,0.492,-4.995
1944.0,-14.225,-13.179,7.965,0.076,0.492,-4.995
1948.0,-14.711,-13.612,8.615,0.215,0.236,-4.995
1952.0,-14.711,-13.612,8.615,0.215,0.236,-4.995
1956.0,-15.635,-14.033,9.206,0.275,-0.039,-4.995
1960.0,-15.635,-14.033,9.206,0.275,-0.039,-4.995
1964.0,-16.494,-14.478,9.754,0.275,-0.039,-4.995
1969.0,-16.494,-14.478,9.754,0.221,-0.337,-4.995
1973.0,-16.494,-14.478,9.754,0.221,-0.337,-4.995
1977.0,-16.842,-14.872,10.353,0.074,-0.639,-4.995
1981.0,-16.842,-14.872,10.353,0.074,-0.639,-4.995
1985.0,-16.796,-15.632,11.089,-0.137,-0.94,-4.995
1990.0,-16.796,-15.632,11.089,-0.137,-0.94,-4.995
1994.0,-16.581,-16.262,11.738,-0.137,-0.94,-4.995
1998.0,-16.581,-16.262,11.738,-0.378,-1.23,-4.995
2003.0,-16.581,-16.262,11.738,-0.378,-1.23,-4.995
2007.0,-15.882,-17.041,12.266,-0.604,-1.502,-4.995
2011.0,-15.882,-17.041,12.266,-0.604,-1.502,-4.995
2016.0,-15.124,-17.949,12.603,-0.772,-1.716,-4.995
2020.0,-15.124,-17.949,12.603,-0.772,-1.716,-4.995
2025.0,-14.552,-18.6,12.644,-0.875,-1.874,-4.995
2029.0,-14.552,-18.6,12.644,-0.875,-1.874,-4.995
2033.0,-14.552,-18.6,12.555,-0.875,-1.874,-4.995
2038.0,-13.877,-18.798,12.555,-0.913,-1.99,-4.995
2042.0,-13.877,-18.798,12.555,-0.913,-1.99,-4.995
2046.0,-13.07,-18.963,12.34,-0.876,-2.071,-4.995
2051.0,-13.07,-18.963,12.34,-0.876,-2.071,-4.995
2055.0,-12.257,-18.928,11.91,-0.734,-2.125,-4.995
2059.0,-12.257,-18.928,11.91,-0.734,-2.125,-4.995
2064.0,-11.52,-18.736,11.402,-0.734,-2.171,-4.995
2068.0,-11.52,-18.736,11.402,-0.479,-2.171,-4.995
2072.0,-11.52,-18.736,11.402,-0.479,-2.171,-4.995
2077.0,-10.748,-17.955,10.482,-0.122,-2.208,-4.995
2081.0,-10.748,-17.955,10.482,-0.122,-2.208,-4.995
2085.0,-9.738,-16.35,9.495,0.291,-2.224,-4.995
2089.0,-9.738,-16.35,9.495,0.291,-2.224,-4.995
2093.0,-8.895,-14.323,8.517,0.682,-2.219,-4.995
2098.0,-8.895,-14.323,8.517,0.682,-2.219,-4.995
2102.0,-8.895,-14.323,8.517,0.682,-2.219,-4.995
2106.0,-8.35,-12.193,7.332,0.982,-2.206,-4.995
2110.0,-8.35,-12.193,7.332,0.982,-2.206,-4.995
2114.0,-7.777,-10.353,6.083,1.165,-2.198,-4.995
2118.0,-7.777,-10.353,6.083,1.165,-2.198,-4.995
2122.0,-7.777,-10.353,4.928,1.165,-2.198,-4.995
2126.0,-6.985,-8.76,4.928,1.242,-2.176,-4.995
2130.0,-6.985,-8.76,4.928,1.242,-2.176,-4.995
2134.0,-6.009,-7.292,4.059,1.24,-2.105,-4.995
2138.0,-6.009,-7.292,4.059,1.24,-2.105,-4.995
2142.0,-6.009,-5.961,3.55,1.24,-2.105,-4.995
2146.0,-5.098,-5.961,3.55,1.188,-1.982,-4.995
2150.0,-5.098,-5.961,3.55,1.188,-1.982,-4.995
2154.0,-4.36,-4.789,3.307,1.109,-1.829,-4.966
2158.0,-4.36,-4.789,3.307,1.109,-1.829,-4.966
2162.0,-4.037,-3.707,3.072,1.109,-1.829,-4.966
2166.0,-4.037,-3.707,3.072,1.025,-1.658,-4.69
2170.0,-4.037,-3.707,3.072,1.025,-1.658,-4.69
2174.0,-4.197,-2.644,2.977,0.959,-1.479,-4.297
2178.0,-4.197,-2.644,2.977,0.959,-1.479,-4.297
2182.0,-4.557,-1.822,2.968,0.959,-1.479,-3.878
2186.0,-4.557,-1.822,2.968,0.906,-1.301,-3.878
2190.0,-4.557,-1.822,2.968,0.906,-1.301,-3.878
2194.0,-4.759,-1.32,2.869,0.881,-1.122,-3.412
2198.0,-4.759,-1.32,2.869,0.881,-1.122,-3.412
2202.0,-4.74,-1.058,2.574,0.904,-0.94,-2.907
2206.0,-4.74,-1.058,2.574,0.904,-0.94,-2.907
2210.0,-4.74,-1.058,2.574,0.904,-0.94,-2.907
2214.0,-4.606,-0.782,2.196,0.957,-0.752,-2.383
2218.0,-4.606,-0.782,2.196,0.957,-0.752,-2.383
2222.0,-4.562,-0.375,1.799,1.034,-0.554,-1.851
2226.0,-4.562,-0.375,1.799,1.034,-0.554,-1.851
2230.0,-4.562,-0.375,1.799,1.034,-0.554,-1.851
2234.0,-4.665,0.032,1.5,1.116,-0.352,-1.313
2238.0,-4.665,0.032,1.5,1.116,-0.352,-1.313
2242.0,-4.866,0.44,1.252,1.186,-0.162,-0.785
2246.0,-4.866,0.44,1.252,1.186,-0.162,-0.785
2250.0,-4.866,0.44,1.252,1.186,-0.162,-0.785
2253.0,-5.006,0.91,0.999,1.226,0.019,-0.261
2257.0,-5.006,0.91,0.999,1.226,0.019,-0.261
2261.0,-4.938,1.33,0.863,1.226,0.207,0.274
2265.0,-4.938,1.33,0.863,1.209,0.207,0.274
2269.0,-4.938,1.33,0.863,1.209,0.207,0.274
2272.0,-4.816,1.566,0.822,1.122,0.416,0.822
2276.0,-4.816,1.566,0.822,1.122,0.416,0.822
2280.0,-4.816,1.566,0.822,1.122,0.416,0.822
2283.0,-4.698,1.618,0.851,0.97,0.653,1.362
2287.0,-4.698,1.618,0.851,0.97,0.653,1.362
2291.0,-4.668,1.661,1.056,0.77,0.919,1.867
2295.0,-4.668,1.661,1.056,0.77,0.919,1.867
2298.0,-4.668,1.661,1.056,0.77,0.919,1.867
2302.0,-4.644,1.682,1.399,0.544,1.205,2.328
2306.0,-4.644,1.682,1.399,0.544,1.205,2.328
2310.0,-4.644,1.682,1.812,0.544,1.205,2.328
2313.0,-4.68,1.633,1.812,0.316,1.499,2.746
2317.0,-4.68,1.633,1.812,0.316,1.499,2.746
2321.0,-4.848,1.535,2.255,0.105,1.778,3.136
2325.0,-4.848,1.535,2.255,0.105,1.778,3.136
2328.0,-4.848,1.535,2.255,0.105,1.778,3.136
2332.0,-5.22,1.297,2.713,-0.083,2.028,3.513
2336.0,-5.22,1.297,2.713,-0.083,2.028,3.513
2340.0,-5.664,0.927,3.1,-0.083,2.028,3.513
2343.0,-5.664,0.927,3.1,-0.252,2.243,3.886
2347.0,-5.664,0.927,3.1,-0.252,2.243,3.886
2351.0,-6.013,0.423,3.477,-0.397,2.433,4.256
2355.0,-6.013,0.423,3.477,-0.397,2.433,4.256
2359.0,-6.013,0.423,3.477,-0.397,2.433,4.256
2363.0,-6.368,-0.147,3.814,-0.515,2.612,4.621
2366.0,-6.368,-0.147,3.814,-0.515,2.612,4.621
2370.0,-6.818,-0.766,4.11,-0.604,2.777,4.933
2374.0,-6.818,-0.766,4.11,-0.604,2.777,4.933
2378.0,-6.818,-0.766,4.11,-0.604,2.777,4.933
2382.0,-7.363,-1.433,4.356,-0.662,2.92,5.013
2386.0,-7.363,-1.433,4.356,-0.662,2.92,5.013
2390.0,-7.997,-2.146,4.691,-0.693,3.029,5.013
2394.0,-7.997,-2.146,4.691,-0.693,3.029,5.013
2398.0,-7.997,-2.146,4.691,-0.693,3.029,5.013
2402.0,-8.719,-2.938,5.163,-0.702,3.103,5.013
2405.0,-8.719,-2.938,5.163,-0.702,3.103,5.013
2409.0,-9.53,-3.815,5.679,-0.703,3.144,5.013
2413.0,-9.53,-3.815,5.679,-0.703,3.144,5.013
2417.0,-9.53,-3.815,5.679,-0.703,3.144,5.013
2421.0,-10.274,-4.579,6.102,-0.697,3.151,5.013
2425.0,-10.274,-4.579,6.102,-0.697,3.151,5.013
2429.0,-10.866,-5.12,6.48,-0.679,3.134,5.013
2433.0,-10.866,-5.12,6.48,-0.679,3.134,5.013
2437.0,-10.866,-5.12,6.48,-0.679,3.134,5.013
2441.0,-11.308,-5.395,6.801,-0.642,3.106,5.013
2445.0,-11.308,-5.395,6.801,-0.642,3.106,5.013
2449.0,-11.759,-5.697,7.253,-0.585,3.077,5.013
2453.0,-11.759,-5.697,7.253,-0.585,3.077,5.013
2457.0,-11.759,-5.697,7.253,-0.585,3.077,5.013
2461.0,-12.52,-6.549,8.008,-0.521,3.042,5.013
2465.0,-12.52,-6.549,8.008,-0.521,3.042,5.013
2469.0,-13.391,-7.776,8.252,-0.459,2.972,5.013
2473.0,-13.391,-7.776,8.252,-0.459,2.972,5.013
2477.0,-13.391,-7.776,8.252,-0.459,2.972,5.013
2481.0,-14.515,-8.06,8.669,-0.396,2.946,5.013
2485.0,-14.515,-8.06,8.669,-0.396,2.946,5.013
2489.0,-14.596,-8.262,8.794,-0.347,2.916,5.013
2493.0,-14.596,-8.262,8.794,-0.347,2.916,5.013
2497.0,-14.596,-8.262,8.794,-0.347,2.916,5.013
2501.0,-14.734,-8.301,9.16,-0.359,2.874,5.013
2505.0,-14.734,-8.301,9.16,-0.359,2.874,5.013
2509.0,-15.284,-8.194,9.56,-0.298,2.839,5.013
2513.0,-15.284,-8.194,9.56,-0.298,2.839,5.013
2517.0,-15.284,-8.194,9.726,-0.298,2.839,5.013
2521.0,-16.038,-7.862,9.726,-0.162,2.806,5.013
2525.0,-16.038,-7.862,9.726,-0.162,2.806,5.013
2529.0,-17.033,-7.239,9.501,-0.012,2.771,5.013
2533.0,-17.033,-7.239,9.501,-0.012,2.771,5.013
2537.0,-18.0,-6.821,9.549,-0.012,2.771,5.013
2541.0,-18.0,-6.821,9.549,0.126,2.716,5.013
2545.0,-18.0,-6.821,9.549,0.126,2.716,5.013
2549.0,-18.878,-6.896,10.039,0.237,2.597,5.013
2553.0,-18.878,-6.896,10.039,0.237,2.597,5.013
2557.0,-19.484,-6.909,10.335,0.237,2.597,5.013
2561.0,-19.484,-6.909,10.335,0.332,2.422,5.013
2565.0,-19.484,-6.909,10.335,0.332,2.422,5.013
2569.0,-19.011,-7.334,10.901,0.411,2.24,5.013
2573.0,-19.011,-7.334,10.901,0.411,2.24,5.013
2577.0,-17.015,-6.788,9.735,0.411,2.24,5.013
2581.0,-17.015,-6.788,9.735,0.556,2.127,5.013
2584.0,-17.015,-6.788,9.735,0.556,2.127,5.013
2588.0,-18.472,-6.769,10.538,0.38,1.906,5.013
2592.0,-18.472,-6.769,10.538,0.38,1.906,5.013
2596.0,-14.642,-6.059,8.283,0.38,1.906,5.013
2600.0,-14.642,-6.059,8.283,0.194,1.734,5.013
2604.0,-14.642,-6.059,8.283,0.194,1.734,5.013
2608.0,-14.189,-5.327,8.729,0.146,1.659,4.992
2612.0,-14.189,-5.327,8.729,0.146,1.659,4.992
2616.0,-18.314,-7.015,9.153,0.146,1.659,4.992
2620.0,-18.314,-7.015,9.153,0.205,1.649,4.927
2624.0,-18.314,-7.015,9.153,0.205,1.649,4.927
2628.0,-18.748,-2.962,10.022,0.285,1.583,4.951
2632.0,-18.748,-2.962,10.022,0.285,1.583,4.951
2636.0,-19.112,-2.749,10.113,0.285,1.583,4.951
2640.0,-19.112,-2.749,10.113,0.141,1.477,4.993
2644.0,-19.112,-2.749,10.113,0.141,1.477,4.993
2648.0,-19.034,-2.868,9.687,-0.007,1.378,5.01
2652.0,-19.034,-2.868,9.687,-0.007,1.378,5.01
2656.0,-18.513,-3.349,9.529,-0.007,1.378,5.007
2660.0,-18.513,-3.349,9.529,-0.137,1.285,5.007
2664.0,-18.513,-3.349,9.529,-0.137,1.285,5.007
2668.0,-18.06,-3.485,9.302,-0.219,1.211,4.989
2672.0,-18.06,-3.485,9.302,-0.219,1.211,4.989
2676.0,-17.589,-3.415,9.086,-0.219,1.121,4.96
2680.0,-17.589,-3.415,9.086,-0.274,1.121,4.96
2684.0,-17.589,-3.415,9.086,-0.274,1.121,4.96
2688.0,-17.076,-3.328,8.91,-0.335,0.996,4.899
2692.0,-17.076,-3.328,8.91,-0.335,0.996,4.899
2696.0,-16.573,-3.314,8.708,-0.407,0.858,4.773
2699.0,-16.573,-3.314,8.708,-0.407,0.858,4.773
2703.0,-16.573,-3.314,8.708,-0.407,0.858,4.773
2707.0,-16.131,-3.232,8.52,-0.458,0.742,4.542
2711.0,-16.131,-3.232,8.52,-0.458,0.742,4.542
2715.0,-15.657,-3.023,8.252,-0.498,0.635,4.213
2719.0,-15.657,-3.023,8.252,-0.498,0.635,4.213
2723.0,-15.657,-3.023,8.252,-0.498,0.635,4.213
2727.0,-15.032,-2.789,8.155,-0.552,0.547,3.883
2731.0,-15.032,-2.789,8.155,-0.552,0.547,3.883
2735.0,-14.103,-2.643,8.462,-0.626,0.479,3.569
2739.0,-14.103,-2.643,8.462,-0.626,0.479,3.569
2743.0,-14.103,-2.643,8.462,-0.626,0.479,3.569
2747.0,-12.967,-2.538,8.809,-0.693,0.394,3.285
2751.0,-12.967,-2.538,8.809,-0.693,0.394,3.285
2755.0,-11.506,-2.587,8.853,-0.739,0.261,3.038
2759.0,-11.506,-2.587,8.853,-0.739,0.261,3.038
2763.0,-11.506,-2.587,8.853,-0.739,0.261,3.038
2767.0,-10.027,-2.779,8.629,-0.776,0.098,2.801
2771.0,-10.027,-2.779,8.629,-0.776,0.098,2.801
2775.0,-8.843,-2.964,8.133,-0.802,-0.046,2.549
2779.0,-8.843,-2.964,8.133,-0.802,-0.046,2.549
2783.0,-8.843,-2.964,7.444,-0.802,-0.046,2.549
2787.0,-8.092,-3.036,7.444,-0.832,-0.155,2.286
2791.0,-8.092,-3.036,7.444,-0.832,-0.155,2.286
2795.0,-7.507,-3.067,6.778,-0.877,-0.225,2.024
2799.0,-7.507,-3.067,6.778,-0.877,-0.225,2.024
2803.0,-7.507,-3.075,6.346,-0.877,-0.225,2.024
2807.0,-6.736,-3.075,6.346,-0.93,-0.278,1.761
2811.0,-6.736,-3.075,6.346,-0.93,-0.278,1.761
2815.0,-5.783,-3.056,6.132,-0.977,-0.333,1.489
2819.0,-5.783,-3.056,6.132,-0.977,-0.333,1.489
2823.0,-4.714,-2.937,6.1,-0.977,-0.333,1.489
2827.0,-4.714,-2.937,6.1,-1.006,-0.407,1.21
2831.0,-4.714,-2.937,6.1,-1.006,-0.407,1.21
2835.0,-3.732,-2.828,6.044,-1.004,-0.502,0.926
2839.0,-3.732,-2.828,6.044,-1.004,-0.502,0.926
2843.0,-3.111,-2.849,5.877,-1.004,-0.502,0.651
2847.0,-3.111,-2.849,5.877,-0.972,-0.599,0.651
2851.0,-3.111,-2.849,5.877,-0.972,-0.599,0.651
2855.0,-2.959,-3.151,5.45,-0.896,-0.685,0.394
2859.0,-2.959,-3.151,5.45,-0.896,-0.685,0.394
2863.0,-3.408,-3.5,4.747,-0.783,-0.746,0.159
2867.0,-3.408,-3.5,4.747,-0.783,-0.746,0.159
2871.0,-3.408,-3.5,4.747,-0.783,-0.746,0.159
2875.0,-4.265,-3.839,3.961,-0.643,-0.774,-0.051
2879.0,-4.265,-3.839,3.961,-0.643,-0.774,-0.051
2883.0,-5.182,-4.169,3.261,-0.496,-0.782,-0.248
2887.0,-5.182,-4.169,3.261,-0.496,-0.782,-0.248
2892.0,-5.182,-4.169,3.261,-0.496,-0.782,-0.248
2896.0,-5.904,-4.4,2.716,-0.356,-0.789,-0.442
2900.0,-5.904,-4.4,2.716,-0.356,-0.789,-0.442
2904.0,-6.424,-4.461,2.276,-0.236,-0.804,-0.652
2908.0,-6.424,-4.461,2.276,-0.236,-0.804,-0.652
2912.0,-6.424,-4.351,1.923,-0.236,-0.804,-0.652
2916.0,-6.766,-4.351,1.923,-0.148,-0.819,-0.881
2920.0,-6.766,-4.351,1.923,-0.148,-0.819,-0.881
2924.0,-6.994,-4.109,1.636,-0.097,-0.818,-1.132
2928.0,-6.994,-4.109,1.636,-0.097,-0.818,-1.132
2932.0,-7.163,-3.812,1.372,-0.087,-0.801,-1.395
2936.0,-7.163,-3.812,1.372,-0.087,-0.801,-1.395
2940.0,-7.163,-3.812,1.372,-0.087,-0.801,-1.395
2945.0,-7.266,-3.499,1.15,-0.106,-0.76,-1.66
2949.0,-7.266,-3.499,1.15,-0.106,-0.76,-1.66
2953.0,-7.334,-3.241,0.889,-0.155,-0.712,-1.921
2957.0,-7.334,-3.241,0.889,-0.155,-0.712,-1.921
2961.0,-7.334,-3.241,0.889,-0.155,-0.712,-1.921
2965.0,-7.418,-3.063,0.703,-0.226,-0.656,-2.175
2969.0,-7.418,-3.063,0.703,-0.226,-0.656,-2.175
2973.0,-7.549,-2.97,0.642,-0.306,-0.593,-2.421
2977.0,-7.549,-2.97,0.642,-0.306,-0.593,-2.421
2981.0,-7.716,-3.032,0.71,-0.306,-0.593,-2.665
2985.0,-7.716,-3.032,0.71,-0.387,-0.527,-2.665
2989.0,-7.716,-3.032,0.71,-0.387,-0.527,-2.665
2994.0,-7.968,-3.15,0.856,-0.463,-0.461,-2.908
2998.0,-7.968,-3.15,0.856,-0.463,-0.461,-2.908
