deltaTime,Acc_X,Acc_Y,Acc_Z,Gyro_X,Gyro_Y,Gyro_Z
0.0,-8.825,-1.25,2.851,0.16,-0.629,-0.219
3.0,-8.825,-1.25,2.851,0.16,-0.629,-0.219
6.0,-8.825,-1.25,2.851,0.16,-0.629,-0.219
9.0,-9.768,-1.161,2.885,-0.163,-0.622,-0.295
12.0,-9.768,-1.161,2.885,-0.163,-0.622,-0.295
15.0,-9.768,-1.161,2.885,-0.163,-0.622,-0.295
18.0,-10.702,-1.245,2.83,-0.163,-0.622,-0.344
21.0,-10.702,-1.245,2.83,-0.362,-0.594,-0.344
24.0,-10.702,-1.245,2.83,-0.362,-0.594,-0.344
27.0,-10.702,-1.245,2.83,-0.362,-0.594,-0.344
30.0,-10.992,-0.885,2.827,-0.387,-0.564,-0.353
34.0,-10.992,-0.885,2.827,-0.387,-0.564,-0.353
38.0,-10.756,-0.15,2.646,-0.305,-0.526,-0.341
42.0,-10.756,-0.15,2.646,-0.305,-0.526,-0.341
46.0,-10.756,-0.15,2.646,-0.305,-0.526,-0.341
50.0,-10.257,0.729,2.296,-0.189,-0.484,-0.313
54.0,-10.257,0.729,2.296,-0.189,-0.484,-0.313
58.0,-9.928,1.092,1.824,-0.071,-0.433,-0.26
61.0,-9.928,1.092,1.824,-0.071,-0.433,-0.26
65.0,-9.928,1.092,1.824,-0.071,-0.433,-0.26
69.0,-9.982,1.393,1.211,0.072,-0.367,-0.198
73.0,-9.982,1.393,1.211,0.072,-0.367,-0.198
77.0,-10.152,1.839,0.399,0.072,-0.367,-0.198
80.0,-10.152,1.839,0.399,0.218,-0.285,-0.151
84.0,-10.152,1.839,0.399,0.218,-0.285,-0.151
88.0,-10.319,2.364,-0.275,0.343,-0.174,-0.129
92.0,-10.319,2.364,-0.275,0.343,-0.174,-0.129
96.0,-10.319,2.364,-0.275,0.343,-0.174,-0.129
100.0,-10.493,2.778,-0.659,0.456,-0.079,-0.124
104.0,-10.493,2.778,-0.659,0.456,-0.079,-0.124
108.0,-10.832,3.057,-0.949,0.567,0.022,-0.085
112.0,-10.832,3.057,-0.949,0.567,0.022,-0.085
116.0,-10.832,3.057,-0.949,0.567,0.022,-0.085
119.0,-11.16,3.041,-0.901,0.693,0.128,0.016
123.0,-11.16,3.041,-0.901,0.693,0.128,0.016
127.0,-11.234,3.512,-0.911,0.81,0.217,0.134
131.0,-11.234,3.512,-0.911,0.81,0.217,0.134
135.0,-11.234,3.512,-0.911,0.81,0.217,0.134
139.0,-11.154,4.096,-1.056,0.825,0.287,0.221
142.0,-11.154,4.096,-1.056,0.825,0.287,0.221
146.0,-11.139,4.554,-1.082,0.825,0.364,0.331
150.0,-11.139,4.554,-1.082,0.713,0.364,0.331
154.0,-11.139,4.554,-1.082,0.713,0.364,0.331
158.0,-11.229,4.793,-1.074,0.505,0.456,0.47
161.0,-11.229,4.793,-1.074,0.505,0.456,0.47
165.0,-11.229,5.1,-1.207,0.505,0.456,0.47
169.0,-12.205,5.1,-1.207,0.226,0.501,0.552
173.0,-12.205,5.1,-1.207,0.226,0.501,0.552
177.0,-13.184,5.398,-1.671,-0.091,0.397,0.584
181.0,-13.184,5.398,-1.671,-0.091,0.397,0.584
185.0,-13.184,5.398,-1.671,-0.091,0.397,0.584
188.0,-13.923,5.883,-2.618,-0.406,0.176,0.664
192.0,-13.923,5.883,-2.618,-0.406,0.176,0.664
196.0,-14.486,5.913,-3.726,-0.698,-0.046,0.767
200.0,-14.486,5.913,-3.726,-0.698,-0.046,0.767
204.0,-14.486,5.913,-3.726,-0.698,-0.046,0.767
208.0,-14.516,5.895,-4.787,-0.911,-0.262,0.894
212.0,-14.516,5.895,-4.787,-0.911,-0.262,0.894
216.0,-14.588,5.727,-5.556,-1.107,-0.353,1.05
220.0,-14.588,5.727,-5.556,-1.107,-0.353,1.05
224.0,-14.588,5.727,-5.84,-1.107,-0.353,1.05
228.0,-14.58,5.633,-5.84,-1.27,-0.378,1.219
232.0,-14.58,5.633,-5.84,-1.27,-0.378,1.219
236.0,-14.705,5.619,-5.724,-1.402,-0.388,1.388
240.0,-14.705,5.619,-5.724,-1.402,-0.388,1.388
244.0,-14.705,5.663,-5.618,-1.402,-0.388,1.388
248.0,-14.929,5.663,-5.618,-1.526,-0.406,1.564
252.0,-14.929,5.663,-5.618,-1.526,-0.406,1.564
256.0,-14.917,5.682,-5.606,-1.66,-0.423,1.754
260.0,-14.917,5.682,-5.606,-1.66,-0.423,1.754
264.0,-14.615,5.723,-5.569,-1.66,-0.423,1.754
268.0,-14.615,5.723,-5.569,-1.802,-0.419,1.95
272.0,-14.615,5.723,-5.569,-1.802,-0.419,1.95
276.0,-14.296,5.771,-5.505,-1.94,-0.393,2.156
280.0,-14.296,5.771,-5.505,-1.94,-0.393,2.156
284.0,-13.829,5.693,-5.617,-1.94,-0.393,2.373
288.0,-13.829,5.693,-5.617,-2.072,-0.347,2.373
292.0,-13.829,5.693,-5.617,-2.072,-0.347,2.373
296.0,-13.027,5.557,-5.654,-2.198,-0.272,2.575
300.0,-13.027,5.557,-5.654,-2.198,-0.272,2.575
304.0,-12.409,5.525,-5.546,-2.198,-0.189,2.732
308.0,-12.409,5.525,-5.546,-2.317,-0.189,2.732
312.0,-12.409,5.525,-5.546,-2.317,-0.189,2.732
316.0,-12.32,5.699,-5.631,-2.436,-0.106,2.858
320.0,-12.32,5.699,-5.631,-2.436,-0.106,2.858
324.0,-12.488,5.773,-5.603,-2.575,-0.009,3.003
328.0,-12.488,5.773,-5.603,-2.575,-0.009,3.003
332.0,-12.488,5.773,-5.603,-2.575,-0.009,3.003
336.0,-12.914,5.503,-5.089,-2.732,0.088,3.174
340.0,-12.914,5.503,-5.089,-2.732,0.088,3.174
344.0,-12.89,5.221,-4.854,-2.866,0.179,3.366
348.0,-12.89,5.221,-4.854,-2.866,0.179,3.366
352.0,-12.89,5.221,-4.854,-2.866,0.179,3.366
356.0,-12.686,5.111,-4.463,-2.973,0.279,3.539
359.0,-12.686,5.111,-4.463,-2.973,0.279,3.539
363.0,-12.396,4.989,-4.238,-3.072,0.387,3.676
367.0,-12.396,4.989,-4.238,-3.072,0.387,3.676
371.0,-12.396,4.989,-4.238,-3.072,0.387,3.676
375.0,-12.473,4.93,-3.884,-3.156,0.524,3.798
379.0,-12.473,4.93,-3.884,-3.156,0.524,3.798
383.0,-12.754,4.901,-3.449,-3.156,0.524,3.908
387.0,-12.754,4.901,-3.449,-3.22,0.699,3.908
391.0,-12.754,4.901,-3.449,-3.22,0.699,3.908
395.0,-12.823,4.884,-2.583,-3.255,0.91,4.002
399.0,-12.823,4.884,-2.583,-3.255,0.91,4.002
402.0,-13.107,4.616,-1.405,-3.255,0.91,4.002
406.0,-13.107,4.616,-1.405,-3.239,1.124,4.086
410.0,-13.107,4.616,-1.405,-3.239,1.124,4.086
414.0,-13.968,4.348,-0.123,-3.168,1.322,4.144
418.0,-13.968,4.348,-0.123,-3.168,1.322,4.144
422.0,-13.968,4.19,1.201,-3.168,1.322,4.144
426.0,-15.152,4.19,1.201,-3.022,1.516,4.17
430.0,-15.152,4.19,1.201,-3.022,1.516,4.17
433.0,-16.388,3.882,2.554,-2.772,1.701,4.207
437.0,-16.388,3.882,2.554,-2.772,1.701,4.207
441.0,-16.388,3.882,2.554,-2.772,1.701,4.207
445.0,-17.327,3.598,3.471,-2.417,1.845,4.278
449.0,-17.327,3.598,3.471,-2.417,1.845,4.278
453.0,-17.341,3.193,4.304,-1.973,1.958,4.379
456.0,-17.341,3.193,4.304,-1.973,1.958,4.379
460.0,-17.341,3.193,4.304,-1.973,1.958,4.379
464.0,-16.569,2.809,5.279,-1.475,2.05,4.478
468.0,-16.569,2.809,5.279,-1.475,2.05,4.478
472.0,-16.271,2.493,6.616,-1.475,2.05,4.541
475.0,-16.271,2.493,6.616,-0.961,2.123,4.541
479.0,-16.271,2.493,6.616,-0.961,2.123,4.541
483.0,-16.88,2.21,7.953,-0.482,2.154,4.558
487.0,-16.88,2.21,7.953,-0.482,2.154,4.558
491.0,-16.88,2.21,9.107,-0.482,2.154,4.558
495.0,-17.548,2.224,9.107,-0.082,2.136,4.518
498.0,-17.548,2.224,9.107,-0.082,2.136,4.518
502.0,-17.774,2.523,10.023,0.215,2.066,4.414
506.0,-17.774,2.523,10.023,0.215,2.066,4.414
510.0,-17.774,2.523,10.023,0.215,2.066,4.414
514.0,-17.459,2.573,10.522,0.385,1.921,4.272
517.0,-17.459,2.573,10.522,0.385,1.921,4.272
521.0,-16.368,2.434,10.518,0.385,1.688,4.069
525.0,-16.368,2.434,10.518,0.424,1.688,4.069
529.0,-16.368,2.434,10.518,0.424,1.688,4.069
533.0,-14.797,2.169,10.43,0.344,1.393,3.761
537.0,-14.797,2.169,10.43,0.344,1.393,3.761
540.0,-14.797,1.787,10.225,0.344,1.393,3.761
544.0,-13.208,1.787,10.225,0.145,1.067,3.329
548.0,-13.208,1.787,10.225,0.145,1.067,3.329
552.0,-11.354,1.494,9.896,-0.174,0.759,2.785
556.0,-11.354,1.494,9.896,-0.174,0.759,2.785
559.0,-11.354,1.494,9.896,-0.174,0.759,2.785
563.0,-9.062,1.026,10.107,-0.569,0.504,2.164
567.0,-9.062,1.026,10.107,-0.569,0.504,2.164
571.0,-6.554,0.56,10.815,-0.97,0.247,1.52
575.0,-6.554,0.56,10.815,-0.97,0.247,1.52
579.0,-6.554,0.56,10.815,-0.97,0.247,1.52
582.0,-4.702,-0.136,11.146,-1.306,-0.093,0.916
586.0,-4.702,-0.136,11.146,-1.306,-0.093,0.916
590.0,-3.823,-1.229,10.596,-1.306,-0.488,0.412
594.0,-3.823,-1.229,10.596,-1.564,-0.488,0.412
598.0,-3.823,-1.229,10.596,-1.564,-0.488,0.412
602.0,-3.796,-3.114,9.472,-1.752,-0.799,0.057
606.0,-3.796,-3.114,9.472,-1.752,-0.799,0.057
610.0,-3.924,-5.103,8.316,-1.848,-0.981,-0.156
614.0,-3.924,-5.103,8.316,-1.848,-0.981,-0.156
618.0,-3.924,-5.103,8.316,-1.848,-0.981,-0.156
622.0,-3.675,-6.707,7.676,-1.912,-1.001,-0.287
626.0,-3.675,-6.707,7.676,-1.912,-1.001,-0.287
630.0,-2.446,-7.856,7.7,-1.96,-0.984,-0.426
634.0,-2.446,-7.856,7.7,-1.96,-0.984,-0.426
638.0,-2.446,-7.856,7.7,-1.96,-0.984,-0.426
642.0,-0.723,-8.873,7.84,-1.961,-1.054,-0.678
646.0,-0.723,-8.873,7.84,-1.961,-1.054,-0.678
650.0,1.187,-9.546,7.523,-1.846,-1.286,-1.096
654.0,1.187,-9.546,7.523,-1.846,-1.286,-1.096
658.0,1.187,-9.546,7.523,-1.846,-1.286,-1.096
662.0,2.454,-10.377,6.636,-1.619,-1.539,-1.637
666.0,2.454,-10.377,6.636,-1.619,-1.539,-1.637
670.0,2.419,-11.361,5.736,-1.279,-1.712,-2.202
674.0,2.419,-11.361,5.736,-1.279,-1.712,-2.202
678.0,2.419,-11.361,5.736,-1.279,-1.712,-2.202
682.0,0.532,-12.259,5.317,-0.839,-1.803,-2.733
686.0,0.532,-12.259,5.317,-0.839,-1.803,-2.733
690.0,-2.622,-12.857,5.219,-0.324,-1.912,-3.228
694.0,-2.622,-12.857,5.219,-0.324,-1.912,-3.228
698.0,-2.622,-12.857,5.219,-0.324,-1.912,-3.228
702.0,-6.002,-13.463,5.056,0.202,-2.115,-3.687
706.0,-6.002,-13.463,5.056,0.202,-2.115,-3.687
710.0,-8.941,-13.981,4.353,0.694,-2.392,-4.098
714.0,-8.941,-13.981,4.353,0.694,-2.392,-4.098
718.0,-8.941,-14.165,3.5,0.694,-2.392,-4.098
722.0,-11.201,-14.165,3.5,1.097,-2.669,-4.448
726.0,-11.201,-14.165,3.5,1.097,-2.669,-4.448
730.0,-12.658,-13.972,2.813,1.403,-2.947,-4.742
734.0,-12.658,-13.972,2.813,1.403,-2.947,-4.742
738.0,-13.583,-13.313,2.252,1.403,-3.191,-4.955
742.0,-13.583,-13.313,2.252,1.589,-3.191,-4.955
746.0,-13.583,-13.313,2.252,1.589,-3.191,-4.955
751.0,-14.332,-12.587,1.814,1.657,-3.373,-4.995
755.0,-14.332,-12.587,1.814,1.657,-3.373,-4.995
759.0,-14.942,-11.879,1.591,1.622,-3.506,-4.995
763.0,-14.942,-11.879,1.591,1.622,-3.506,-4.995
767.0,-14.942,-11.879,1.591,1.622,-3.506,-4.995
771.0,-15.294,-10.946,1.736,1.492,-3.603,-4.995
775.0,-15.294,-10.946,1.736,1.492,-3.603,-4.995
779.0,-15.459,-9.956,2.239,1.266,-3.683,-4.995
783.0,-15.459,-9.956,2.239,1.266,-3.683,-4.995
787.0,-15.459,-9.334,2.718,1.266,-3.683,-4.995
791.0,-15.303,-9.334,2.718,0.96,-3.758,-4.995
795.0,-15.303,-9.334,2.718,0.96,-3.758,-4.995
799.0,-15.063,-9.061,3.032,0.605,-3.817,-4.995
803.0,-15.063,-9.061,3.032,0.605,-3.817,-4.995
807.0,-14.782,-8.717,3.174,0.605,-3.817,-4.995
811.0,-14.782,-8.717,3.174,0.228,-3.832,-4.995
815.0,-14.782,-8.717,3.174,0.228,-3.832,-4.995
819.0,-14.419,-8.754,3.459,-0.146,-3.794,-4.995
823.0,-14.419,-8.754,3.459,-0.146,-3.794,-4.995
827.0,-14.396,-9.416,4.234,-0.146,-3.726,-4.995
831.0,-14.396,-9.416,4.234,-0.49,-3.726,-4.995
835.0,-14.396,-9.416,4.234,-0.49,-3.726,-4.995
839.0,-14.935,-10.114,5.04,-0.773,-3.657,-4.995
844.0,-14.935,-10.114,5.04,-0.773,-3.657,-4.995
848.0,-15.576,-10.664,5.941,-0.988,-3.606,-4.995
852.0,-15.576,-10.664,5.941,-0.988,-3.606,-4.995
856.0,-15.576,-10.664,7.109,-0.988,-3.606,-4.995
860.0,-16.207,-11.582,7.109,-1.13,-3.586,-4.995
864.0,-16.207,-11.582,7.109,-1.13,-3.586,-4.995
869.0,-17.149,-12.648,8.42,-1.197,-3.605,-4.995
873.0,-17.149,-12.648,8.42,-1.197,-3.605,-4.995
877.0,-18.188,-13.774,9.487,-1.198,-3.68,-4.995
881.0,-18.188,-13.774,9.487,-1.198,-3.68,-4.995
885.0,-18.188,-13.774,9.487,-1.198,-3.68,-4.995
889.0,-19.125,-15.285,10.705,-1.163,-3.805,-4.995
894.0,-19.125,-15.285,10.705,-1.163,-3.805,-4.995
898.0,-19.6,-17.112,12.287,-1.16,-3.967,-4.995
902.0,-19.6,-17.112,12.287,-1.16,-3.967,-4.995
906.0,-19.6,-18.709,13.994,-1.23,-4.179,-4.995
911.0,-19.6,-18.709,13.994,-1.23,-4.179,-4.995
915.0,-19.6,-18.709,13.994,-1.23,-4.179,-4.995
919.0,-19.6,-19.576,15.541,-1.394,-4.439,-4.995
923.0,-19.6,-19.576,15.541,-1.394,-4.439,-4.995
928.0,-19.6,-19.6,16.418,-1.584,-4.699,-4.995
932.0,-19.6,-19.6,16.418,-1.584,-4.699,-4.995
936.0,-18.916,-19.6,16.789,-1.739,-4.911,-4.995
940.0,-18.916,-19.6,16.789,-1.739,-4.911,-4.995
945.0,-18.916,-19.6,16.789,-1.739,-4.911,-4.995
949.0,-16.808,-19.6,16.687,-1.805,-4.988,-4.995
953.0,-16.808,-19.6,16.687,-1.805,-4.988,-4.995
957.0,-14.808,-19.282,16.183,-1.774,-4.991,-4.995
962.0,-14.808,-19.282,16.183,-1.774,-4.991,-4.995
966.0,-12.789,-18.15,15.362,-1.66,-4.958,-4.995
970.0,-12.789,-18.15,15.362,-1.66,-4.958,-4.995
975.0,-12.789,-18.15,14.367,-1.66,-4.958,-4.995
979.0,-11.017,-16.79,14.367,-1.479,-4.84,-4.995
983.0,-11.017,-16.79,14.367,-1.479,-4.84,-4.995
987.0,-9.663,-15.115,13.079,-1.255,-4.663,-4.995
991.0,-9.663,-15.115,13.079,-1.255,-4.663,-4.995
996.0,-8.386,-13.082,11.688,-1.006,-4.457,-4.995
1000.0,-8.386,-13.082,11.688,-1.006,-4.457,-4.995
1004.0,-8.386,-13.082,10.298,-1.006,-4.457,-4.995
1008.0,-6.963,-11.038,10.298,-0.735,-4.222,-4.995
1013.0,-6.963,-11.038,10.298,-0.735,-4.222,-4.995
1017.0,-6.387,-9.243,8.802,-0.427,-3.926,-4.995
1021.0,-6.387,-9.243,8.802,-0.427,-3.926,-4.995
1025.0,-7.471,-7.111,6.969,-0.107,-3.592,-4.995
1029.0,-7.471,-7.111,6.969,-0.107,-3.592,-4.995
1033.0,-7.471,-7.111,6.969,-0.107,-3.592,-4.995
1037.0,-9.244,-4.603,4.613,0.226,-3.268,-4.966
1041.0,-9.244,-4.603,4.613,0.226,-3.268,-4.966
1045.0,-9.71,-2.313,2.642,0.463,-2.92,-4.389
1049.0,-9.71,-2.313,2.642,0.463,-2.92,-4.389
1053.0,-9.71,-2.313,2.642,0.463,-2.92,-4.389
1057.0,-9.377,-0.583,2.496,0.561,-2.445,-3.388
1061.0,-9.377,-0.583,2.496,0.561,-2.445,-3.388
1065.0,-10.801,0.664,2.798,0.599,-1.906,-2.53
1069.0,-10.801,0.664,2.798,0.599,-1.906,-2.53
1073.0,-10.801,0.664,3.068,0.599,-1.906,-2.53
1077.0,-13.624,1.969,3.068,0.567,-1.378,-1.853
1081.0,-13.624,1.969,3.068,0.567,-1.378,-1.853
1085.0,-16.1,3.287,3.54,0.503,-0.875,-1.328
1089.0,-16.1,3.287,3.54,0.503,-0.875,-1.328
1093.0,-16.1,4.39,2.935,0.503,-0.875,-1.328
1097.0,-18.025,4.39,2.935,0.458,-0.426,-0.879
1101.0,-18.025,4.39,2.935,0.458,-0.426,-0.879
1105.0,-19.078,5.302,1.831,0.421,0.058,-0.409
1109.0,-19.078,5.302,1.831,0.421,0.058,-0.409
1113.0,-19.078,5.957,1.774,0.421,0.058,-0.409
1117.0,-19.076,5.957,1.774,0.372,0.642,0.093
1121.0,-19.076,5.957,1.774,0.372,0.642,0.093
1124.0,-19.317,6.373,2.532,0.331,1.287,0.568
1128.0,-19.317,6.373,2.532,0.331,1.287,0.568
1132.0,-19.317,6.373,2.532,0.331,1.287,0.568
1136.0,-19.588,6.237,3.376,0.289,1.937,1.03
1140.0,-19.588,6.237,3.376,0.289,1.937,1.03
1144.0,-18.995,5.313,4.556,0.189,2.556,1.59
1147.0,-18.995,5.313,4.556,0.189,2.556,1.59
1151.0,-18.995,5.313,4.556,0.189,2.556,1.59
1155.0,-17.886,3.715,6.086,0.019,3.148,2.29
1159.0,-17.886,3.715,6.086,0.019,3.148,2.29
1163.0,-17.297,1.947,7.328,0.019,3.148,3.093
1166.0,-17.297,1.947,7.328,-0.18,3.719,3.093
1170.0,-17.297,1.947,7.328,-0.18,3.719,3.093
1174.0,-17.375,0.488,8.017,-0.351,4.256,3.944
1178.0,-17.375,0.488,8.017,-0.351,4.256,3.944
1182.0,-17.228,-0.582,7.948,-0.351,4.256,3.944
1186.0,-17.228,-0.582,7.948,-0.461,4.731,4.74
1190.0,-17.228,-0.582,7.948,-0.461,4.731,4.74
1194.0,-17.091,-1.516,7.728,-0.522,4.996,5.011
1198.0,-17.091,-1.516,7.728,-0.522,4.996,5.011
1202.0,-17.377,-2.414,7.457,-0.522,4.996,5.013
1206.0,-17.377,-2.414,7.457,-0.58,5.015,5.013
1210.0,-17.377,-2.414,7.457,-0.58,5.015,5.013
1214.0,-17.608,-3.297,7.324,-0.672,5.015,5.013
1218.0,-17.608,-3.297,7.324,-0.672,5.015,5.013
1222.0,-17.704,-4.324,7.271,-0.672,5.015,5.013
1226.0,-17.704,-4.324,7.271,-0.801,5.015,5.013
1230.0,-17.704,-4.324,7.271,-0.801,5.015,5.013
1234.0,-18.221,-5.903,7.89,-0.956,5.015,5.013
1238.0,-18.221,-5.903,7.89,-0.956,5.015,5.013
1242.0,-19.372,-7.496,8.846,-1.121,5.015,5.013
1246.0,-19.372,-7.496,8.846,-1.121,5.015,5.013
1250.0,-19.372,-7.496,8.846,-1.121,5.015,5.013
1254.0,-19.114,-9.686,10.219,-1.275,5.015,5.013
1258.0,-19.114,-9.686,10.219,-1.275,5.015,5.013
1262.0,-19.569,-10.801,11.698,-1.452,5.015,5.013
1266.0,-19.569,-10.801,11.698,-1.452,5.015,5.013
1270.0,-19.569,-10.801,11.698,-1.452,5.015,5.013
1275.0,-19.6,-12.415,12.378,-1.486,4.897,5.013
1279.0,-19.6,-12.415,12.378,-1.486,4.897,5.013
1283.0,-19.6,-12.825,12.369,-1.352,4.534,5.013
1287.0,-19.6,-12.825,12.369,-1.352,4.534,5.013
1291.0,-19.6,-13.332,12.502,-1.061,4.136,5.013
1295.0,-19.6,-13.332,12.502,-1.061,4.136,5.013
1300.0,-19.6,-13.332,12.502,-1.061,4.136,5.013
1304.0,-19.6,-12.973,12.486,-0.674,3.752,5.013
1308.0,-19.6,-12.973,12.486,-0.674,3.752,5.013
1312.0,-19.6,-12.313,12.5,-0.326,3.402,5.013
1316.0,-19.6,-12.313,12.5,-0.326,3.402,5.013
1320.0,-19.567,-11.757,12.761,-0.326,3.402,5.013
1325.0,-19.567,-11.757,12.761,-0.081,3.076,5.013
1329.0,-19.567,-11.757,12.761,-0.081,3.076,5.013
1333.0,-19.327,-10.735,13.095,0.066,2.781,5.013
1337.0,-19.327,-10.735,13.095,0.066,2.781,5.013
1341.0,-19.004,-9.502,13.379,0.145,2.518,5.013
1345.0,-19.004,-9.502,13.379,0.145,2.518,5.013
1349.0,-19.004,-9.502,13.379,0.145,2.518,5.013
1353.0,-18.011,-9.233,12.838,0.162,2.264,5.013
1357.0,-18.011,-9.233,12.838,0.162,2.264,5.013
1361.0,-16.705,-8.154,12.593,0.174,2.152,5.013
1365.0,-16.705,-8.154,12.593,0.174,2.152,5.013
1369.0,-16.705,-8.154,12.593,0.174,2.152,5.013
1373.0,-18.486,-7.047,13.409,0.236,2.145,5.013
1377.0,-18.486,-7.047,13.409,0.236,2.145,5.013
1381.0,-18.432,-6.296,13.722,0.331,2.07,5.013
1385.0,-18.432,-6.296,13.722,0.331,2.07,5.013
1389.0,-18.432,-6.296,13.658,0.331,2.07,5.013
1393.0,-17.917,-6.283,13.658,0.408,1.942,5.013
1397.0,-17.917,-6.283,13.658,0.408,1.942,5.013
1401.0,-16.808,-6.748,13.784,0.501,1.864,5.013
1405.0,-16.808,-6.748,13.784,0.501,1.864,5.013
1409.0,-16.808,-7.214,13.962,0.501,1.864,5.013
1413.0,-15.568,-7.214,13.962,0.644,1.774,5.013
1417.0,-15.568,-7.214,13.962,0.644,1.774,5.013
1421.0,-14.611,-7.342,13.397,0.834,1.651,5.013
1425.0,-14.611,-7.342,13.397,0.834,1.651,5.013
1429.0,-13.494,-7.039,12.561,0.834,1.651,5.013
1433.0,-13.494,-7.039,12.561,1.027,1.543,5.013
1437.0,-13.494,-7.039,12.561,1.027,1.543,5.013
1441.0,-12.873,-7.007,11.996,1.147,1.486,5.013
1445.0,-12.873,-7.007,11.996,1.147,1.486,5.013
1449.0,-13.063,-7.124,11.584,1.147,1.486,5.013
1453.0,-13.063,-7.124,11.584,1.174,1.494,5.013
1457.0,-13.063,-7.124,11.584,1.174,1.494,5.013
1461.0,-13.359,-6.925,11.197,1.11,1.501,5.013
1465.0,-13.359,-6.925,11.197,1.11,1.501,5.013
1469.0,-12.878,-6.581,10.88,1.11,1.438,4.997
1473.0,-12.878,-6.581,10.88,0.959,1.438,4.997
1477.0,-12.878,-6.581,10.88,0.959,1.438,4.997
1481.0,-11.413,-6.348,10.403,0.765,1.322,4.664
1485.0,-11.413,-6.348,10.403,0.765,1.322,4.664
1489.0,-9.47,-6.237,9.666,0.579,1.204,4.043
1493.0,-9.47,-6.237,9.666,0.579,1.204,4.043
1496.0,-9.47,-6.237,9.666,0.579,1.204,4.043
1500.0,-7.343,-6.27,8.873,0.425,1.086,3.435
1504.0,-7.343,-6.27,8.873,0.425,1.086,3.435
1508.0,-5.477,-6.281,8.117,0.425,1.086,3.435
1512.0,-5.477,-6.281,8.117,0.297,0.933,2.865
1516.0,-5.477,-6.281,8.117,0.297,0.933,2.865
1519.0,-4.101,-6.058,7.746,0.189,0.734,2.348
1523.0,-4.101,-6.058,7.746,0.189,0.734,2.348
1527.0,-4.101,-6.058,7.746,0.189,0.734,2.348
1531.0,-3.151,-5.72,7.491,0.087,0.482,1.932
1535.0,-3.151,-5.72,7.491,0.087,0.482,1.932
1538.0,-2.438,-5.492,7.178,-0.015,0.198,1.636
1542.0,-2.438,-5.492,7.178,-0.015,0.198,1.636
1546.0,-2.438,-5.492,7.178,-0.015,0.198,1.636
1550.0,-1.811,-5.64,6.759,-0.104,-0.096,1.435
1554.0,-1.811,-5.64,6.759,-0.104,-0.096,1.435
1558.0,-1.05,-5.868,6.096,-0.177,-0.381,1.272
1562.0,-1.05,-5.868,6.096,-0.177,-0.381,1.272
1566.0,-1.05,-5.868,6.096,-0.177,-0.381,1.272
1570.0,-0.051,-6.051,5.463,-0.25,-0.619,1.1
1574.0,-0.051,-6.051,5.463,-0.25,-0.619,1.1
1578.0,1.039,-6.244,5.017,-0.353,-0.799,0.87
1582.0,1.039,-6.244,5.017,-0.353,-0.799,0.87
1586.0,1.039,-6.244,5.017,-0.353,-0.799,0.87
1590.0,2.165,-6.367,4.608,-0.497,-0.926,0.535
1594.0,2.165,-6.367,4.608,-0.497,-0.926,0.535
1598.0,3.034,-6.359,4.334,-0.671,-1.002,0.099
1602.0,3.034,-6.359,4.334,-0.671,-1.002,0.099
1605.0,3.034,-6.359,4.334,-0.671,-1.002,0.099
1609.0,3.46,-6.374,4.008,-0.858,-1.032,-0.386
1613.0,3.46,-6.374,4.008,-0.858,-1.032,-0.386
1617.0,3.255,-6.59,3.591,-1.046,-1.008,-0.875
1621.0,3.255,-6.59,3.591,-1.046,-1.008,-0.875
1625.0,3.255,-6.59,3.591,-1.046,-1.008,-0.875
1629.0,2.373,-7.058,3.15,-1.214,-0.935,-1.359
1633.0,2.373,-7.058,3.15,-1.214,-0.935,-1.359
1637.0,0.998,-7.736,2.789,-1.334,-0.851,-1.854
1641.0,0.998,-7.736,2.789,-1.334,-0.851,-1.854
1645.0,0.998,-7.736,2.789,-1.334,-0.851,-1.854
1649.0,-0.637,-8.454,2.457,-1.391,-0.783,-2.36
1653.0,-0.637,-8.454,2.457,-1.391,-0.783,-2.36
1657.0,-2.481,-9.133,2.21,-1.389,-0.736,-2.852
1662.0,-2.481,-9.133,2.21,-1.389,-0.736,-2.852
1666.0,-2.481,-9.912,2.059,-1.389,-0.736,-2.852
1670.0,-4.595,-9.912,2.059,-1.346,-0.711,-3.278
1674.0,-4.595,-9.912,2.059,-1.346,-0.711,-3.278
1678.0,-7.052,-10.962,2.209,-1.274,-0.707,-3.614
1682.0,-7.052,-10.962,2.209,-1.274,-0.707,-3.614
1686.0,-9.8,-12.103,2.588,-1.169,-0.742,-3.862
1690.0,-9.8,-12.103,2.588,-1.169,-0.742,-3.862
1695.0,-9.8,-12.103,2.588,-1.169,-0.742,-3.862
1699.0,-12.408,-13.133,2.993,-1.013,-0.829,-4.014
1703.0,-12.408,-13.133,2.993,-1.013,-0.829,-4.014
1707.0,-14.474,-13.71,3.285,-0.821,-0.975,-4.093
1711.0,-14.474,-13.71,3.285,-0.821,-0.975,-4.093
1716.0,-15.814,-13.661,3.427,-0.635,-1.163,-4.158
1720.0,-15.814,-13.661,3.427,-0.635,-1.163,-4.158
1724.0,-15.814,-13.661,3.427,-0.635,-1.163,-4.158
1728.0,-16.382,-13.169,3.413,-0.501,-1.364,-4.262
1733.0,-16.382,-13.169,3.413,-0.501,-1.364,-4.262
1737.0,-16.348,-12.41,3.491,-0.455,-1.542,-4.439
1741.0,-16.348,-12.41,3.491,-0.455,-1.542,-4.439
1746.0,-16.015,-11.556,3.774,-0.518,-1.674,-4.689
1750.0,-16.015,-11.556,3.774,-0.518,-1.674,-4.689
1754.0,-16.015,-11.556,3.774,-0.518,-1.674,-4.689
1758.0,-15.749,-10.878,4.291,-0.691,-1.737,-4.938
1763.0,-15.749,-10.878,4.291,-0.691,-1.737,-4.938
1767.0,-15.555,-10.507,4.914,-0.95,-1.738,-4.995
1771.0,-15.555,-10.507,4.914,-0.95,-1.738,-4.995
1775.0,-15.275,-10.461,5.515,-1.243,-1.694,-4.995
1780.0,-15.275,-10.461,5.515,-1.243,-1.694,-4.995
1784.0,-15.275,-10.461,6.039,-1.243,-1.694,-4.995
1788.0,-15.101,-10.698,6.039,-1.511,-1.609,-4.995
1792.0,-15.101,-10.698,6.039,-1.511,-1.609,-4.995
1797.0,-15.249,-11.1,6.447,-1.703,-1.499,-4.995
1801.0,-15.249,-11.1,6.447,-1.703,-1.499,-4.995
1805.0,-15.531,-11.533,6.849,-1.804,-1.405,-4.995
1809.0,-15.531,-11.533,6.849,-1.804,-1.405,-4.995
1814.0,-15.531,-11.533,7.423,-1.804,-1.405,-4.995
1818.0,-15.878,-11.925,7.423,-1.807,-1.359,-4.995
1822.0,-15.878,-11.925,7.423,-1.807,-1.359,-4.995
1826.0,-16.158,-12.297,8.107,-1.709,-1.361,-4.995
1831.0,-16.158,-12.297,8.107,-1.709,-1.361,-4.995
1835.0,-16.396,-12.543,8.649,-1.519,-1.398,-4.995
1839.0,-16.396,-12.543,8.649,-1.519,-1.398,-4.995
1843.0,-16.421,-12.812,9.234,-1.519,-1.398,-4.995
1848.0,-16.421,-12.812,9.234,-1.269,-1.457,-4.995
1852.0,-16.421,-12.812,9.234,-1.269,-1.457,-4.995
1856.0,-16.661,-12.909,9.807,-0.997,-1.544,-4.995
1860.0,-16.661,-12.909,9.807,-0.997,-1.544,-4.995
1865.0,-17.062,-12.845,10.424,-0.75,-1.656,-4.995
1869.0,-17.062,-12.845,10.424,-0.75,-1.656,-4.995
1873.0,-17.503,-12.684,10.967,-0.75,-1.656,-4.995
1878.0,-17.503,-12.684,10.967,-0.564,-1.784,-4.995
1882.0,-17.503,-12.684,10.967,-0.564,-1.784,-4.995
1886.0,-17.827,-12.575,11.455,-0.471,-1.933,-4.995
1891.0,-17.827,-12.575,11.455,-0.471,-1.933,-4.995
1895.0,-18.018,-12.852,11.801,-0.409,-2.102,-4.995
1899.0,-18.018,-12.852,11.801,-0.409,-2.102,-4.995
1904.0,-18.401,-13.413,11.956,-0.393,-2.269,-4.995
1908.0,-18.401,-13.413,11.956,-0.393,-2.269,-4.995
1912.0,-18.401,-13.924,12.337,-0.393,-2.269,-4.995
1917.0,-18.724,-13.924,12.337,-0.389,-2.45,-4.995
1921.0,-18.724,-13.924,12.337,-0.389,-2.45,-4.995
1925.0,-19.147,-14.158,12.581,-0.369,-2.662,-4.995
1930.0,-19.147,-14.158,12.581,-0.369,-2.662,-4.995
1934.0,-19.348,-14.018,12.548,-0.36,-2.909,-4.995
1938.0,-19.348,-14.018,12.548,-0.36,-2.909,-4.995
1943.0,-18.955,-13.647,12.25,-0.362,-3.166,-4.995
1947.0,-18.955,-13.647,12.25,-0.362,-3.166,-4.995
1951.0,-18.955,-13.647,12.25,-0.362,-3.166,-4.995
1956.0,-17.971,-13.321,11.886,-0.378,-3.401,-4.995
1960.0,-17.971,-13.321,11.886,-0.378,-3.401,-4.995
1964.0,-16.874,-12.804,11.439,-0.41,-3.599,-4.995
1969.0,-16.874,-12.804,11.439,-0.41,-3.599,-4.995
1973.0,-15.664,-12.453,10.813,-0.48,-3.753,-4.995
1977.0,-15.664,-12.453,10.813,-0.48,-3.753,-4.995
1982.0,-14.32,-12.006,10.019,-0.48,-3.753,-4.995
1986.0,-14.32,-12.006,10.019,-0.579,-3.844,-4.995
1990.0,-14.32,-12.006,10.019,-0.579,-3.844,-4.995
1995.0,-12.721,-11.262,9.038,-0.681,-3.85,-4.995
1999.0,-12.721,-11.262,9.038,-0.681,-3.85,-4.995
2003.0,-11.43,-10.356,8.187,-0.767,-3.756,-4.995
2008.0,-11.43,-10.356,8.187,-0.767,-3.756,-4.995
2012.0,-10.677,-9.223,7.548,-0.804,-3.595,-4.986
2016.0,-10.677,-9.223,7.548,-0.804,-3.595,-4.986
2020.0,-10.677,-9.223,7.548,-0.804,-3.595,-4.986
2024.0,-10.29,-8.124,6.787,-0.748,-3.419,-4.806
2028.0,-10.29,-8.124,6.787,-0.748,-3.419,-4.806
2033.0,-10.277,-6.843,5.766,-0.618,-3.242,-4.443
2037.0,-10.277,-6.843,5.766,-0.618,-3.242,-4.443
2041.0,-10.402,-5.441,4.728,-0.618,-3.242,-4.008
2045.0,-10.402,-5.441,4.728,-0.433,-3.043,-4.008
2049.0,-10.402,-5.441,4.728,-0.433,-3.043,-4.008
2053.0,-10.319,-3.934,4.144,-0.264,-2.803,-3.48
2058.0,-10.319,-3.934,4.144,-0.264,-2.803,-3.48
2062.0,-9.849,-2.436,4.086,-0.071,-2.509,-2.919
2066.0,-9.849,-2.436,4.086,-0.071,-2.509,-2.919
2070.0,-9.849,-2.436,4.086,-0.071,-2.509,-2.919
2074.0,-9.054,-1.014,4.247,0.167,-2.162,-2.373
2078.0,-9.054,-1.014,4.247,0.167,-2.162,-2.373
2082.0,-8.116,0.257,4.469,0.461,-1.77,-1.877
2086.0,-8.116,0.257,4.469,0.461,-1.77,-1.877
2090.0,-8.116,0.257,4.454,0.461,-1.77,-1.877
2094.0,-7.203,1.411,4.454,0.808,-1.373,-1.45
2098.0,-7.203,1.411,4.454,0.808,-1.373,-1.45
2102.0,-6.427,2.484,4.16,1.182,-0.982,-1.067
2105.0,-6.427,2.484,4.16,1.182,-0.982,-1.067
2109.0,-6.427,2.484,4.16,1.182,-0.982,-1.067
2113.0,-5.905,3.412,3.75,1.521,-0.591,-0.677
2117.0,-5.905,3.412,3.75,1.521,-0.591,-0.677
2121.0,-5.481,4.007,3.229,1.771,-0.177,-0.24
2125.0,-5.481,4.007,3.229,1.771,-0.177,-0.24
2129.0,-5.481,4.007,3.229,1.771,-0.177,-0.24
2133.0,-4.943,4.199,2.837,1.897,0.306,0.243
2137.0,-4.943,4.199,2.837,1.897,0.306,0.243
2140.0,-4.519,4.071,2.822,1.881,0.89,0.758
2144.0,-4.519,4.071,2.822,1.881,0.89,0.758
2148.0,-4.519,4.071,2.822,1.881,0.89,0.758
2151.0,-4.503,3.745,3.187,1.738,1.567,1.274
2155.0,-4.503,3.745,3.187,1.738,1.567,1.274
2159.0,-4.503,3.745,3.876,1.738,1.567,1.274
2163.0,-5.058,3.319,3.876,1.503,2.277,1.77
2166.0,-5.058,3.319,3.876,1.503,2.277,1.77
2170.0,-6.074,2.934,4.602,1.213,2.935,2.241
2174.0,-6.074,2.934,4.602,1.213,2.935,2.241
2178.0,-6.074,2.934,4.602,1.213,2.935,2.241
2181.0,-7.213,2.599,5.085,0.904,3.491,2.706
2185.0,-7.213,2.599,5.085,0.904,3.491,2.706
2189.0,-8.504,1.974,5.387,0.904,3.491,2.706
2193.0,-8.504,1.974,5.387,0.594,3.941,3.185
2196.0,-8.504,1.974,5.387,0.594,3.941,3.185
2200.0,-9.859,0.837,5.56,0.301,4.285,3.671
2204.0,-9.859,0.837,5.56,0.301,4.285,3.671
2207.0,-9.859,0.837,5.56,0.301,4.285,3.671
2211.0,-11.041,-0.399,5.41,0.044,4.522,4.148
2215.0,-11.041,-0.399,5.41,0.044,4.522,4.148
2219.0,-11.819,-1.495,5.177,-0.154,4.693,4.624
2223.0,-11.819,-1.495,5.177,-0.154,4.693,4.624
2227.0,-11.819,-1.495,5.177,-0.154,4.693,4.624
2231.0,-12.473,-2.478,5.127,-0.289,4.822,4.97
2235.0,-12.473,-2.478,5.127,-0.289,4.822,4.97
2239.0,-13.278,-3.087,5.151,-0.366,4.909,5.013
2243.0,-13.278,-3.087,5.151,-0.366,4.909,5.013
2247.0,-13.278,-3.087,5.151,-0.366,4.909,5.013
2251.0,-14.277,-3.391,5.457,-0.4,4.953,5.013
2255.0,-14.277,-3.391,5.457,-0.4,4.953,5.013
2259.0,-15.545,-3.757,6.077,-0.413,4.937,5.013
2263.0,-15.545,-3.757,6.077,-0.413,4.937,5.013
2267.0,-15.545,-3.757,6.077,-0.413,4.937,5.013
2271.0,-17.42,-4.546,7.056,-0.421,4.826,5.013
2275.0,-17.42,-4.546,7.056,-0.421,4.826,5.013
2279.0,-18.806,-5.302,7.753,-0.415,4.622,5.013
2283.0,-18.806,-5.302,7.753,-0.415,4.622,5.013
2287.0,-18.806,-5.302,7.753,-0.415,4.622,5.013
2291.0,-18.934,-6.013,7.975,-0.37,4.394,5.013
2295.0,-18.934,-6.013,7.975,-0.37,4.394,5.013
2299.0,-18.864,-6.404,7.832,-0.272,4.192,5.013
2303.0,-18.864,-6.404,7.832,-0.272,4.192,5.013
2307.0,-18.864,-6.404,7.158,-0.272,4.192,5.013
2311.0,-19.07,-6.075,7.158,-0.133,4.012,5.013
2315.0,-19.07,-6.075,7.158,-0.133,4.012,5.013
2319.0,-18.907,-5.266,6.384,0.006,3.844,5.013
2323.0,-18.907,-5.266,6.384,0.006,3.844,5.013
2327.0,-18.907,-5.266,6.47,0.006,3.844,5.013
2331.0,-18.648,-4.801,6.47,0.114,3.665,5.013
2334.0,-18.648,-4.801,6.47,0.114,3.665,5.013
2338.0,-19.114,-5.2,6.942,0.168,3.439,5.013
2342.0,-19.114,-5.2,6.942,0.168,3.439,5.013
2346.0,-19.114,-5.2,6.942,0.168,3.439,5.013
2350.0,-19.6,-4.529,6.954,0.136,3.183,5.013
2354.0,-19.6,-4.529,6.954,0.136,3.183,5.013
2358.0,-19.388,-3.736,6.768,0.018,2.938,5.013
2362.0,-19.388,-3.736,6.768,0.018,2.938,5.013
2366.0,-19.388,-3.736,6.768,0.018,2.938,5.013
2370.0,-18.669,-3.608,6.645,-0.15,2.733,5.013
2374.0,-18.669,-3.608,6.645,-0.15,2.733,5.013
2378.0,-16.543,-3.649,5.868,-0.318,2.601,5.013
2382.0,-16.543,-3.649,5.868,-0.318,2.601,5.013
2386.0,-16.543,-3.649,5.868,-0.318,2.601,5.013
2390.0,-16.969,-2.669,6.984,-0.421,2.606,5.013
2394.0,-16.969,-2.669,6.984,-0.421,2.606,5.013
2398.0,-16.427,-2.128,6.99,-0.524,2.502,5.013
2402.0,-16.427,-2.128,6.99,-0.524,2.502,5.013
2406.0,-16.427,-2.128,6.99,-0.524,2.502,5.013
2410.0,-15.427,-1.722,6.651,-0.708,2.366,5.013
2414.0,-15.427,-1.722,6.651,-0.708,2.366,5.013
2418.0,-14.888,-1.951,6.736,-0.994,2.266,5.013
2422.0,-14.888,-1.951,6.736,-0.994,2.266,5.013
2426.0,-14.888,-3.552,6.358,-0.994,2.266,5.013
2430.0,-13.594,-3.552,6.358,-1.073,2.168,5.013
2434.0,-13.594,-3.552,6.358,-1.073,2.168,5.013
2438.0,-16.71,-4.482,7.111,-0.8,2.015,4.995
2442.0,-16.71,-4.482,7.111,-0.8,2.015,4.995
2445.0,-14.453,-1.183,5.733,-0.8,2.015,4.995
2449.0,-14.453,-1.183,5.733,-0.546,1.913,4.996
2453.0,-14.453,-1.183,5.733,-0.546,1.913,4.996
2457.0,-12.355,-3.33,8.49,-0.668,1.861,5.006
2461.0,-12.355,-3.33,8.49,-0.668,1.861,5.006
2465.0,-16.512,-3.547,9.211,-0.668,1.861,4.98
2469.0,-16.512,-3.547,9.211,-0.495,1.669,4.98
2473.0,-16.512,-3.547,9.211,-0.495,1.669,4.98
2477.0,-18.831,-4.217,9.389,-0.137,1.456,4.968
2481.0,-18.831,-4.217,9.389,-0.137,1.456,4.968
2485.0,-17.186,-4.064,9.058,-0.137,1.248,4.987
2489.0,-17.186,-4.064,9.058,0.224,1.248,4.987
2493.0,-17.186,-4.064,9.058,0.224,1.248,4.987
2497.0,-16.263,-4.202,8.99,0.396,1.11,5.002
2501.0,-16.263,-4.202,8.99,0.396,1.11,5.002
2505.0,-16.163,-4.15,8.856,0.396,1.11,4.991
2509.0,-16.163,-4.15,8.856,0.653,1.107,4.991
2513.0,-16.163,-4.15,8.856,0.653,1.107,4.991
2517.0,-16.733,-3.922,8.73,0.872,1.118,4.964
2521.0,-16.733,-3.922,8.73,0.872,1.118,4.964
2525.0,-16.418,-3.648,8.466,0.872,1.118,4.964
2528.0,-16.418,-3.648,8.466,0.977,1.115,4.897
2532.0,-16.418,-3.648,8.466,0.977,1.115,4.897
2536.0,-15.43,-3.493,8.163,0.981,1.143,4.721
2540.0,-15.43,-3.493,8.163,0.981,1.143,4.721
2544.0,-14.268,-3.346,7.96,0.981,1.143,4.721
2548.0,-14.268,-3.346,7.96,0.914,1.192,4.425
2552.0,-14.268,-3.346,7.96,0.914,1.192,4.425
2556.0,-12.975,-3.112,7.959,0.797,1.222,4.047
2560.0,-12.975,-3.112,7.959,0.797,1.222,4.047
2564.0,-12.975,-3.112,8.213,0.797,1.222,4.047
2568.0,-11.952,-2.847,8.213,0.663,1.204,3.613
2571.0,-11.952,-2.847,8.213,0.663,1.204,3.613
2575.0,-11.328,-2.733,8.189,0.532,1.116,3.173
2579.0,-11.328,-2.733,8.189,0.532,1.116,3.173
2583.0,-11.328,-2.733,8.189,0.532,1.116,3.173
2587.0,-10.936,-2.775,8.15,0.412,0.971,2.78
2591.0,-10.936,-2.775,8.15,0.412,0.971,2.78
2595.0,-10.308,-2.987,8.031,0.306,0.769,2.459
2599.0,-10.308,-2.987,8.031,0.306,0.769,2.459
2603.0,-10.308,-2.987,8.031,0.306,0.769,2.459
2607.0,-9.263,-3.307,7.727,0.208,0.533,2.195
2610.0,-9.263,-3.307,7.727,0.208,0.533,2.195
2614.0,-7.811,-3.625,7.338,0.113,0.278,1.938
2618.0,-7.811,-3.625,7.338,0.113,0.278,1.938
2622.0,-7.811,-3.625,7.338,0.113,0.278,1.938
2626.0,-6.121,-3.827,6.773,0.012,0.009,1.628
2630.0,-6.121,-3.827,6.773,0.012,0.009,1.628
2633.0,-4.445,-3.788,6.016,0.012,0.009,1.24
2637.0,-4.445,-3.788,6.016,-0.106,-0.246,1.24
2641.0,-4.445,-3.788,6.016,-0.106,-0.246,1.24
2645.0,-2.968,-3.594,5.054,-0.256,-0.449,0.798
2649.0,-2.968,-3.594,5.054,-0.256,-0.449,0.798
2653.0,-1.772,-3.508,4.155,-0.256,-0.568,0.342
2657.0,-1.772,-3.508,4.155,-0.464,-0.568,0.342
2661.0,-1.772,-3.508,4.155,-0.464,-0.568,0.342
2665.0,-0.793,-3.611,3.406,-0.727,-0.607,-0.105
2669.0,-0.793,-3.611,3.406,-0.727,-0.607,-0.105
2673.0,0.089,-4.059,2.786,-1.013,-0.571,-0.529
2677.0,0.089,-4.059,2.786,-1.013,-0.571,-0.529
2681.0,0.089,-4.059,2.786,-1.013,-0.571,-0.529
2685.0,0.614,-4.812,2.55,-1.28,-0.474,-0.901
2689.0,0.614,-4.812,2.55,-1.28,-0.474,-0.901
2693.0,0.784,-6.022,2.369,-1.487,-0.36,-1.202
2697.0,0.784,-6.022,2.369,-1.487,-0.36,-1.202
2701.0,0.784,-6.022,2.369,-1.487,-0.36,-1.202
2705.0,0.526,-7.588,2.207,-1.575,-0.253,-1.458
2709.0,0.526,-7.588,2.207,-1.575,-0.253,-1.458
2713.0,-0.419,-9.214,2.104,-1.511,-0.159,-1.714
2717.0,-0.419,-9.214,2.104,-1.511,-0.159,-1.714
2721.0,-0.419,-9.214,2.104,-1.511,-0.159,-1.714
2725.0,-2.382,-10.577,1.923,-1.292,-0.089,-1.972
2730.0,-2.382,-10.577,1.923,-1.292,-0.089,-1.972
2734.0,-5.228,-11.48,1.552,-0.952,-0.06,-2.233
2738.0,-5.228,-11.48,1.552,-0.952,-0.06,-2.233
2742.0,-8.569,-11.958,1.03,-0.952,-0.085,-2.492
2746.0,-8.569,-11.958,1.03,-0.541,-0.085,-2.492
2750.0,-8.569,-11.958,1.03,-0.541,-0.085,-2.492
2755.0,-11.769,-11.902,0.533,-0.106,-0.15,-2.746
2759.0,-11.769,-11.902,0.533,-0.106,-0.15,-2.746
2763.0,-13.695,-11.313,0.358,0.303,-0.239,-2.973
2767.0,-13.695,-11.313,0.358,0.303,-0.239,-2.973
2771.0,-14.163,-10.507,0.461,0.303,-0.239,-3.179
2776.0,-14.163,-10.507,0.461,0.635,-0.341,-3.179
2780.0,-14.163,-10.507,0.461,0.635,-0.341,-3.179
2784.0,-14.305,-9.685,0.568,0.861,-0.433,-3.396
2788.0,-14.305,-9.685,0.568,0.861,-0.433,-3.396
2792.0,-14.827,-8.921,0.705,0.978,-0.498,-3.648
2796.0,-14.827,-8.921,0.705,0.978,-0.498,-3.648
2800.0,-14.827,-8.921,0.705,0.978,-0.498,-3.648
2804.0,-15.401,-8.146,1.012,0.999,-0.55,-3.93
2808.0,-15.401,-8.146,1.012,0.999,-0.55,-3.93
2813.0,-15.784,-7.443,1.417,0.948,-0.598,-4.217
2817.0,-15.784,-7.443,1.417,0.948,-0.598,-4.217
2821.0,-15.982,-6.88,1.67,0.948,-0.598,-4.217
2825.0,-15.982,-6.88,1.67,0.854,-0.637,-4.497
2829.0,-15.982,-6.88,1.67,0.854,-0.637,-4.497
2833.0,-16.102,-6.538,1.689,0.749,-0.659,-4.752
2837.0,-16.102,-6.538,1.689,0.749,-0.659,-4.752
2841.0,-16.29,-6.418,1.697,0.656,-0.667,-4.947
2845.0,-16.29,-6.418,1.697,0.656,-0.667,-4.947
2849.0,-16.29,-6.418,1.697,0.656,-0.667,-4.947
2853.0,-16.668,-6.431,1.835,0.603,-0.673,-4.995
2857.0,-16.668,-6.431,1.835,0.603,-0.673,-4.995
2861.0,-17.162,-6.4,2.128,0.6,-0.694,-4.995
2866.0,-17.162,-6.4,2.128,0.6,-0.694,-4.995
2870.0,-17.162,-6.4,2.584,0.6,-0.694,-4.995
2874.0,-17.462,-6.421,2.584,0.647,-0.743,-4.995
2878.0,-17.462,-6.421,2.584,0.647,-0.743,-4.995
2882.0,-17.572,-6.505,3.132,0.743,-0.83,-4.995
2886.0,-17.572,-6.505,3.132,0.743,-0.83,-4.995
2890.0,-17.643,-6.656,3.565,0.743,-0.948,-4.995
2894.0,-17.643,-6.656,3.565,0.881,-0.948,-4.995
2898.0,-17.643,-6.656,3.565,0.881,-0.948,-4.995
2902.0,-17.71,-6.727,3.861,1.048,-1.087,-4.995
2906.0,-17.71,-6.727,3.861,1.048,-1.087,-4.995
2910.0,-17.767,-6.772,4.193,1.218,-1.24,-4.995
2915.0,-17.767,-6.772,4.193,1.218,-1.24,-4.995
2919.0,-17.767,-6.772,4.193,1.218,-1.24,-4.995
2923.0,-17.987,-6.651,4.574,1.357,-1.404,-4.995
2927.0,-17.987,-6.651,4.574,1.357,-1.404,-4.995
2931.0,-18.086,-6.431,5.042,1.437,-1.581,-4.995
2935.0,-18.086,-6.431,5.042,1.437,-1.581,-4.995
2939.0,-17.921,-6.2,5.526,1.437,-1.581,-4.995
2943.0,-17.921,-6.2,5.526,1.45,-1.78,-4.995
2947.0,-17.921,-6.2,5.526,1.45,-1.78,-4.995
2951.0,-17.652,-6.268,6.275,1.403,-1.979,-4.995
2955.0,-17.652,-6.268,6.275,1.403,-1.979,-4.995
2959.0,-17.774,-6.617,7.213,1.313,-2.182,-4.995
2963.0,-17.774,-6.617,7.213,1.313,-2.182,-4.995
2968.0,-17.774,-6.617,7.213,1.313,-2.182,-4.995
2972.0,-18.108,-7.226,8.012,1.208,-2.415,-4.995
2976.0,-18.108,-7.226,8.012,1.208,-2.415,-4.995
2980.0,-18.695,-7.994,8.684,1.109,-2.691,-4.995
2984.0,-18.695,-7.994,8.684,1.109,-2.691,-4.995
2988.0,-18.695,-7.994,9.179,1.109,-2.691,-4.995
2992.0,-19.502,-8.821,9.179,1.023,-3.007,-4.995
2996.0,-19.502,-8.821,9.179,1.023,-3.007,-4.995
3000.0,-19.6,-9.877,9.465,0.926,-3.343,-4.995
