deltaTime,Acc_X,Acc_Y,Acc_Z,Gyro_X,Gyro_Y,Gyro_Z
0.0,-8.448,-5.453,10.472,-0.368,-0.443,0.272
3.0,-8.071,-5.227,9.229,-0.368,-0.443,0.272
6.0,-8.071,-5.227,9.229,-0.495,-0.428,0.32
9.0,-8.071,-5.227,9.229,-0.495,-0.428,0.32
12.0,-8.071,-5.227,9.229,-0.495,-0.428,0.32
15.0,-7.945,-4.679,8.157,-0.759,-0.385,0.343
18.0,-7.945,-4.679,8.157,-0.759,-0.385,0.343
21.0,-7.945,-4.679,8.157,-0.759,-0.385,0.343
24.0,-8.009,-5.329,7.905,-1.126,-0.316,0.354
27.0,-8.009,-5.329,7.905,-1.126,-0.316,0.354
30.0,-8.009,-5.329,7.905,-1.126,-0.316,0.354
33.0,-8.195,-6.578,8.317,-1.405,-0.269,0.362
37.0,-8.195,-6.578,8.317,-1.405,-0.269,0.362
40.0,-8.195,-6.578,8.317,-1.405,-0.269,0.362
44.0,-8.259,-7.363,8.478,-1.458,-0.31,0.351
48.0,-8.259,-7.363,8.478,-1.458,-0.31,0.351
52.0,-8.159,-7.662,7.715,-1.458,-0.31,0.351
56.0,-8.159,-7.662,7.715,-1.325,-0.434,0.316
60.0,-8.159,-7.662,7.715,-1.325,-0.434,0.316
63.0,-7.638,-7.872,6.385,-1.122,-0.542,0.31
67.0,-7.638,-7.872,6.385,-1.122,-0.542,0.31
71.0,-7.638,-7.872,6.385,-1.122,-0.542,0.31
75.0,-7.169,-7.969,5.256,-0.942,-0.544,0.372
79.0,-7.169,-7.969,5.256,-0.942,-0.544,0.372
82.0,-7.137,-8.293,4.767,-0.831,-0.451,0.486
86.0,-7.137,-8.293,4.767,-0.831,-0.451,0.486
90.0,-7.137,-8.293,4.767,-0.831,-0.451,0.486
94.0,-7.436,-8.917,4.782,-0.738,-0.335,0.623
98.0,-7.436,-8.917,4.782,-0.738,-0.335,0.623
102.0,-8.002,-9.428,4.988,-0.738,-0.335,0.728
105.0,-8.002,-9.428,4.988,-0.6,-0.246,0.728
109.0,-8.002,-9.428,4.988,-0.6,-0.246,0.728
113.0,-8.326,-9.549,5.005,-0.421,-0.211,0.764
117.0,-8.326,-9.549,5.005,-0.421,-0.211,0.764
121.0,-7.887,-9.446,4.62,-0.421,-0.211,0.764
125.0,-7.887,-9.446,4.62,-0.234,-0.21,0.744
129.0,-7.887,-9.446,4.62,-0.234,-0.21,0.744
133.0,-6.759,-9.331,4.143,-0.042,-0.174,0.732
137.0,-6.759,-9.331,4.143,-0.042,-0.174,0.732
141.0,-6.759,-9.426,3.829,-0.042,-0.174,0.732
145.0,-5.857,-9.426,3.829,0.174,-0.063,0.745
148.0,-5.857,-9.426,3.829,0.174,-0.063,0.745
152.0,-5.166,-9.003,3.701,0.417,0.093,0.713
156.0,-5.166,-9.003,3.701,0.417,0.093,0.713
160.0,-5.166,-9.003,3.701,0.417,0.093,0.713
163.0,-4.912,-8.009,3.693,0.601,0.249,0.588
167.0,-4.912,-8.009,3.693,0.601,0.249,0.588
171.0,-4.746,-6.824,4.044,0.601,0.387,0.387
175.0,-4.746,-6.824,4.044,0.648,0.387,0.387
178.0,-4.746,-6.824,4.044,0.648,0.387,0.387
182.0,-4.139,-5.495,4.388,0.54,0.515,0.172
186.0,-4.139,-5.495,4.388,0.54,0.515,0.172
189.0,-4.139,-5.495,4.388,0.54,0.515,0.172
193.0,-2.972,-4.017,4.658,0.288,0.623,-0.04
197.0,-2.972,-4.017,4.658,0.288,0.623,-0.04
201.0,-2.073,-3.131,4.671,-0.068,0.689,-0.215
205.0,-2.073,-3.131,4.671,-0.068,0.689,-0.215
209.0,-2.073,-3.131,4.671,-0.068,0.689,-0.215
213.0,-1.283,-2.546,4.314,-0.446,0.655,-0.33
216.0,-1.283,-2.546,4.314,-0.446,0.655,-0.33
220.0,-0.753,-2.932,3.875,-0.801,0.597,-0.392
224.0,-0.753,-2.932,3.875,-0.801,0.597,-0.392
228.0,-0.753,-2.932,3.875,-0.801,0.597,-0.392
232.0,-0.202,-3.707,3.417,-1.046,0.546,-0.399
236.0,-0.202,-3.707,3.417,-1.046,0.546,-0.399
240.0,0.112,-4.509,3.089,-1.046,0.527,-0.381
244.0,0.112,-4.509,3.089,-1.172,0.527,-0.381
248.0,0.112,-4.509,3.089,-1.172,0.527,-0.381
251.0,0.571,-5.228,2.861,-1.145,0.479,-0.347
255.0,0.571,-5.228,2.861,-1.145,0.479,-0.347
259.0,0.571,-5.228,2.743,-1.145,0.479,-0.347
263.0,1.165,-5.922,2.743,-1.026,0.431,-0.31
267.0,1.165,-5.922,2.743,-1.026,0.431,-0.31
270.0,1.684,-6.483,2.947,-0.862,0.405,-0.298
274.0,1.684,-6.483,2.947,-0.862,0.405,-0.298
278.0,1.684,-6.483,2.947,-0.862,0.405,-0.298
282.0,2.112,-7.09,3.577,-0.675,0.389,-0.308
286.0,2.112,-7.09,3.577,-0.675,0.389,-0.308
290.0,2.368,-7.857,4.658,-0.478,0.37,-0.348
293.0,2.368,-7.857,4.658,-0.478,0.37,-0.348
297.0,2.368,-7.857,4.658,-0.478,0.37,-0.348
301.0,2.235,-8.807,6.224,-0.29,0.309,-0.441
305.0,2.235,-8.807,6.224,-0.29,0.309,-0.441
309.0,1.731,-9.822,7.823,-0.29,0.309,-0.441
312.0,1.731,-9.822,7.823,-0.124,0.154,-0.611
316.0,1.731,-9.822,7.823,-0.124,0.154,-0.611
320.0,1.238,-10.908,8.829,-0.006,-0.078,-0.877
324.0,1.238,-10.908,8.829,-0.006,-0.078,-0.877
328.0,1.238,-10.908,9.03,-0.006,-0.078,-0.877
332.0,1.058,-11.745,9.03,0.026,-0.339,-1.255
336.0,1.058,-11.745,9.03,0.026,-0.339,-1.255
340.0,1.429,-12.64,9.021,-0.073,-0.61,-1.713
344.0,1.429,-12.64,9.021,-0.073,-0.61,-1.713
348.0,1.429,-13.86,9.189,-0.073,-0.61,-1.713
352.0,2.21,-13.86,9.189,-0.298,-0.877,-2.208
356.0,2.21,-13.86,9.189,-0.298,-0.877,-2.208
360.0,2.661,-15.391,9.611,-0.567,-1.123,-2.704
364.0,2.661,-15.391,9.611,-0.567,-1.123,-2.704
368.0,2.748,-17.074,10.027,-0.567,-1.123,-2.704
372.0,2.748,-17.074,10.027,-0.799,-1.375,-3.21
376.0,2.748,-17.074,10.027,-0.799,-1.375,-3.21
380.0,2.566,-18.784,10.469,-0.932,-1.644,-3.743
384.0,2.566,-18.784,10.469,-0.932,-1.644,-3.743
388.0,2.024,-19.598,10.845,-0.934,-1.945,-4.288
392.0,2.024,-19.598,10.845,-0.934,-1.945,-4.288
396.0,2.024,-19.598,10.845,-0.934,-1.945,-4.288
401.0,1.201,-19.6,10.593,-0.811,-2.273,-4.804
405.0,1.201,-19.6,10.593,-0.811,-2.273,-4.804
409.0,0.329,-19.6,9.821,-0.603,-2.596,-4.993
413.0,0.329,-19.6,9.821,-0.603,-2.596,-4.993
417.0,0.329,-19.6,9.821,-0.603,-2.596,-4.993
421.0,-0.428,-19.6,8.962,-0.359,-2.901,-4.995
425.0,-0.428,-19.6,8.962,-0.359,-2.901,-4.995
429.0,-1.016,-19.6,8.17,-0.138,-3.163,-4.995
433.0,-1.016,-19.6,8.17,-0.138,-3.163,-4.995
437.0,-1.668,-19.6,7.43,-0.138,-3.163,-4.995
441.0,-1.668,-19.6,7.43,0.018,-3.359,-4.995
445.0,-1.668,-19.6,7.43,0.018,-3.359,-4.995
449.0,-2.412,-19.6,6.574,0.096,-3.47,-4.995
453.0,-2.412,-19.6,6.574,0.096,-3.47,-4.995
457.0,-2.72,-19.592,5.925,0.096,-3.493,-4.995
461.0,-2.72,-19.592,5.925,0.107,-3.493,-4.995
465.0,-2.72,-19.592,5.925,0.107,-3.493,-4.995
469.0,-2.629,-18.918,5.537,0.059,-3.435,-4.995
473.0,-2.629,-18.918,5.537,0.059,-3.435,-4.995
477.0,-2.508,-17.907,5.288,-0.015,-3.294,-4.995
481.0,-2.508,-17.907,5.288,-0.015,-3.294,-4.995
485.0,-2.508,-17.907,5.288,-0.015,-3.294,-4.995
489.0,-2.406,-16.999,4.944,-0.069,-3.081,-4.995
493.0,-2.406,-16.999,4.944,-0.069,-3.081,-4.995
497.0,-2.195,-16.052,4.514,-0.066,-2.812,-4.995
501.0,-2.195,-16.052,4.514,-0.066,-2.812,-4.995
506.0,-2.195,-16.052,4.514,-0.066,-2.812,-4.995
510.0,-1.868,-14.827,4.059,0.003,-2.495,-4.995
514.0,-1.868,-14.827,4.059,0.003,-2.495,-4.995
518.0,-1.504,-13.141,3.675,0.113,-2.111,-4.994
522.0,-1.504,-13.141,3.675,0.113,-2.111,-4.994
526.0,-1.504,-11.565,3.278,0.113,-2.111,-4.994
530.0,-1.607,-11.565,3.278,0.287,-1.757,-4.868
534.0,-1.607,-11.565,3.278,0.287,-1.757,-4.868
538.0,-1.615,-10.002,2.858,0.522,-1.506,-4.45
542.0,-1.615,-10.002,2.858,0.522,-1.506,-4.45
546.0,-1.923,-8.487,2.578,0.522,-1.506,-4.45
549.0,-1.923,-8.487,2.578,0.801,-1.266,-4.028
553.0,-1.923,-8.487,2.578,0.801,-1.266,-4.028
557.0,-2.375,-6.963,2.206,1.127,-1.103,-3.641
561.0,-2.375,-6.963,2.206,1.127,-1.103,-3.641
565.0,-2.375,-5.355,1.607,1.127,-1.103,-3.641
569.0,-2.858,-5.355,1.607,1.444,-1.012,-3.251
573.0,-2.858,-5.355,1.607,1.444,-1.012,-3.251
577.0,-3.332,-3.738,0.949,1.725,-0.927,-2.817
581.0,-3.332,-3.738,0.949,1.725,-0.927,-2.817
585.0,-3.332,-3.738,0.328,1.725,-0.927,-2.817
589.0,-3.856,-2.166,0.328,1.95,-0.799,-2.321
592.0,-3.856,-2.166,0.328,1.95,-0.799,-2.321
596.0,-4.554,-0.503,-0.092,2.083,-0.598,-1.767
600.0,-4.554,-0.503,-0.092,2.083,-0.598,-1.767
604.0,-4.554,-0.503,-0.098,2.083,-0.598,-1.767
608.0,-5.51,0.995,-0.098,2.108,-0.31,-1.164
612.0,-5.51,0.995,-0.098,2.108,-0.31,-1.164
616.0,-6.762,2.216,0.492,2.04,0.039,-0.546
620.0,-6.762,2.216,0.492,2.04,0.039,-0.546
624.0,-6.762,2.216,0.492,2.04,0.039,-0.546
627.0,-7.912,3.016,1.348,1.91,0.393,0.046
631.0,-7.912,3.016,1.348,1.91,0.393,0.046
635.0,-8.373,3.426,2.265,1.91,0.393,0.576
638.0,-8.373,3.426,2.265,1.74,0.718,0.576
642.0,-8.373,3.426,2.265,1.74,0.718,0.576
646.0,-8.201,3.592,3.03,1.545,1.007,1.038
649.0,-8.201,3.592,3.03,1.545,1.007,1.038
653.0,-8.201,3.592,3.03,1.545,1.007,1.038
656.0,-7.993,3.653,3.229,1.334,1.284,1.457
660.0,-7.993,3.653,3.229,1.334,1.284,1.457
664.0,-7.993,3.666,2.868,1.334,1.284,1.457
667.0,-7.874,3.666,2.868,1.114,1.595,1.89
671.0,-7.874,3.666,2.868,1.114,1.595,1.89
675.0,-7.651,3.433,2.496,0.872,1.975,2.38
678.0,-7.651,3.433,2.496,0.872,1.975,2.38
682.0,-7.651,3.433,2.496,0.872,1.975,2.38
686.0,-7.464,2.977,2.734,0.594,2.421,2.901
689.0,-7.464,2.977,2.734,0.594,2.421,2.901
693.0,-7.464,2.977,2.734,0.594,2.421,2.901
697.0,-7.476,2.224,3.559,0.277,2.877,3.402
700.0,-7.476,2.224,3.559,0.277,2.877,3.402
704.0,-8.066,1.28,4.709,0.277,3.289,3.842
708.0,-8.066,1.28,4.709,-0.065,3.289,3.842
711.0,-8.066,1.28,4.709,-0.065,3.289,3.842
715.0,-9.016,0.337,5.734,-0.421,3.625,4.213
719.0,-9.016,0.337,5.734,-0.421,3.625,4.213
722.0,-9.016,0.337,5.734,-0.421,3.625,4.213
726.0,-9.904,-0.471,6.416,-0.772,3.882,4.544
730.0,-9.904,-0.471,6.416,-0.772,3.882,4.544
734.0,-10.718,-1.33,6.8,-1.095,4.085,4.864
738.0,-10.718,-1.33,6.8,-1.095,4.085,4.864
742.0,-10.718,-1.33,6.8,-1.095,4.085,4.864
746.0,-11.422,-2.297,6.553,-1.373,4.243,5.009
749.0,-11.422,-2.297,6.553,-1.373,4.243,5.009
753.0,-11.813,-3.09,5.783,-1.583,4.387,5.013
757.0,-11.813,-3.09,5.783,-1.583,4.387,5.013
761.0,-11.813,-3.09,5.783,-1.583,4.387,5.013
765.0,-12.09,-3.887,5.197,-1.715,4.527,5.013
769.0,-12.09,-3.887,5.197,-1.715,4.527,5.013
773.0,-12.637,-5.026,5.09,-1.715,4.659,5.013
777.0,-12.637,-5.026,5.09,-1.77,4.659,5.013
781.0,-12.637,-5.026,5.09,-1.77,4.659,5.013
785.0,-14.62,-7.15,6.175,-1.773,4.776,5.013
789.0,-14.62,-7.15,6.175,-1.773,4.776,5.013
792.0,-18.186,-9.355,7.277,-1.773,4.776,5.013
796.0,-18.186,-9.355,7.277,-1.789,4.727,5.013
800.0,-18.186,-9.355,7.277,-1.789,4.727,5.013
804.0,-19.494,-11.044,8.064,-1.782,4.379,5.013
808.0,-19.494,-11.044,8.064,-1.782,4.379,5.013
812.0,-17.478,-11.466,8.085,-1.782,4.379,5.013
816.0,-17.478,-11.466,8.085,-1.669,3.856,5.013
820.0,-17.478,-11.466,8.085,-1.669,3.856,5.013
824.0,-15.46,-10.485,7.628,-1.462,3.424,5.013
828.0,-15.46,-10.485,7.628,-1.462,3.424,5.013
832.0,-15.19,-9.431,7.139,-1.462,3.119,5.013
836.0,-15.19,-9.431,7.139,-1.22,3.119,5.013
840.0,-15.19,-9.431,7.139,-1.22,3.119,5.013
844.0,-14.646,-8.878,7.165,-0.97,2.873,5.013
848.0,-14.646,-8.878,7.165,-0.97,2.873,5.013
852.0,-13.251,-8.329,7.44,-0.97,2.873,5.013
856.0,-13.251,-8.329,7.44,-0.708,2.678,5.013
859.0,-13.251,-8.329,7.44,-0.708,2.678,5.013
863.0,-12.05,-7.656,7.5,-0.459,2.56,5.013
867.0,-12.05,-7.656,7.5,-0.459,2.56,5.013
871.0,-11.357,-6.955,7.375,-0.459,2.56,5.013
875.0,-11.357,-6.955,7.375,-0.245,2.52,5.013
879.0,-11.357,-6.955,7.375,-0.245,2.52,5.013
883.0,-11.326,-5.989,7.201,-0.062,2.539,5.013
887.0,-11.326,-5.989,7.201,-0.062,2.539,5.013
891.0,-11.326,-5.989,7.06,-0.062,2.539,5.013
895.0,-12.106,-4.994,7.06,0.103,2.594,5.013
898.0,-12.106,-4.994,7.06,0.103,2.594,5.013
902.0,-13.638,-4.28,7.399,0.257,2.637,5.013
906.0,-13.638,-4.28,7.399,0.257,2.637,5.013
910.0,-13.638,-4.28,7.399,0.257,2.637,5.013
914.0,-15.163,-3.49,7.812,0.409,2.572,5.013
918.0,-15.163,-3.49,7.812,0.409,2.572,5.013
921.0,-16.28,-2.831,8.193,0.533,2.379,5.013
925.0,-16.28,-2.831,8.193,0.533,2.379,5.013
929.0,-16.28,-2.831,8.193,0.533,2.379,5.013
933.0,-16.485,-2.487,8.352,0.608,2.134,5.013
937.0,-16.485,-2.487,8.352,0.608,2.134,5.013
940.0,-16.071,-2.251,8.258,0.608,2.134,5.013
944.0,-16.071,-2.251,8.258,0.66,1.946,5.013
948.0,-16.071,-2.251,8.258,0.66,1.946,5.013
952.0,-15.827,-1.821,8.214,0.673,1.872,5.013
956.0,-15.827,-1.821,8.214,0.673,1.872,5.013
960.0,-15.827,-1.821,8.214,0.673,1.872,5.013
963.0,-15.895,-1.219,8.606,0.655,1.905,5.013
967.0,-15.895,-1.219,8.606,0.655,1.905,5.013
971.0,-16.168,-0.553,9.187,0.629,1.991,5.013
975.0,-16.168,-0.553,9.187,0.629,1.991,5.013
979.0,-16.168,-0.553,9.187,0.629,1.991,5.013
982.0,-16.551,-0.086,9.808,0.575,2.104,5.013
986.0,-16.551,-0.086,9.808,0.575,2.104,5.013
990.0,-17.246,0.028,10.946,0.575,2.242,5.013
994.0,-17.246,0.028,10.946,0.528,2.242,5.013
998.0,-17.246,0.028,10.946,0.528,2.242,5.013
1002.0,-18.619,0.074,11.884,0.537,2.359,5.013
1005.0,-18.619,0.074,11.884,0.537,2.359,5.013
1009.0,-19.583,-0.433,12.437,0.537,2.359,5.013
1013.0,-19.583,-0.433,12.437,0.61,2.392,5.013
1017.0,-19.583,-0.433,12.437,0.61,2.392,5.013
1021.0,-19.6,-1.175,12.733,0.754,2.336,5.013
1025.0,-19.6,-1.175,12.733,0.754,2.336,5.013
1029.0,-19.6,-1.539,13.001,0.754,2.336,5.013
1033.0,-19.6,-1.539,13.001,0.948,2.235,5.013
1037.0,-19.6,-1.539,13.001,0.948,2.235,5.013
1041.0,-19.585,-1.573,13.525,1.145,2.131,5.013
1045.0,-19.585,-1.573,13.525,1.145,2.131,5.013
1049.0,-19.194,-1.245,14.09,1.145,2.021,5.013
1053.0,-19.194,-1.245,14.09,1.293,2.021,5.013
1057.0,-19.194,-1.245,14.09,1.293,2.021,5.013
1061.0,-18.369,-0.381,14.706,1.339,1.906,5.013
1065.0,-18.369,-0.381,14.706,1.339,1.906,5.013
1069.0,-17.492,0.427,15.502,1.274,1.756,5.013
1073.0,-17.492,0.427,15.502,1.274,1.756,5.013
1077.0,-17.492,0.427,15.502,1.274,1.756,5.013
1081.0,-16.411,0.907,15.88,1.133,1.516,4.963
1085.0,-16.411,0.907,15.88,1.133,1.516,4.963
1089.0,-15.127,0.868,15.292,1.133,1.179,4.642
1093.0,-15.127,0.868,15.292,0.929,1.179,4.642
1097.0,-15.127,0.868,15.292,0.929,1.179,4.642
1100.0,-13.357,0.221,14.046,0.661,0.822,4.211
1104.0,-13.357,0.221,14.046,0.661,0.822,4.211
1108.0,-11.232,-0.676,12.676,0.661,0.822,3.754
1112.0,-11.232,-0.676,12.676,0.319,0.518,3.754
1116.0,-11.232,-0.676,12.676,0.319,0.518,3.754
1120.0,-8.967,-1.312,11.474,-0.096,0.29,3.266
1124.0,-8.967,-1.312,11.474,-0.096,0.29,3.266
1128.0,-7.013,-1.539,10.63,-0.096,0.1,2.756
1132.0,-7.013,-1.539,10.63,-0.557,0.1,2.756
1136.0,-7.013,-1.539,10.63,-0.557,0.1,2.756
1140.0,-5.465,-1.552,10.06,-1.02,-0.128,2.243
1144.0,-5.465,-1.552,10.06,-1.02,-0.128,2.243
1148.0,-4.132,-2.101,9.075,-1.444,-0.426,1.751
1152.0,-4.132,-2.101,9.075,-1.444,-0.426,1.751
1156.0,-4.132,-2.101,9.075,-1.444,-0.426,1.751
1160.0,-2.7,-3.24,7.432,-1.796,-0.711,1.273
1164.0,-2.7,-3.24,7.432,-1.796,-0.711,1.273
1168.0,-1.28,-4.517,5.508,-2.084,-0.855,0.818
1172.0,-1.28,-4.517,5.508,-2.084,-0.855,0.818
1176.0,-1.28,-4.517,5.508,-2.084,-0.855,0.818
1180.0,-0.009,-5.602,4.039,-2.323,-0.812,0.415
1184.0,-0.009,-5.602,4.039,-2.323,-0.812,0.415
1188.0,1.055,-6.305,3.308,-2.512,-0.677,0.069
1192.0,1.055,-6.305,3.308,-2.512,-0.677,0.069
1196.0,1.055,-6.305,3.308,-2.512,-0.677,0.069
1200.0,2.027,-7.04,2.898,-2.613,-0.577,-0.224
1204.0,2.027,-7.04,2.898,-2.613,-0.577,-0.224
1208.0,3.039,-8.032,2.409,-2.578,-0.544,-0.501
1212.0,3.039,-8.032,2.409,-2.578,-0.544,-0.501
1216.0,3.039,-8.032,2.409,-2.578,-0.544,-0.501
1220.0,3.79,-9.148,1.627,-2.377,-0.523,-0.777
1224.0,3.79,-9.148,1.627,-2.377,-0.523,-0.777
1228.0,3.824,-10.101,1.018,-2.021,-0.444,-1.038
1232.0,3.824,-10.101,1.018,-2.021,-0.444,-1.038
1236.0,3.824,-10.737,0.964,-2.021,-0.444,-1.038
1240.0,2.632,-10.737,0.964,-1.548,-0.315,-1.291
1244.0,2.632,-10.737,0.964,-1.548,-0.315,-1.291
1248.0,0.146,-11.069,1.152,-1.012,-0.215,-1.555
1252.0,0.146,-11.069,1.152,-1.012,-0.215,-1.555
1257.0,-3.081,-11.368,1.351,-1.012,-0.186,-1.827
1261.0,-3.081,-11.368,1.351,-0.453,-0.186,-1.827
1265.0,-3.081,-11.368,1.351,-0.453,-0.186,-1.827
1269.0,-6.716,-11.738,1.5,0.113,-0.222,-2.089
1273.0,-6.716,-11.738,1.5,0.113,-0.222,-2.089
1277.0,-10.557,-12.008,1.715,0.655,-0.309,-2.32
1281.0,-10.557,-12.008,1.715,0.655,-0.309,-2.32
1286.0,-10.557,-11.967,1.785,0.655,-0.309,-2.32
1290.0,-13.828,-11.967,1.785,1.134,-0.436,-2.511
1294.0,-13.828,-11.967,1.785,1.134,-0.436,-2.511
1298.0,-15.534,-11.368,1.68,1.492,-0.598,-2.671
1302.0,-15.534,-11.368,1.68,1.492,-0.598,-2.671
1306.0,-15.644,-10.312,1.455,1.684,-0.767,-2.835
1311.0,-15.644,-10.312,1.455,1.684,-0.767,-2.835
1315.0,-15.644,-10.312,1.455,1.684,-0.767,-2.835
1319.0,-15.28,-9.196,1.306,1.704,-0.913,-3.07
1323.0,-15.28,-9.196,1.306,1.704,-0.913,-3.07
1327.0,-15.075,-8.07,1.169,1.566,-1.043,-3.429
1331.0,-15.075,-8.07,1.169,1.566,-1.043,-3.429
1335.0,-14.977,-6.767,1.094,1.566,-1.043,-3.429
1339.0,-14.977,-6.767,1.094,1.287,-1.163,-3.886
1343.0,-14.977,-6.767,1.094,1.287,-1.163,-3.886
1347.0,-14.833,-5.562,1.2,0.888,-1.259,-4.357
1352.0,-14.833,-5.562,1.2,0.888,-1.259,-4.357
1356.0,-14.605,-4.803,1.553,0.408,-1.316,-4.775
1360.0,-14.605,-4.803,1.553,0.408,-1.316,-4.775
1364.0,-14.605,-4.803,1.553,0.408,-1.316,-4.775
1368.0,-14.305,-4.711,2.027,-0.094,-1.339,-4.984
1372.0,-14.305,-4.711,2.027,-0.094,-1.339,-4.984
1376.0,-14.053,-5.178,2.507,-0.554,-1.333,-4.995
1380.0,-14.053,-5.178,2.507,-0.554,-1.333,-4.995
1385.0,-14.111,-5.863,3.002,-0.554,-1.333,-4.995
1389.0,-14.111,-5.863,3.002,-0.92,-1.302,-4.995
1393.0,-14.111,-5.863,3.002,-0.92,-1.302,-4.995
1397.0,-14.567,-6.572,3.486,-1.181,-1.271,-4.995
1401.0,-14.567,-6.572,3.486,-1.181,-1.271,-4.995
1405.0,-15.153,-7.022,4.018,-1.341,-1.262,-4.995
1410.0,-15.153,-7.022,4.018,-1.341,-1.262,-4.995
1414.0,-15.153,-7.022,4.807,-1.341,-1.262,-4.995
1418.0,-15.89,-7.49,4.807,-1.408,-1.283,-4.995
1422.0,-15.89,-7.49,4.807,-1.408,-1.283,-4.995
1426.0,-16.792,-8.268,5.896,-1.396,-1.352,-4.995
1430.0,-16.792,-8.268,5.896,-1.396,-1.352,-4.995
1435.0,-17.597,-9.142,7.055,-1.314,-1.508,-4.995
1439.0,-17.597,-9.142,7.055,-1.314,-1.508,-4.995
1443.0,-17.597,-9.142,7.055,-1.314,-1.508,-4.995
1447.0,-17.838,-9.857,8.157,-1.185,-1.743,-4.995
1451.0,-17.838,-9.857,8.157,-1.185,-1.743,-4.995
1455.0,-17.719,-10.268,9.071,-1.05,-2.014,-4.995
1460.0,-17.719,-10.268,9.071,-1.05,-2.014,-4.995
1464.0,-17.763,-10.541,10.003,-1.05,-2.284,-4.995
1468.0,-17.763,-10.541,10.003,-0.96,-2.284,-4.995
1473.0,-17.763,-10.541,10.003,-0.96,-2.284,-4.995
1477.0,-18.29,-10.879,11.384,-0.954,-2.534,-4.995
1481.0,-18.29,-10.879,11.384,-0.954,-2.534,-4.995
1486.0,-19.016,-11.313,12.726,-1.046,-2.775,-4.995
1490.0,-19.016,-11.313,12.726,-1.046,-2.775,-4.995
1494.0,-19.442,-11.941,14.189,-1.223,-2.998,-4.995
1499.0,-19.442,-11.941,14.189,-1.223,-2.998,-4.995
1503.0,-19.6,-12.672,15.132,-1.223,-2.998,-4.995
1507.0,-19.6,-12.672,15.132,-1.377,-3.209,-4.995
1512.0,-19.6,-12.672,15.132,-1.377,-3.209,-4.995
1516.0,-19.6,-13.473,15.879,-1.578,-3.419,-4.995
1520.0,-19.6,-13.473,15.879,-1.578,-3.419,-4.995
1525.0,-19.6,-14.48,16.577,-1.786,-3.622,-4.995
1529.0,-19.6,-14.48,16.577,-1.786,-3.622,-4.995
1533.0,-19.6,-15.72,16.798,-1.97,-3.827,-4.995
1538.0,-19.6,-15.72,16.798,-1.97,-3.827,-4.995
1542.0,-19.6,-15.72,16.596,-1.97,-3.827,-4.995
1546.0,-19.6,-16.895,16.596,-2.067,-4.007,-4.995
1551.0,-19.6,-16.895,16.596,-2.067,-4.007,-4.995
1555.0,-19.354,-17.397,16.131,-2.025,-4.159,-4.995
1559.0,-19.354,-17.397,16.131,-2.025,-4.159,-4.995
1564.0,-17.808,-17.2,15.642,-1.865,-4.262,-4.995
1568.0,-17.808,-17.2,15.642,-1.865,-4.262,-4.995
1572.0,-16.503,-17.032,15.208,-1.865,-4.301,-4.995
1577.0,-16.503,-17.032,15.208,-1.657,-4.301,-4.995
1581.0,-16.503,-17.032,15.208,-1.657,-4.301,-4.995
1585.0,-15.412,-16.629,14.62,-1.43,-4.3,-4.995
1590.0,-15.412,-16.629,14.62,-1.43,-4.3,-4.995
1594.0,-14.12,-15.65,13.685,-1.172,-4.271,-4.995
1598.0,-14.12,-15.65,13.685,-1.172,-4.271,-4.995
1603.0,-12.428,-13.949,12.394,-0.852,-4.19,-4.995
1607.0,-12.428,-13.949,12.394,-0.852,-4.19,-4.995
1611.0,-10.962,-12.074,11.04,-0.852,-4.19,-4.995
1616.0,-10.962,-12.074,11.04,-0.482,-4.058,-4.995
1620.0,-10.962,-12.074,11.04,-0.482,-4.058,-4.995
1624.0,-10.088,-10.292,9.821,-0.11,-3.884,-4.995
1629.0,-10.088,-10.292,9.821,-0.11,-3.884,-4.995
1633.0,-9.346,-8.763,8.931,0.22,-3.688,-4.995
1637.0,-9.346,-8.763,8.931,0.22,-3.688,-4.995
1641.0,-9.346,-7.425,8.302,0.22,-3.688,-4.995
1645.0,-8.789,-7.425,8.302,0.505,-3.48,-4.995
1649.0,-8.789,-7.425,8.302,0.505,-3.48,-4.995
1653.0,-8.511,-6.182,7.665,0.751,-3.266,-4.995
1657.0,-8.511,-6.182,7.665,0.751,-3.266,-4.995
1661.0,-8.433,-5.146,6.953,0.751,-3.266,-4.995
1665.0,-8.433,-5.146,6.953,0.958,-3.029,-4.87
1669.0,-8.433,-5.146,6.953,0.958,-3.029,-4.87
1673.0,-8.449,-4.3,6.122,1.145,-2.754,-4.273
1677.0,-8.449,-4.3,6.122,1.145,-2.754,-4.273
1681.0,-8.517,-3.517,5.111,1.145,-2.754,-3.562
1685.0,-8.517,-3.517,5.111,1.288,-2.441,-3.562
1689.0,-8.517,-3.517,5.111,1.288,-2.441,-3.562
1693.0,-8.553,-2.719,4.357,1.391,-2.094,-2.92
1697.0,-8.553,-2.719,4.357,1.391,-2.094,-2.92
1701.0,-8.799,-1.716,3.555,1.5,-1.741,-2.406
1705.0,-8.799,-1.716,3.555,1.5,-1.741,-2.406
1709.0,-8.799,-1.716,3.555,1.5,-1.741,-2.406
1713.0,-9.097,-0.537,2.681,1.598,-1.398,-1.997
1717.0,-9.097,-0.537,2.681,1.598,-1.398,-1.997
1721.0,-9.196,0.591,1.691,1.671,-1.063,-1.624
1725.0,-9.196,0.591,1.691,1.671,-1.063,-1.624
1729.0,-9.196,0.591,1.691,1.671,-1.063,-1.624
1733.0,-8.917,1.492,0.695,1.699,-0.723,-1.223
1736.0,-8.917,1.492,0.695,1.699,-0.723,-1.223
1740.0,-8.275,1.956,-0.013,1.668,-0.363,-0.772
1744.0,-8.275,1.956,-0.013,1.668,-0.363,-0.772
1748.0,-8.275,1.956,-0.013,1.668,-0.363,-0.772
1752.0,-7.568,2.118,-0.4,1.581,0.019,-0.298
1756.0,-7.568,2.118,-0.4,1.581,0.019,-0.298
1760.0,-6.909,2.051,-0.583,1.454,0.415,0.167
1764.0,-6.909,2.051,-0.583,1.454,0.415,0.167
1768.0,-6.909,2.051,-0.583,1.454,0.415,0.167
1772.0,-6.284,1.912,-0.654,1.307,0.819,0.603
1775.0,-6.284,1.912,-0.654,1.307,0.819,0.603
1779.0,-5.791,1.933,-0.541,1.307,0.819,0.603
1783.0,-5.791,1.933,-0.541,1.148,1.22,1.011
1787.0,-5.791,1.933,-0.541,1.148,1.22,1.011
1791.0,-5.402,1.967,-0.346,0.98,1.605,1.417
1794.0,-5.402,1.967,-0.346,0.98,1.605,1.417
1798.0,-5.402,1.967,-0.346,0.98,1.605,1.417
1802.0,-5.119,1.93,-0.146,0.811,1.972,1.836
1806.0,-5.119,1.93,-0.146,0.811,1.972,1.836
1810.0,-4.911,1.826,0.005,0.645,2.326,2.263
1814.0,-4.911,1.826,0.005,0.645,2.326,2.263
1817.0,-4.911,1.826,0.005,0.645,2.326,2.263
1821.0,-4.893,1.606,0.191,0.489,2.672,2.697
1825.0,-4.893,1.606,0.191,0.489,2.672,2.697
1828.0,-4.893,1.276,0.389,0.489,2.672,2.697
1832.0,-5.103,1.276,0.389,0.346,3.001,3.126
1836.0,-5.103,1.276,0.389,0.346,3.001,3.126
1840.0,-5.524,0.96,0.642,0.216,3.312,3.544
1843.0,-5.524,0.96,0.642,0.216,3.312,3.544
1847.0,-5.524,0.96,0.642,0.216,3.312,3.544
1851.0,-6.021,0.644,1.019,0.09,3.6,3.948
1855.0,-6.021,0.644,1.019,0.09,3.6,3.948
1858.0,-6.665,0.189,1.555,0.09,3.6,3.948
1862.0,-6.665,0.189,1.555,-0.043,3.856,4.337
1866.0,-6.665,0.189,1.555,-0.043,3.856,4.337
1870.0,-7.5,-0.258,2.174,-0.185,4.058,4.701
1874.0,-7.5,-0.258,2.174,-0.185,4.058,4.701
1877.0,-7.5,-0.258,2.174,-0.185,4.058,4.701
1881.0,-8.514,-0.653,2.851,-0.329,4.195,4.97
1885.0,-8.514,-0.653,2.851,-0.329,4.195,4.97
1889.0,-9.437,-1.185,3.515,-0.467,4.266,5.013
1893.0,-9.437,-1.185,3.515,-0.467,4.266,5.013
1897.0,-9.437,-1.185,3.515,-0.467,4.266,5.013
1901.0,-10.173,-1.938,4.027,-0.585,4.287,5.013
1905.0,-10.173,-1.938,4.027,-0.585,4.287,5.013
1909.0,-10.831,-2.804,4.421,-0.675,4.274,5.013
1913.0,-10.831,-2.804,4.421,-0.675,4.274,5.013
1917.0,-10.831,-2.804,4.421,-0.675,4.274,5.013
1921.0,-11.398,-3.435,4.671,-0.728,4.253,5.013
1925.0,-11.398,-3.435,4.671,-0.728,4.253,5.013
1929.0,-11.856,-3.883,5.041,-0.743,4.244,5.013
1933.0,-11.856,-3.883,5.041,-0.743,4.244,5.013
1937.0,-11.856,-3.883,5.523,-0.743,4.244,5.013
1941.0,-12.476,-4.314,5.523,-0.731,4.238,5.013
1945.0,-12.476,-4.314,5.523,-0.731,4.238,5.013
1949.0,-13.446,-4.743,6.251,-0.711,4.227,5.013
1953.0,-13.446,-4.743,6.251,-0.711,4.227,5.013
1957.0,-14.593,-5.154,7.061,-0.711,4.227,5.013
1961.0,-14.593,-5.154,7.061,-0.698,4.181,5.013
1965.0,-14.593,-5.154,7.061,-0.698,4.181,5.013
1969.0,-15.813,-5.762,8.018,-0.69,4.077,5.013
1973.0,-15.813,-5.762,8.018,-0.69,4.077,5.013
1977.0,-17.082,-6.165,8.937,-0.69,4.077,5.013
1981.0,-17.082,-6.165,8.937,-0.676,3.898,5.013
1985.0,-17.082,-6.165,8.937,-0.676,3.898,5.013
1989.0,-17.703,-6.169,9.465,-0.639,3.674,5.013
1993.0,-17.703,-6.169,9.465,-0.639,3.674,5.013
1997.0,-17.698,-6.121,9.805,-0.639,3.448,5.013
2001.0,-17.698,-6.121,9.805,-0.573,3.448,5.013
2005.0,-17.698,-6.121,9.805,-0.573,3.448,5.013
2009.0,-17.371,-6.2,10.294,-0.476,3.239,5.013
2013.0,-17.371,-6.2,10.294,-0.476,3.239,5.013
2017.0,-17.49,-5.989,10.244,-0.352,3.021,5.013
2021.0,-17.49,-5.989,10.244,-0.352,3.021,5.013
2025.0,-17.49,-5.989,10.244,-0.352,3.021,5.013
2029.0,-18.089,-5.658,10.46,-0.256,2.805,5.013
2033.0,-18.089,-5.658,10.46,-0.256,2.805,5.013
2037.0,-18.541,-5.486,10.954,-0.218,2.584,5.013
2041.0,-18.541,-5.486,10.954,-0.218,2.584,5.013
2045.0,-18.541,-5.486,11.57,-0.218,2.584,5.013
2050.0,-18.632,-5.084,11.57,-0.2,2.384,5.013
2054.0,-18.632,-5.084,11.57,-0.2,2.384,5.013
2058.0,-18.549,-4.625,12.077,-0.192,2.213,5.013
2062.0,-18.549,-4.625,12.077,-0.192,2.213,5.013
2066.0,-18.565,-4.278,12.415,-0.192,2.086,5.013
2070.0,-18.565,-4.278,12.415,-0.177,2.086,5.013
2074.0,-18.565,-4.278,12.415,-0.177,2.086,5.013
2078.0,-18.505,-4.105,12.897,-0.128,1.993,5.013
2082.0,-18.505,-4.105,12.897,-0.128,1.993,5.013
2086.0,-18.717,-3.961,13.318,-0.042,1.897,5.013
2090.0,-18.717,-3.961,13.318,-0.042,1.897,5.013
2094.0,-18.717,-3.961,13.318,-0.042,1.897,5.013
2098.0,-19.152,-3.806,13.686,0.069,1.809,5.013
2102.0,-19.152,-3.806,13.686,0.069,1.809,5.013
2106.0,-19.569,-3.566,13.92,0.194,1.737,5.013
2110.0,-19.569,-3.566,13.92,0.194,1.737,5.013
2114.0,-19.569,-3.566,14.064,0.194,1.737,5.013
2118.0,-19.6,-3.25,14.064,0.325,1.68,5.013
2122.0,-19.6,-3.25,14.064,0.325,1.68,5.013
2126.0,-19.6,-2.927,14.334,0.472,1.629,5.013
2130.0,-19.6,-2.927,14.334,0.472,1.629,5.013
2134.0,-19.6,-2.754,14.7,0.472,1.629,5.013
2138.0,-19.6,-2.754,14.7,0.641,1.563,5.013
2142.0,-19.6,-2.754,14.7,0.641,1.563,5.013
2146.0,-19.6,-2.637,15.042,0.819,1.465,5.013
2150.0,-19.6,-2.637,15.042,0.819,1.465,5.013
2154.0,-19.586,-2.298,15.025,0.819,1.465,5.013
2158.0,-19.586,-2.298,15.025,0.983,1.337,5.013
2162.0,-19.586,-2.298,15.025,0.983,1.337,5.013
2166.0,-18.986,-1.583,14.618,1.094,1.2,5.013
2170.0,-18.986,-1.583,14.618,1.094,1.2,5.013
2174.0,-17.452,-0.712,13.842,1.094,1.2,5.013
2178.0,-17.452,-0.712,13.842,1.038,1.032,5.013
2182.0,-17.452,-0.712,13.842,1.038,1.032,5.013
2186.0,-17.221,-0.59,13.427,0.772,0.873,5.012
2190.0,-17.221,-0.59,13.427,0.772,0.873,5.012
2194.0,-16.379,-0.615,12.841,0.509,0.785,4.962
2198.0,-16.379,-0.615,12.841,0.509,0.785,4.962
2202.0,-16.379,-0.615,12.841,0.509,0.785,4.962
2206.0,-16.077,-0.272,11.995,0.206,0.667,4.75
2210.0,-16.077,-0.272,11.995,0.206,0.667,4.75
2214.0,-15.472,-0.416,11.559,-0.205,0.543,4.498
2218.0,-15.472,-0.416,11.559,-0.205,0.543,4.498
2222.0,-15.472,-0.416,11.559,-0.205,0.543,4.498
2227.0,-14.093,-1.073,11.088,-0.643,0.415,4.256
2231.0,-14.093,-1.073,11.088,-0.643,0.415,4.256
2235.0,-12.208,-1.857,10.557,-1.045,0.242,3.994
2239.0,-12.208,-1.857,10.557,-1.045,0.242,3.994
2243.0,-12.208,-1.857,9.818,-1.045,0.242,3.994
2247.0,-10.606,-2.666,9.818,-1.382,-0.004,3.659
2251.0,-10.606,-2.666,9.818,-1.382,-0.004,3.659
2255.0,-9.044,-3.517,8.782,-1.639,-0.293,3.263
2259.0,-9.044,-3.517,8.782,-1.639,-0.293,3.263
2263.0,-7.759,-4.385,7.663,-1.639,-0.293,3.263
2267.0,-7.759,-4.385,7.663,-1.815,-0.568,2.819
2271.0,-7.759,-4.385,7.663,-1.815,-0.568,2.819
2275.0,-6.569,-5.091,6.62,-1.916,-0.799,2.356
2279.0,-6.569,-5.091,6.62,-1.916,-0.799,2.356
2283.0,-5.154,-5.607,6.01,-1.916,-0.799,1.893
2287.0,-5.154,-5.607,6.01,-1.942,-0.968,1.893
2291.0,-5.154,-5.607,6.01,-1.942,-0.968,1.893
2295.0,-3.607,-5.956,5.714,-1.882,-1.087,1.413
2299.0,-3.607,-5.956,5.714,-1.882,-1.087,1.413
2303.0,-2.232,-6.138,5.621,-1.725,-1.195,0.904
2307.0,-2.232,-6.138,5.621,-1.725,-1.195,0.904
2311.0,-2.232,-6.138,5.621,-1.725,-1.195,0.904
2315.0,-1.283,-6.288,5.426,-1.48,-1.321,0.39
2319.0,-1.283,-6.288,5.426,-1.48,-1.321,0.39
2323.0,-0.813,-6.446,4.889,-1.173,-1.449,-0.071
2327.0,-0.813,-6.446,4.889,-1.173,-1.449,-0.071
2331.0,-0.813,-6.446,4.889,-1.173,-1.449,-0.071
2335.0,-0.918,-6.705,4.077,-0.842,-1.53,-0.43
2339.0,-0.918,-6.705,4.077,-0.842,-1.53,-0.43
2343.0,-1.524,-6.93,3.268,-0.523,-1.55,-0.693
2347.0,-1.524,-6.93,3.268,-0.523,-1.55,-0.693
2351.0,-1.524,-6.93,2.566,-0.523,-1.55,-0.693
2356.0,-2.28,-6.976,2.566,-0.253,-1.545,-0.9
2360.0,-2.28,-6.976,2.566,-0.253,-1.545,-0.9
2364.0,-2.722,-6.977,2.046,-0.052,-1.535,-1.095
2368.0,-2.722,-6.977,2.046,-0.052,-1.535,-1.095
2372.0,-3.184,-6.705,1.485,-0.052,-1.526,-1.293
2376.0,-3.184,-6.705,1.485,0.084,-1.526,-1.293
2380.0,-3.184,-6.705,1.485,0.084,-1.526,-1.293
2384.0,-3.584,-6.275,0.958,0.147,-1.516,-1.488
2388.0,-3.584,-6.275,0.958,0.147,-1.516,-1.488
2392.0,-3.902,-5.822,0.509,0.144,-1.485,-1.686
2396.0,-3.902,-5.822,0.509,0.144,-1.485,-1.686
2400.0,-3.902,-5.822,0.509,0.144,-1.485,-1.686
2404.0,-4.227,-5.389,0.327,0.09,-1.428,-1.889
2408.0,-4.227,-5.389,0.327,0.09,-1.428,-1.889
2412.0,-4.44,-5.134,0.346,0.0,-1.359,-2.095
2416.0,-4.44,-5.134,0.346,0.0,-1.359,-2.095
2420.0,-4.44,-5.134,0.346,0.0,-1.359,-2.095
2424.0,-4.529,-5.134,0.443,-0.107,-1.281,-2.31
2428.0,-4.529,-5.134,0.443,-0.107,-1.281,-2.31
2432.0,-4.447,-5.239,0.58,-0.215,-1.188,-2.541
2436.0,-4.447,-5.239,0.58,-0.215,-1.188,-2.541
2440.0,-4.447,-5.239,0.745,-0.215,-1.188,-2.541
2444.0,-4.358,-5.339,0.745,-0.319,-1.074,-2.779
2448.0,-4.358,-5.339,0.745,-0.319,-1.074,-2.779
2452.0,-4.397,-5.477,0.873,-0.412,-0.937,-3.006
2456.0,-4.397,-5.477,0.873,-0.412,-0.937,-3.006
2461.0,-4.608,-5.617,0.919,-0.412,-0.937,-3.209
2465.0,-4.608,-5.617,0.919,-0.488,-0.786,-3.209
2469.0,-4.608,-5.617,0.919,-0.488,-0.786,-3.209
2473.0,-4.92,-5.799,0.928,-0.543,-0.627,-3.385
2477.0,-4.92,-5.799,0.928,-0.543,-0.627,-3.385
2481.0,-5.297,-6.029,0.985,-0.571,-0.466,-3.537
2485.0,-5.297,-6.029,0.985,-0.571,-0.466,-3.537
2489.0,-5.297,-6.029,0.985,-0.571,-0.466,-3.537
2493.0,-5.676,-6.24,1.082,-0.555,-0.312,-3.673
2497.0,-5.676,-6.24,1.082,-0.555,-0.312,-3.673
2501.0,-6.149,-6.544,1.205,-0.492,-0.177,-3.791
2505.0,-6.149,-6.544,1.205,-0.492,-0.177,-3.791
2510.0,-6.149,-6.909,1.308,-0.492,-0.177,-3.791
2514.0,-6.808,-6.909,1.308,-0.389,-0.069,-3.902
2518.0,-6.808,-6.909,1.308,-0.389,-0.069,-3.902
2522.0,-7.627,-7.259,1.32,-0.251,0.014,-4.016
2526.0,-7.627,-7.259,1.32,-0.251,0.014,-4.016
2530.0,-8.465,-7.564,1.449,-0.251,0.078,-4.136
2534.0,-8.465,-7.564,1.449,-0.084,0.078,-4.136
2538.0,-8.465,-7.564,1.449,-0.084,0.078,-4.136
2542.0,-9.349,-7.822,1.685,0.091,0.123,-4.255
2546.0,-9.349,-7.822,1.685,0.091,0.123,-4.255
2550.0,-10.369,-8.033,1.953,0.091,0.149,-4.369
2554.0,-10.369,-8.033,1.953,0.244,0.149,-4.369
2558.0,-10.369,-8.033,1.953,0.244,0.149,-4.369
2562.0,-11.507,-8.211,2.256,0.35,0.16,-4.48
2565.0,-11.507,-8.211,2.256,0.35,0.16,-4.48
2569.0,-12.558,-8.473,2.728,0.402,0.159,-4.588
2573.0,-12.558,-8.473,2.728,0.402,0.159,-4.588
2577.0,-12.558,-8.473,2.728,0.402,0.159,-4.588
2581.0,-13.431,-8.855,3.29,0.412,0.134,-4.699
2585.0,-13.431,-8.855,3.29,0.412,0.134,-4.699
2589.0,-14.251,-9.241,3.954,0.394,0.072,-4.834
2593.0,-14.251,-9.241,3.954,0.394,0.072,-4.834
2597.0,-14.251,-9.241,3.954,0.394,0.072,-4.834
2601.0,-15.21,-9.672,4.684,0.358,-0.043,-4.965
2606.0,-15.21,-9.672,4.684,0.358,-0.043,-4.965
2610.0,-16.193,-10.018,5.353,0.302,-0.217,-4.995
2614.0,-16.193,-10.018,5.353,0.302,-0.217,-4.995
2618.0,-16.193,-10.018,5.935,0.302,-0.217,-4.995
2622.0,-16.907,-10.01,5.935,0.22,-0.43,-4.995
2626.0,-16.907,-10.01,5.935,0.22,-0.43,-4.995
2630.0,-17.398,-9.934,6.889,0.096,-0.653,-4.995
2635.0,-17.398,-9.934,6.889,0.096,-0.653,-4.995
2639.0,-18.075,-10.251,8.265,-0.082,-0.881,-4.995
2643.0,-18.075,-10.251,8.265,-0.082,-0.881,-4.995
2647.0,-18.075,-10.251,8.265,-0.082,-0.881,-4.995
2651.0,-18.924,-10.875,9.817,-0.338,-1.119,-4.995
2656.0,-18.924,-10.875,9.817,-0.338,-1.119,-4.995
2660.0,-19.524,-11.235,11.279,-0.566,-1.366,-4.995
2664.0,-19.524,-11.235,11.279,-0.566,-1.366,-4.995
2669.0,-19.6,-11.471,12.511,-0.828,-1.631,-4.995
2673.0,-19.6,-11.471,12.511,-0.828,-1.631,-4.995
2677.0,-19.6,-11.897,13.394,-0.828,-1.631,-4.995
2682.0,-19.6,-11.897,13.394,-1.09,-1.881,-4.995
2686.0,-19.6,-11.897,13.394,-1.09,-1.881,-4.995
2690.0,-19.6,-12.533,13.872,-1.311,-2.096,-4.995
2695.0,-19.6,-12.533,13.872,-1.311,-2.096,-4.995
2699.0,-19.6,-13.064,14.167,-1.512,-2.278,-4.995
2703.0,-19.6,-13.064,14.167,-1.512,-2.278,-4.995
2708.0,-19.6,-13.368,14.363,-1.688,-2.438,-4.995
2712.0,-19.6,-13.368,14.363,-1.688,-2.438,-4.995
2716.0,-19.6,-13.368,14.363,-1.688,-2.438,-4.995
2721.0,-19.589,-13.593,14.826,-1.852,-2.575,-4.995
2725.0,-19.589,-13.593,14.826,-1.852,-2.575,-4.995
2729.0,-19.355,-13.872,15.365,-1.995,-2.686,-4.995
2734.0,-19.355,-13.872,15.365,-1.995,-2.686,-4.995
2738.0,-18.79,-13.926,15.526,-2.081,-2.787,-4.995
2742.0,-18.79,-13.926,15.526,-2.081,-2.787,-4.995
2747.0,-17.3,-13.504,15.4,-2.081,-2.787,-4.995
2751.0,-17.3,-13.504,15.4,-2.065,-2.885,-4.995
2755.0,-17.3,-13.504,15.4,-2.065,-2.885,-4.995
2760.0,-15.349,-12.752,15.193,-1.916,-2.975,-4.995
2764.0,-15.349,-12.752,15.193,-1.916,-2.975,-4.995
2768.0,-13.914,-11.952,14.675,-1.649,-3.033,-4.995
2773.0,-13.914,-11.952,14.675,-1.649,-3.033,-4.995
2777.0,-12.792,-10.977,13.957,-1.319,-3.064,-4.995
2781.0,-12.792,-10.977,13.957,-1.319,-3.064,-4.995
2786.0,-12.792,-10.977,13.275,-1.319,-3.064,-4.995
2790.0,-11.606,-9.817,13.275,-0.986,-3.081,-4.995
2794.0,-11.606,-9.817,13.275,-0.986,-3.081,-4.995
2799.0,-10.395,-8.541,12.571,-0.683,-3.075,-4.995
2803.0,-10.395,-8.541,12.571,-0.683,-3.075,-4.995
2807.0,-9.331,-7.257,11.748,-0.419,-3.046,-4.995
2811.0,-9.331,-7.257,11.748,-0.419,-3.046,-4.995
2815.0,-9.331,-5.984,10.863,-0.419,-3.046,-4.995
2820.0,-8.413,-5.984,10.863,-0.19,-3.013,-4.986
2824.0,-8.413,-5.984,10.863,-0.19,-3.013,-4.986
2828.0,-7.334,-4.744,9.885,0.015,-2.977,-4.801
2832.0,-7.334,-4.744,9.885,0.015,-2.977,-4.801
2836.0,-6.053,-3.696,8.974,0.193,-2.913,-4.47
2840.0,-6.053,-3.696,8.974,0.193,-2.913,-4.47
2844.0,-6.053,-3.696,8.974,0.193,-2.913,-4.47
2848.0,-4.878,-2.873,8.023,0.334,-2.803,-4.174
2852.0,-4.878,-2.873,8.023,0.334,-2.803,-4.174
2856.0,-4.083,-2.2,7.009,0.443,-2.639,-3.932
2860.0,-4.083,-2.2,7.009,0.443,-2.639,-3.932
2864.0,-4.083,-2.2,7.009,0.443,-2.639,-3.932
2868.0,-3.842,-1.697,5.947,0.502,-2.441,-3.726
2872.0,-3.842,-1.697,5.947,0.502,-2.441,-3.726
2876.0,-4.171,-1.334,4.881,0.511,-2.222,-3.517
2880.0,-4.171,-1.334,4.881,0.511,-2.222,-3.517
2884.0,-4.171,-1.334,4.881,0.511,-2.222,-3.517
2888.0,-4.78,-1.019,4.129,0.451,-1.984,-3.254
2892.0,-4.78,-1.019,4.129,0.451,-1.984,-3.254
2896.0,-5.17,-0.959,3.663,0.334,-1.73,-2.921
2900.0,-5.17,-0.959,3.663,0.334,-1.73,-2.921
2904.0,-5.17,-0.959,3.663,0.334,-1.73,-2.921
2908.0,-5.235,-1.066,3.33,0.193,-1.466,-2.538
2912.0,-5.235,-1.066,3.33,0.193,-1.466,-2.538
2916.0,-5.019,-1.359,2.856,0.064,-1.185,-2.13
2920.0,-5.019,-1.359,2.856,0.064,-1.185,-2.13
2924.0,-5.019,-1.359,2.856,0.064,-1.185,-2.13
2928.0,-4.815,-1.633,2.442,-0.027,-0.882,-1.731
2932.0,-4.815,-1.633,2.442,-0.027,-0.882,-1.731
2936.0,-4.717,-1.603,2.181,-0.07,-0.578,-1.37
2940.0,-4.717,-1.603,2.181,-0.07,-0.578,-1.37
2944.0,-4.69,-1.168,2.065,-0.07,-0.578,-1.37
2948.0,-4.69,-1.168,2.065,-0.079,-0.297,-1.054
2952.0,-4.69,-1.168,2.065,-0.079,-0.297,-1.054
2956.0,-4.781,-0.562,2.134,-0.071,-0.05,-0.761
2960.0,-4.781,-0.562,2.134,-0.071,-0.05,-0.761
2964.0,-4.954,0.005,2.263,-0.054,0.154,-0.461
2968.0,-4.954,0.005,2.263,-0.054,0.154,-0.461
2972.0,-4.954,0.005,2.263,-0.054,0.154,-0.461
2976.0,-5.015,0.41,2.294,-0.033,0.317,-0.13
2980.0,-5.015,0.41,2.294,-0.033,0.317,-0.13
2984.0,-4.896,0.537,2.153,-0.006,0.468,0.23
2988.0,-4.896,0.537,2.153,-0.006,0.468,0.23
2992.0,-4.896,0.537,2.153,-0.006,0.468,0.23
2995.0,-4.659,0.467,1.948,0.027,0.63,0.608
2999.0,-4.659,0.467,1.948,0.027,0.63,0.608
