deltaTime,Acc_X,Acc_Y,Acc_Z,Gyro_X,Gyro_Y,Gyro_Z
0.0,-5.311,-2.424,4.54,1.153,-0.744,-0.281
3.0,-5.311,-2.424,4.54,1.153,-0.744,-0.281
6.0,-4.927,-1.836,4.87,1.153,-0.744,-0.386
9.0,-4.927,-1.836,4.87,1.114,-0.739,-0.386
12.0,-4.927,-1.836,4.87,1.114,-0.739,-0.386
15.0,-4.927,-1.836,4.87,1.114,-0.739,-0.386
18.0,-4.979,-1.448,5.883,1.012,-0.682,-0.528
21.0,-4.979,-1.448,5.883,1.012,-0.682,-0.528
24.0,-4.979,-1.448,5.883,1.012,-0.682,-0.528
27.0,-5.509,-1.082,7.271,0.949,-0.691,-0.645
30.0,-5.509,-1.082,7.271,0.949,-0.691,-0.645
33.0,-5.509,-1.082,7.271,0.949,-0.691,-0.645
37.0,-6.888,-0.963,8.586,0.938,-0.767,-0.687
41.0,-6.888,-0.963,8.586,0.938,-0.767,-0.687
45.0,-6.888,-0.963,8.586,0.938,-0.767,-0.687
49.0,-8.681,-0.853,9.236,0.972,-0.908,-0.621
52.0,-8.681,-0.853,9.236,0.972,-0.908,-0.621
56.0,-10.076,-0.569,9.216,0.947,-1.065,-0.487
60.0,-10.076,-0.569,9.216,0.947,-1.065,-0.487
64.0,-10.076,-0.569,9.216,0.947,-1.065,-0.487
68.0,-10.749,-0.55,8.82,0.79,-1.182,-0.35
72.0,-10.749,-0.55,8.82,0.79,-1.182,-0.35
76.0,-11.092,-0.477,8.471,0.499,-1.23,-0.257
80.0,-11.092,-0.477,8.471,0.499,-1.23,-0.257
84.0,-11.092,-0.477,8.471,0.499,-1.23,-0.257
88.0,-11.319,-0.543,8.253,0.107,-1.233,-0.198
91.0,-11.319,-0.543,8.253,0.107,-1.233,-0.198
95.0,-11.617,-0.964,8.142,-0.336,-1.201,-0.161
99.0,-11.617,-0.964,8.142,-0.336,-1.201,-0.161
103.0,-11.617,-0.964,8.142,-0.336,-1.201,-0.161
107.0,-12.141,-2.044,8.199,-0.717,-1.14,-0.107
111.0,-12.141,-2.044,8.199,-0.717,-1.14,-0.107
116.0,-12.803,-3.562,8.678,-0.902,-1.063,-0.032
120.0,-12.803,-3.562,8.678,-0.902,-1.063,-0.032
124.0,-12.803,-3.562,8.678,-0.902,-1.063,-0.032
128.0,-13.878,-4.616,9.351,-0.841,-0.985,0.034
132.0,-13.878,-4.616,9.351,-0.841,-0.985,0.034
136.0,-15.186,-4.872,10.01,-0.621,-0.922,0.064
140.0,-15.186,-4.872,10.01,-0.621,-0.922,0.064
144.0,-15.186,-4.172,10.47,-0.621,-0.922,0.064
148.0,-16.089,-4.172,10.47,-0.386,-0.864,0.058
152.0,-16.089,-4.172,10.47,-0.386,-0.864,0.058
156.0,-16.19,-3.178,10.836,-0.273,-0.791,0.028
160.0,-16.19,-3.178,10.836,-0.273,-0.791,0.028
164.0,-15.878,-2.544,11.066,-0.273,-0.704,0.004
168.0,-15.878,-2.544,11.066,-0.283,-0.704,0.004
173.0,-15.878,-2.544,11.066,-0.283,-0.704,0.004
177.0,-15.796,-2.477,11.257,-0.311,-0.609,0.026
181.0,-15.796,-2.477,11.257,-0.311,-0.609,0.026
185.0,-16.319,-2.498,11.119,-0.251,-0.518,0.127
189.0,-16.319,-2.498,11.119,-0.251,-0.518,0.127
193.0,-16.319,-2.498,11.119,-0.251,-0.518,0.127
197.0,-16.664,-2.594,10.504,-0.115,-0.495,0.302
201.0,-16.664,-2.594,10.504,-0.115,-0.495,0.302
205.0,-16.148,-2.472,9.654,0.015,-0.533,0.491
209.0,-16.148,-2.472,9.654,0.015,-0.533,0.491
213.0,-16.148,-2.472,8.468,0.015,-0.533,0.491
217.0,-14.803,-1.987,8.468,0.058,-0.659,0.624
221.0,-14.803,-1.987,8.468,0.058,-0.659,0.624
225.0,-13.646,-0.787,6.945,-0.059,-0.823,0.67
229.0,-13.646,-0.787,6.945,-0.059,-0.823,0.67
233.0,-13.646,-0.787,5.654,-0.059,-0.823,0.67
237.0,-12.653,0.654,5.654,-0.477,-1.017,0.616
241.0,-12.653,0.654,5.654,-0.477,-1.017,0.616
244.0,-10.796,0.13,4.911,-1.097,-1.139,0.594
248.0,-10.796,0.13,4.911,-1.097,-1.139,0.594
252.0,-10.796,0.13,4.531,-1.097,-1.139,0.594
256.0,-9.514,-0.409,4.531,-1.634,-1.156,0.657
260.0,-9.514,-0.409,4.531,-1.634,-1.156,0.657
264.0,-8.933,-1.055,4.163,-2.051,-1.167,0.749
268.0,-8.933,-1.055,4.163,-2.051,-1.167,0.749
272.0,-8.933,-1.055,4.163,-2.051,-1.167,0.749
276.0,-8.417,-1.839,3.487,-2.36,-1.242,0.843
280.0,-8.417,-1.839,3.487,-2.36,-1.242,0.843
284.0,-7.775,-2.767,2.949,-2.608,-1.325,0.936
287.0,-7.775,-2.767,2.949,-2.608,-1.325,0.936
291.0,-7.775,-2.767,2.949,-2.608,-1.325,0.936
295.0,-6.978,-3.804,2.7,-2.821,-1.36,1.047
299.0,-6.978,-3.804,2.7,-2.821,-1.36,1.047
303.0,-6.221,-5.034,2.889,-3.0,-1.305,1.201
307.0,-6.221,-5.034,2.889,-3.0,-1.305,1.201
311.0,-6.221,-5.034,2.889,-3.0,-1.305,1.201
315.0,-6.048,-6.608,3.56,-3.128,-1.179,1.374
319.0,-6.048,-6.608,3.56,-3.128,-1.179,1.374
323.0,-6.21,-8.218,4.374,-3.157,-1.154,1.519
327.0,-6.21,-8.218,4.374,-3.157,-1.154,1.519
330.0,-6.21,-8.218,4.374,-3.157,-1.154,1.519
334.0,-6.33,-9.525,4.986,-3.111,-1.22,1.626
338.0,-6.33,-9.525,4.986,-3.111,-1.22,1.626
342.0,-6.249,-10.51,5.456,-2.995,-1.323,1.702
346.0,-6.249,-10.51,5.456,-2.995,-1.323,1.702
350.0,-6.249,-10.51,5.456,-2.995,-1.323,1.702
354.0,-5.942,-11.391,6.032,-2.812,-1.447,1.757
358.0,-5.942,-11.391,6.032,-2.812,-1.447,1.757
362.0,-5.396,-12.621,6.766,-2.565,-1.575,1.761
366.0,-5.396,-12.621,6.766,-2.565,-1.575,1.761
370.0,-5.396,-12.621,6.766,-2.565,-1.575,1.761
374.0,-4.941,-13.6,7.682,-2.3,-1.714,1.639
378.0,-4.941,-13.6,7.682,-2.3,-1.714,1.639
382.0,-4.6,-14.088,8.555,-2.054,-1.9,1.383
386.0,-4.6,-14.088,8.555,-2.054,-1.9,1.383
390.0,-4.6,-14.088,8.555,-2.054,-1.9,1.383
394.0,-3.807,-14.346,9.17,-1.815,-2.123,1.041
398.0,-3.807,-14.346,9.17,-1.815,-2.123,1.041
402.0,-2.643,-14.533,9.572,-1.554,-2.323,0.665
406.0,-2.643,-14.533,9.572,-1.554,-2.323,0.665
410.0,-2.643,-14.533,9.572,-1.554,-2.323,0.665
414.0,-1.603,-14.673,9.611,-1.264,-2.489,0.299
418.0,-1.603,-14.673,9.611,-1.264,-2.489,0.299
422.0,-0.666,-14.784,9.392,-0.978,-2.636,-0.034
426.0,-0.666,-14.784,9.392,-0.978,-2.636,-0.034
430.0,-0.666,-14.784,9.077,-0.978,-2.636,-0.034
434.0,-0.041,-15.081,9.077,-0.718,-2.807,-0.352
438.0,-0.041,-15.081,9.077,-0.718,-2.807,-0.352
442.0,0.958,-15.132,8.659,-0.501,-3.038,-0.683
446.0,0.958,-15.132,8.659,-0.501,-3.038,-0.683
450.0,1.718,-15.086,8.404,-0.501,-3.038,-1.063
454.0,1.718,-15.086,8.404,-0.356,-3.237,-1.063
458.0,1.718,-15.086,8.404,-0.356,-3.237,-1.063
462.0,2.403,-14.953,8.243,-0.229,-3.426,-1.487
466.0,2.403,-14.953,8.243,-0.229,-3.426,-1.487
470.0,2.919,-14.566,8.09,-0.229,-3.613,-1.951
474.0,2.919,-14.566,8.09,-0.082,-3.613,-1.951
478.0,2.919,-14.566,8.09,-0.082,-3.613,-1.951
482.0,3.386,-14.059,7.7,0.098,-3.8,-2.434
486.0,3.386,-14.059,7.7,0.098,-3.8,-2.434
490.0,3.723,-13.37,7.223,0.301,-3.969,-2.9
494.0,3.723,-13.37,7.223,0.301,-3.969,-2.9
498.0,3.723,-13.37,7.223,0.301,-3.969,-2.9
502.0,3.869,-12.842,6.586,0.49,-4.131,-3.32
506.0,3.869,-12.842,6.586,0.49,-4.131,-3.32
510.0,3.954,-12.37,5.844,0.49,-4.131,-3.699
514.0,3.954,-12.37,5.844,0.633,-4.285,-3.699
517.0,3.954,-12.37,5.844,0.633,-4.285,-3.699
521.0,4.029,-11.844,5.119,0.729,-4.405,-4.038
525.0,4.029,-11.844,5.119,0.729,-4.405,-4.038
529.0,4.214,-11.402,4.318,0.729,-4.405,-4.038
533.0,4.214,-11.402,4.318,0.777,-4.485,-4.327
537.0,4.214,-11.402,4.318,0.777,-4.485,-4.327
541.0,4.592,-11.083,3.793,0.79,-4.515,-4.568
545.0,4.592,-11.083,3.793,0.79,-4.515,-4.568
549.0,4.592,-10.996,3.5,0.79,-4.515,-4.568
553.0,5.097,-10.996,3.5,0.8,-4.495,-4.756
557.0,5.097,-10.996,3.5,0.8,-4.495,-4.756
560.0,5.55,-10.92,3.102,0.825,-4.409,-4.882
564.0,5.55,-10.92,3.102,0.825,-4.409,-4.882
568.0,5.55,-10.92,2.847,0.825,-4.409,-4.882
572.0,5.904,-10.814,2.847,0.856,-4.244,-4.938
576.0,5.904,-10.814,2.847,0.856,-4.244,-4.938
580.0,5.901,-10.698,2.791,0.881,-4.024,-4.939
584.0,5.901,-10.698,2.791,0.881,-4.024,-4.939
588.0,5.901,-10.698,2.791,0.881,-4.024,-4.939
592.0,5.463,-10.478,2.746,0.899,-3.786,-4.91
596.0,5.463,-10.478,2.746,0.899,-3.786,-4.91
600.0,5.069,-10.24,2.466,0.917,-3.539,-4.844
603.0,5.069,-10.24,2.466,0.917,-3.539,-4.844
607.0,5.069,-10.24,2.466,0.917,-3.539,-4.844
611.0,4.948,-10.193,2.283,0.931,-3.288,-4.725
615.0,4.948,-10.193,2.283,0.931,-3.288,-4.725
619.0,5.141,-10.359,1.786,0.931,-3.065,-4.553
623.0,5.141,-10.359,1.786,0.931,-3.065,-4.553
627.0,5.141,-10.359,1.786,0.931,-3.065,-4.553
631.0,5.812,-10.389,1.061,0.895,-2.861,-4.322
635.0,5.812,-10.389,1.061,0.895,-2.861,-4.322
639.0,6.254,-10.424,0.248,0.81,-2.649,-4.047
642.0,6.254,-10.424,0.248,0.81,-2.649,-4.047
646.0,6.254,-10.424,0.248,0.81,-2.649,-4.047
650.0,7.46,-9.971,-0.53,0.7,-2.487,-3.731
654.0,7.46,-9.971,-0.53,0.7,-2.487,-3.731
658.0,8.436,-9.179,-0.885,0.552,-2.239,-3.384
662.0,8.436,-9.179,-0.885,0.552,-2.239,-3.384
666.0,8.436,-9.179,-0.885,0.552,-2.239,-3.384
670.0,8.99,-8.149,-0.741,0.394,-1.94,-3.013
674.0,8.99,-8.149,-0.741,0.394,-1.94,-3.013
678.0,9.083,-6.899,-0.325,0.394,-1.626,-2.633
682.0,9.083,-6.899,-0.325,0.239,-1.626,-2.633
685.0,9.083,-6.899,-0.325,0.239,-1.626,-2.633
689.0,8.715,-5.71,0.04,0.086,-1.309,-2.243
693.0,8.715,-5.71,0.04,0.086,-1.309,-2.243
697.0,7.877,-4.533,0.169,0.086,-1.309,-2.243
701.0,7.877,-4.533,0.169,-0.059,-0.986,-1.859
705.0,7.877,-4.533,0.169,-0.059,-0.986,-1.859
709.0,6.824,-3.469,0.218,-0.184,-0.65,-1.496
713.0,6.824,-3.469,0.218,-0.184,-0.65,-1.496
716.0,6.824,-2.474,0.562,-0.184,-0.65,-1.496
720.0,5.848,-2.474,0.562,-0.279,-0.305,-1.154
724.0,5.848,-2.474,0.562,-0.279,-0.305,-1.154
728.0,4.895,-1.601,1.075,-0.33,0.024,-0.831
732.0,4.895,-1.601,1.075,-0.33,0.024,-0.831
736.0,4.895,-1.601,1.075,-0.33,0.024,-0.831
740.0,3.717,-0.953,1.531,-0.327,0.334,-0.548
743.0,3.717,-0.953,1.531,-0.327,0.334,-0.548
747.0,2.117,-0.474,1.581,-0.266,0.625,-0.314
751.0,2.117,-0.474,1.581,-0.266,0.625,-0.314
755.0,2.117,-0.474,1.581,-0.266,0.625,-0.314
759.0,-0.059,0.07,1.363,-0.155,0.926,-0.1
763.0,-0.059,0.07,1.363,-0.155,0.926,-0.1
766.0,-3.175,0.93,1.256,-0.155,1.27,0.142
770.0,-3.175,0.93,1.256,-0.008,1.27,0.142
774.0,-3.175,0.93,1.256,-0.008,1.27,0.142
778.0,-7.718,2.061,1.162,0.155,1.67,0.454
781.0,-7.718,2.061,1.162,0.155,1.67,0.454
785.0,-7.718,2.061,1.162,0.155,1.67,0.454
788.0,-12.73,3.015,1.753,0.29,2.118,0.859
792.0,-12.73,3.015,1.753,0.29,2.118,0.859
796.0,-14.192,3.178,3.15,0.29,2.505,1.305
800.0,-14.192,3.178,3.15,0.35,2.505,1.305
803.0,-14.192,3.178,3.15,0.35,2.505,1.305
807.0,-13.534,2.916,4.283,0.341,2.789,1.684
811.0,-13.534,2.916,4.283,0.341,2.789,1.684
815.0,-13.534,2.916,4.283,0.341,2.789,1.684
818.0,-13.499,2.634,4.798,0.312,3.065,1.947
822.0,-13.499,2.634,4.798,0.312,3.065,1.947
826.0,-14.219,2.481,4.753,0.283,3.347,2.153
830.0,-14.219,2.481,4.753,0.283,3.347,2.153
833.0,-14.219,2.481,4.753,0.283,3.347,2.153
837.0,-14.624,2.487,4.315,0.244,3.61,2.386
841.0,-14.624,2.487,4.315,0.244,3.61,2.386
844.0,-14.624,2.487,4.315,0.244,3.61,2.386
848.0,-14.317,2.553,4.01,0.173,3.861,2.684
852.0,-14.317,2.553,4.01,0.173,3.861,2.684
856.0,-13.778,2.258,4.196,0.049,4.099,3.05
859.0,-13.778,2.258,4.196,0.049,4.099,3.05
863.0,-13.778,2.258,4.196,0.049,4.099,3.05
867.0,-13.433,1.456,4.619,-0.134,4.31,3.456
871.0,-13.433,1.456,4.619,-0.134,4.31,3.456
875.0,-13.47,0.124,5.079,-0.134,4.31,3.456
878.0,-13.47,0.124,5.079,-0.365,4.491,3.877
882.0,-13.47,0.124,5.079,-0.365,4.491,3.877
886.0,-13.74,-1.434,5.529,-0.641,4.645,4.29
890.0,-13.74,-1.434,5.529,-0.641,4.645,4.29
894.0,-13.74,-1.434,5.529,-0.641,4.645,4.29
898.0,-13.943,-2.888,5.996,-0.946,4.756,4.681
902.0,-13.943,-2.888,5.996,-0.946,4.756,4.681
906.0,-14.127,-3.954,6.605,-1.25,4.814,4.967
909.0,-14.127,-3.954,6.605,-1.25,4.814,4.967
913.0,-14.127,-3.954,6.605,-1.25,4.814,4.967
917.0,-14.488,-4.641,7.107,-1.524,4.811,5.013
921.0,-14.488,-4.641,7.107,-1.524,4.811,5.013
925.0,-15.023,-4.786,7.41,-1.744,4.756,5.013
929.0,-15.023,-4.786,7.41,-1.744,4.756,5.013
933.0,-15.023,-4.786,7.41,-1.744,4.756,5.013
937.0,-15.467,-4.783,7.8,-1.902,4.655,5.013
941.0,-15.467,-4.783,7.8,-1.902,4.655,5.013
945.0,-15.862,-4.851,8.134,-2.008,4.499,5.013
948.0,-15.862,-4.851,8.134,-2.008,4.499,5.013
952.0,-15.862,-4.851,8.134,-2.008,4.499,5.013
956.0,-16.292,-4.97,8.285,-2.071,4.3,5.013
960.0,-16.292,-4.97,8.285,-2.071,4.3,5.013
964.0,-16.536,-5.391,8.409,-2.104,4.083,5.013
968.0,-16.536,-5.391,8.409,-2.104,4.083,5.013
972.0,-16.536,-5.391,8.409,-2.104,4.083,5.013
976.0,-16.871,-6.48,8.921,-2.117,3.851,5.013
980.0,-16.871,-6.48,8.921,-2.117,3.851,5.013
984.0,-17.291,-7.577,9.057,-2.117,3.599,5.013
988.0,-17.291,-7.577,9.057,-2.104,3.599,5.013
991.0,-17.291,-7.577,9.057,-2.104,3.599,5.013
995.0,-17.317,-7.878,9.004,-2.033,3.355,5.013
999.0,-17.317,-7.878,9.004,-2.033,3.355,5.013
1003.0,-17.003,-7.79,9.327,-2.033,3.355,5.013
1007.0,-17.003,-7.79,9.327,-1.9,3.117,5.013
1011.0,-17.003,-7.79,9.327,-1.9,3.117,5.013
1015.0,-17.084,-7.723,9.976,-1.708,2.887,5.013
1019.0,-17.084,-7.723,9.976,-1.708,2.887,5.013
1023.0,-17.673,-7.553,10.522,-1.708,2.678,5.013
1027.0,-17.673,-7.553,10.522,-1.473,2.678,5.013
1031.0,-17.673,-7.553,10.522,-1.473,2.678,5.013
1035.0,-18.482,-7.302,11.107,-1.237,2.509,5.013
1039.0,-18.482,-7.302,11.107,-1.237,2.509,5.013
1044.0,-19.404,-7.669,11.9,-1.03,2.363,5.013
1048.0,-19.404,-7.669,11.9,-1.03,2.363,5.013
1052.0,-19.404,-7.669,11.9,-1.03,2.363,5.013
1056.0,-19.6,-7.804,12.423,-0.841,2.237,5.013
1060.0,-19.6,-7.804,12.423,-0.841,2.237,5.013
1064.0,-19.6,-7.369,13.131,-0.667,2.13,5.013
1068.0,-19.6,-7.369,13.131,-0.667,2.13,5.013
1072.0,-19.6,-6.875,13.938,-0.667,2.13,5.013
1076.0,-19.6,-6.875,13.938,-0.495,2.035,5.013
1080.0,-19.6,-6.875,13.938,-0.495,2.035,5.013
1084.0,-19.6,-6.33,14.641,-0.288,1.95,5.013
1088.0,-19.6,-6.33,14.641,-0.288,1.95,5.013
1092.0,-19.6,-5.929,15.203,-0.04,1.877,5.013
1097.0,-19.6,-5.929,15.203,-0.04,1.877,5.013
1101.0,-19.6,-5.929,15.203,-0.04,1.877,5.013
1105.0,-19.6,-5.94,15.843,0.232,1.804,5.013
1109.0,-19.6,-5.94,15.843,0.232,1.804,5.013
1113.0,-19.6,-6.408,16.417,0.514,1.703,5.013
1117.0,-19.6,-6.408,16.417,0.514,1.703,5.013
1121.0,-19.6,-6.408,16.417,0.514,1.703,5.013
1125.0,-19.6,-7.144,16.548,0.78,1.563,5.013
1129.0,-19.6,-7.144,16.548,0.78,1.563,5.013
1133.0,-19.6,-7.911,16.344,0.974,1.394,5.013
1137.0,-19.6,-7.911,16.344,0.974,1.394,5.013
1141.0,-19.6,-7.911,15.891,0.974,1.394,5.013
1145.0,-19.6,-7.823,15.891,1.061,1.246,5.013
1149.0,-19.6,-7.823,15.891,1.061,1.246,5.013
1153.0,-18.983,-7.312,15.308,1.027,1.16,5.013
1157.0,-18.983,-7.312,15.308,1.027,1.16,5.013
1161.0,-18.983,-7.031,14.505,1.027,1.16,5.013
1165.0,-17.935,-7.031,14.505,0.843,1.128,5.013
1169.0,-17.935,-7.031,14.505,0.843,1.128,5.013
1173.0,-16.858,-6.754,13.755,0.497,1.156,5.013
1177.0,-16.858,-6.754,13.755,0.497,1.156,5.013
1181.0,-16.998,-6.899,14.241,0.497,1.156,5.013
1185.0,-16.998,-6.899,14.241,0.085,1.224,5.013
1189.0,-16.998,-6.899,14.241,0.085,1.224,5.013
1193.0,-16.253,-6.982,14.608,-0.242,1.2,4.981
1197.0,-16.253,-6.982,14.608,-0.242,1.2,4.981
1201.0,-14.776,-7.024,14.755,-0.242,0.973,4.624
1205.0,-14.776,-7.024,14.755,-0.437,0.973,4.624
1209.0,-14.776,-7.024,14.755,-0.437,0.973,4.624
1213.0,-12.596,-7.344,14.535,-0.469,0.582,4.06
1217.0,-12.596,-7.344,14.535,-0.469,0.582,4.06
1221.0,-10.508,-7.925,13.584,-0.343,0.115,3.567
1225.0,-10.508,-7.925,13.584,-0.343,0.115,3.567
1229.0,-10.508,-7.925,13.584,-0.343,0.115,3.567
1233.0,-8.871,-8.669,12.051,-0.103,-0.334,3.205
1237.0,-8.871,-8.669,12.051,-0.103,-0.334,3.205
1242.0,-7.684,-9.357,10.342,0.202,-0.729,2.974
1246.0,-7.684,-9.357,10.342,0.202,-0.729,2.974
1250.0,-7.684,-9.368,8.634,0.202,-0.729,2.974
1253.0,-6.431,-9.368,8.634,0.499,-1.089,2.826
1257.0,-6.431,-9.368,8.634,0.499,-1.089,2.826
1261.0,-4.701,-8.529,7.077,0.707,-1.415,2.693
1265.0,-4.701,-8.529,7.077,0.707,-1.415,2.693
1269.0,-4.701,-8.529,5.78,0.707,-1.415,2.693
1273.0,-2.866,-7.092,5.78,0.768,-1.702,2.511
1277.0,-2.866,-7.092,5.78,0.768,-1.702,2.511
1281.0,-0.88,-5.786,4.765,0.691,-1.952,2.223
1285.0,-0.88,-5.786,4.765,0.691,-1.952,2.223
1289.0,-0.88,-5.786,4.765,0.691,-1.952,2.223
1292.0,1.119,-4.932,3.813,0.529,-2.132,1.805
1296.0,1.119,-4.932,3.813,0.529,-2.132,1.805
1300.0,3.091,-4.496,2.831,0.325,-2.203,1.281
1304.0,3.091,-4.496,2.831,0.325,-2.203,1.281
1308.0,3.091,-4.496,2.831,0.325,-2.203,1.281
1312.0,4.679,-4.387,1.991,0.087,-2.144,0.728
1315.0,4.679,-4.387,1.991,0.087,-2.144,0.728
1319.0,5.499,-4.392,1.573,0.087,-1.979,0.206
1323.0,5.499,-4.392,1.573,-0.197,-1.979,0.206
1327.0,5.499,-4.392,1.573,-0.197,-1.979,0.206
1331.0,5.294,-4.435,1.473,-0.512,-1.78,-0.273
1335.0,5.294,-4.435,1.473,-0.512,-1.78,-0.273
1339.0,4.103,-4.688,1.393,-0.512,-1.596,-0.708
1343.0,4.103,-4.688,1.393,-0.851,-1.596,-0.708
1347.0,4.103,-4.688,1.393,-0.851,-1.596,-0.708
1351.0,2.238,-5.211,1.259,-1.199,-1.418,-1.115
1355.0,2.238,-5.211,1.259,-1.199,-1.418,-1.115
1359.0,0.22,-5.843,1.158,-1.533,-1.245,-1.502
1363.0,0.22,-5.843,1.158,-1.533,-1.245,-1.502
1367.0,0.22,-5.843,1.158,-1.533,-1.245,-1.502
1371.0,-1.78,-6.528,1.132,-1.834,-1.097,-1.864
1375.0,-1.78,-6.528,1.132,-1.834,-1.097,-1.864
1379.0,-3.604,-7.381,1.14,-2.091,-0.983,-2.198
1383.0,-3.604,-7.381,1.14,-2.091,-0.983,-2.198
1387.0,-3.604,-7.381,1.14,-2.091,-0.983,-2.198
1391.0,-5.338,-8.246,1.202,-2.29,-0.893,-2.514
1395.0,-5.338,-8.246,1.202,-2.29,-0.893,-2.514
1399.0,-6.731,-8.963,1.349,-2.412,-0.823,-2.814
1403.0,-6.731,-8.963,1.349,-2.412,-0.823,-2.814
1407.0,-7.524,-9.421,1.554,-2.412,-0.823,-2.814
1412.0,-7.524,-9.421,1.554,-2.45,-0.778,-3.103
1416.0,-7.524,-9.421,1.554,-2.45,-0.778,-3.103
1420.0,-7.806,-9.43,1.86,-2.412,-0.748,-3.38
1424.0,-7.806,-9.43,1.86,-2.412,-0.748,-3.38
1428.0,-7.881,-9.148,2.227,-2.319,-0.71,-3.625
1432.0,-7.881,-9.148,2.227,-2.319,-0.71,-3.625
1436.0,-7.881,-9.148,2.227,-2.319,-0.71,-3.625
1440.0,-8.009,-9.007,2.651,-2.209,-0.643,-3.824
1444.0,-8.009,-9.007,2.651,-2.209,-0.643,-3.824
1448.0,-8.399,-9.211,3.071,-2.103,-0.548,-3.977
1452.0,-8.399,-9.211,3.071,-2.103,-0.548,-3.977
1456.0,-8.399,-9.211,3.071,-2.103,-0.548,-3.977
1461.0,-8.975,-9.621,3.377,-2.012,-0.432,-4.097
1465.0,-8.975,-9.621,3.377,-2.012,-0.432,-4.097
1469.0,-9.645,-10.053,3.65,-1.935,-0.305,-4.199
1473.0,-9.645,-10.053,3.65,-1.935,-0.305,-4.199
1477.0,-10.301,-10.518,4.004,-1.935,-0.177,-4.296
1481.0,-10.301,-10.518,4.004,-1.856,-0.177,-4.296
1486.0,-10.301,-10.518,4.004,-1.856,-0.177,-4.296
1490.0,-10.944,-10.88,4.377,-1.767,-0.053,-4.405
1494.0,-10.944,-10.88,4.377,-1.767,-0.053,-4.405
1498.0,-11.741,-11.123,4.832,-1.665,0.078,-4.521
1502.0,-11.741,-11.123,4.832,-1.665,0.078,-4.521
1507.0,-12.798,-11.521,5.53,-1.665,0.202,-4.629
1511.0,-12.798,-11.521,5.53,-1.557,0.202,-4.629
1515.0,-12.798,-11.521,5.53,-1.557,0.202,-4.629
1519.0,-14.038,-11.993,6.323,-1.442,0.291,-4.742
1523.0,-14.038,-11.993,6.323,-1.442,0.291,-4.742
1527.0,-15.075,-12.227,7.107,-1.326,0.34,-4.868
1532.0,-15.075,-12.227,7.107,-1.326,0.34,-4.868
1536.0,-15.646,-12.299,7.86,-1.326,0.34,-4.868
1540.0,-15.646,-12.299,7.86,-1.217,0.344,-4.971
1544.0,-15.646,-12.299,7.86,-1.217,0.344,-4.971
1548.0,-15.957,-12.175,8.429,-1.123,0.31,-4.995
1552.0,-15.957,-12.175,8.429,-1.123,0.31,-4.995
1557.0,-16.072,-11.959,8.88,-1.046,0.256,-4.995
1561.0,-16.072,-11.959,8.88,-1.046,0.256,-4.995
1565.0,-16.072,-11.959,8.88,-1.046,0.256,-4.995
1569.0,-15.866,-11.611,9.266,-0.987,0.185,-4.995
1573.0,-15.866,-11.611,9.266,-0.987,0.185,-4.995
1577.0,-15.404,-11.276,9.742,-0.945,0.095,-4.995
1582.0,-15.404,-11.276,9.742,-0.945,0.095,-4.995
1586.0,-14.911,-10.913,10.202,-0.922,-0.018,-4.995
1590.0,-14.911,-10.913,10.202,-0.922,-0.018,-4.995
1594.0,-14.911,-10.913,10.202,-0.922,-0.018,-4.995
1599.0,-14.526,-10.597,10.66,-0.933,-0.145,-4.995
1603.0,-14.526,-10.597,10.66,-0.933,-0.145,-4.995
1607.0,-14.432,-10.243,11.015,-1.002,-0.284,-4.995
1612.0,-14.432,-10.243,11.015,-1.002,-0.284,-4.995
1616.0,-14.554,-9.882,11.332,-1.149,-0.435,-4.995
1620.0,-14.554,-9.882,11.332,-1.149,-0.435,-4.995
1625.0,-14.822,-9.702,11.782,-1.149,-0.435,-4.995
1629.0,-14.822,-9.702,11.782,-1.357,-0.612,-4.995
1633.0,-14.822,-9.702,11.782,-1.357,-0.612,-4.995
1637.0,-15.007,-10.126,12.488,-1.565,-0.825,-4.995
1642.0,-15.007,-10.126,12.488,-1.565,-0.825,-4.995
1646.0,-15.072,-11.328,13.146,-1.71,-1.072,-4.995
1650.0,-15.072,-11.328,13.146,-1.71,-1.072,-4.995
1655.0,-15.014,-12.667,13.45,-1.71,-1.328,-4.995
1659.0,-15.014,-12.667,13.45,-1.749,-1.328,-4.995
1663.0,-15.014,-12.667,13.45,-1.749,-1.328,-4.995
1668.0,-15.112,-14.138,13.478,-1.664,-1.575,-4.995
1672.0,-15.112,-14.138,13.478,-1.664,-1.575,-4.995
1677.0,-15.531,-15.48,13.503,-1.521,-1.807,-4.995
1681.0,-15.531,-15.48,13.503,-1.521,-1.807,-4.995
1685.0,-15.892,-16.318,13.338,-1.329,-2.019,-4.995
1690.0,-15.892,-16.318,13.338,-1.329,-2.019,-4.995
1694.0,-15.884,-16.603,13.094,-1.329,-2.019,-4.995
1698.0,-15.884,-16.603,13.094,-1.165,-2.228,-4.995
1703.0,-15.884,-16.603,13.094,-1.165,-2.228,-4.995
1707.0,-15.636,-16.411,12.801,-1.029,-2.424,-4.995
1711.0,-15.636,-16.411,12.801,-1.029,-2.424,-4.995
1716.0,-14.971,-15.878,12.448,-0.894,-2.597,-4.995
1720.0,-14.971,-15.878,12.448,-0.894,-2.597,-4.995
1724.0,-13.909,-15.23,11.89,-0.734,-2.732,-4.995
1729.0,-13.909,-15.23,11.89,-0.734,-2.732,-4.995
1733.0,-13.909,-15.23,11.212,-0.734,-2.732,-4.995
1737.0,-12.891,-14.81,11.212,-0.539,-2.811,-4.995
1742.0,-12.891,-14.81,11.212,-0.539,-2.811,-4.995
1746.0,-11.917,-13.976,10.299,-0.324,-2.857,-4.995
1750.0,-11.917,-13.976,10.299,-0.324,-2.857,-4.995
1755.0,-10.504,-12.712,9.443,-0.096,-2.872,-4.995
1759.0,-10.504,-12.712,9.443,-0.096,-2.872,-4.995
1763.0,-9.019,-11.242,8.619,-0.096,-2.872,-4.995
1767.0,-9.019,-11.242,8.619,0.132,-2.842,-4.995
1771.0,-9.019,-11.242,8.619,0.132,-2.842,-4.995
1775.0,-7.706,-9.634,7.706,0.35,-2.761,-4.995
1779.0,-7.706,-9.634,7.706,0.35,-2.761,-4.995
1783.0,-6.553,-7.89,6.821,0.556,-2.641,-4.995
1787.0,-6.553,-7.89,6.821,0.556,-2.641,-4.995
1791.0,-6.553,-7.89,6.821,0.556,-2.641,-4.995
1795.0,-5.539,-6.098,6.032,0.754,-2.511,-4.995
1799.0,-5.539,-6.098,6.032,0.754,-2.511,-4.995
1803.0,-4.601,-4.337,5.2,0.943,-2.376,-4.986
1807.0,-4.601,-4.337,5.2,0.943,-2.376,-4.986
1811.0,-4.601,-4.337,5.2,0.943,-2.376,-4.986
1815.0,-3.895,-2.665,4.38,1.135,-2.214,-4.729
1819.0,-3.895,-2.665,4.38,1.135,-2.214,-4.729
1823.0,-3.491,-1.268,3.476,1.293,-2.031,-4.148
1827.0,-3.491,-1.268,3.476,1.293,-2.031,-4.148
1831.0,-3.491,-1.268,3.476,1.293,-2.031,-4.148
1835.0,-3.303,-0.169,2.647,1.418,-1.817,-3.5
1839.0,-3.303,-0.169,2.647,1.418,-1.817,-3.5
1843.0,-3.235,0.58,1.88,1.531,-1.567,-2.848
1847.0,-3.235,0.58,1.88,1.531,-1.567,-2.848
1851.0,-3.235,0.58,1.88,1.531,-1.567,-2.848
1855.0,-3.262,1.055,1.201,1.619,-1.28,-2.24
1859.0,-3.262,1.055,1.201,1.619,-1.28,-2.24
1863.0,-3.539,1.58,0.68,1.678,-0.959,-1.705
1867.0,-3.539,1.58,0.68,1.678,-0.959,-1.705
1871.0,-3.539,1.58,0.68,1.678,-0.959,-1.705
1875.0,-4.144,2.122,0.346,1.699,-0.623,-1.219
1878.0,-4.144,2.122,0.346,1.699,-0.623,-1.219
1882.0,-5.086,2.596,-0.014,1.671,-0.289,-0.743
1886.0,-5.086,2.596,-0.014,1.671,-0.289,-0.743
1890.0,-5.086,2.596,-0.014,1.671,-0.289,-0.743
1894.0,-6.065,2.906,-0.506,1.587,0.044,-0.247
1898.0,-6.065,2.906,-0.506,1.587,0.044,-0.247
1902.0,-6.724,2.975,-0.944,1.449,0.394,0.265
1906.0,-6.724,2.975,-0.944,1.449,0.394,0.265
1910.0,-6.724,2.975,-0.944,1.449,0.394,0.265
1914.0,-7.119,2.997,-1.111,1.264,0.775,0.772
1917.0,-7.119,2.997,-1.111,1.264,0.775,0.772
1921.0,-7.545,2.88,-1.105,1.264,1.173,1.27
1925.0,-7.545,2.88,-1.105,1.034,1.173,1.27
1929.0,-7.545,2.88,-1.105,1.034,1.173,1.27
1933.0,-8.226,2.686,-0.924,0.766,1.593,1.762
1937.0,-8.226,2.686,-0.924,0.766,1.593,1.762
1940.0,-8.226,2.411,-0.559,0.766,1.593,1.762
1944.0,-9.045,2.411,-0.559,0.471,2.038,2.262
1948.0,-9.045,2.411,-0.559,0.471,2.038,2.262
1952.0,-9.738,1.987,0.014,0.157,2.503,2.795
1956.0,-9.738,1.987,0.014,0.157,2.503,2.795
1959.0,-9.738,1.987,0.014,0.157,2.503,2.795
1963.0,-10.232,1.275,0.74,-0.158,2.968,3.362
1967.0,-10.232,1.275,0.74,-0.158,2.968,3.362
1971.0,-10.851,0.441,1.628,-0.465,3.407,3.934
1975.0,-10.851,0.441,1.628,-0.465,3.407,3.934
1979.0,-10.851,0.441,1.628,-0.465,3.407,3.934
1983.0,-11.804,-0.361,2.279,-0.749,3.804,4.486
1987.0,-11.804,-0.361,2.279,-0.749,3.804,4.486
1991.0,-12.908,-1.056,2.53,-1.003,4.156,4.926
1995.0,-12.908,-1.056,2.53,-1.003,4.156,4.926
1999.0,-12.908,-1.056,2.53,-1.003,4.156,4.926
2003.0,-14.06,-1.523,2.507,-1.221,4.472,5.013
2007.0,-14.06,-1.523,2.507,-1.221,4.472,5.013
2011.0,-15.315,-1.81,2.404,-1.406,4.754,5.013
2015.0,-15.315,-1.81,2.404,-1.406,4.754,5.013
2019.0,-15.315,-1.81,2.404,-1.406,4.754,5.013
2023.0,-16.741,-2.231,2.445,-1.562,4.967,5.013
2026.0,-16.741,-2.231,2.445,-1.562,4.967,5.013
2030.0,-18.349,-2.843,2.81,-1.698,5.015,5.013
2034.0,-18.349,-2.843,2.81,-1.698,5.015,5.013
2038.0,-18.349,-2.843,2.81,-1.698,5.015,5.013
2042.0,-19.545,-3.89,3.855,-1.829,5.015,5.013
2046.0,-19.545,-3.89,3.855,-1.829,5.015,5.013
2050.0,-19.6,-5.339,5.124,-1.954,5.009,5.013
2054.0,-19.6,-5.339,5.124,-1.954,5.009,5.013
2058.0,-19.6,-5.339,5.124,-1.954,5.009,5.013
2062.0,-19.6,-6.824,6.259,-2.061,4.848,5.013
2066.0,-19.6,-6.824,6.259,-2.061,4.848,5.013
2070.0,-19.6,-8.117,7.031,-2.139,4.486,5.013
2074.0,-19.6,-8.117,7.031,-2.139,4.486,5.013
2078.0,-19.6,-8.117,6.988,-2.139,4.486,5.013
2082.0,-19.6,-8.505,6.988,-2.13,4.114,5.013
2086.0,-19.6,-8.505,6.988,-2.13,4.114,5.013
2090.0,-19.6,-8.599,7.149,-2.099,3.801,5.013
2094.0,-19.6,-8.599,7.149,-2.099,3.801,5.013
2098.0,-19.6,-8.826,7.69,-2.099,3.801,5.013
2102.0,-19.6,-8.826,7.69,-2.057,3.524,5.013
2106.0,-19.6,-8.826,7.69,-2.057,3.524,5.013
2110.0,-19.6,-9.053,8.503,-1.994,3.283,5.013
2114.0,-19.6,-9.053,8.503,-1.994,3.283,5.013
2118.0,-19.6,-9.298,9.86,-1.994,3.283,5.013
2122.0,-19.6,-9.298,9.86,-1.919,3.094,5.013
2126.0,-19.6,-9.298,9.86,-1.919,3.094,5.013
2130.0,-19.6,-9.325,11.377,-1.838,2.922,5.013
2134.0,-19.6,-9.325,11.377,-1.838,2.922,5.013
2138.0,-19.6,-9.586,12.814,-1.75,2.734,5.013
2143.0,-19.6,-9.586,12.814,-1.75,2.734,5.013
2147.0,-19.6,-9.586,12.814,-1.75,2.734,5.013
2151.0,-19.6,-10.019,13.747,-1.644,2.503,5.013
2155.0,-19.6,-10.019,13.747,-1.644,2.503,5.013
2159.0,-19.6,-10.343,13.868,-1.494,2.234,5.013
2163.0,-19.6,-10.343,13.868,-1.494,2.234,5.013
2167.0,-19.6,-10.357,13.72,-1.494,2.234,5.013
2172.0,-19.6,-10.357,13.72,-1.289,1.957,5.013
2176.0,-19.6,-10.357,13.72,-1.289,1.957,5.013
2180.0,-19.577,-9.75,13.466,-1.032,1.673,5.013
2184.0,-19.577,-9.75,13.466,-1.032,1.673,5.013
2188.0,-19.436,-8.901,13.201,-0.765,1.394,5.013
2192.0,-19.436,-8.901,13.201,-0.765,1.394,5.013
2196.0,-19.436,-8.901,13.201,-0.765,1.394,5.013
2200.0,-19.517,-7.881,13.111,-0.49,1.159,5.013
2204.0,-19.517,-7.881,13.111,-0.49,1.159,5.013
2208.0,-19.6,-7.188,13.626,-0.199,0.969,5.013
2213.0,-19.6,-7.188,13.626,-0.199,0.969,5.013
2217.0,-19.6,-7.188,14.264,-0.199,0.969,5.013
2221.0,-19.6,-6.832,14.264,0.098,0.76,5.013
2225.0,-19.6,-6.832,14.264,0.098,0.76,5.013
2229.0,-19.6,-6.505,14.646,0.363,0.535,5.013
2233.0,-19.6,-6.505,14.646,0.363,0.535,5.013
2237.0,-19.368,-6.148,14.646,0.363,0.535,5.013
2241.0,-19.368,-6.148,14.646,0.576,0.37,5.013
2245.0,-19.368,-6.148,14.646,0.576,0.37,5.013
2249.0,-19.185,-5.835,14.347,0.717,0.274,5.013
2253.0,-19.185,-5.835,14.347,0.717,0.274,5.013
2257.0,-19.18,-5.508,13.786,0.717,0.274,5.013
2261.0,-19.18,-5.508,13.786,0.835,0.23,5.013
2265.0,-19.18,-5.508,13.786,0.835,0.23,5.013
2269.0,-18.95,-5.045,13.047,0.921,0.196,5.013
2273.0,-18.95,-5.045,13.047,0.921,0.196,5.013
2277.0,-18.127,-4.702,12.189,0.921,0.142,5.013
2281.0,-18.127,-4.702,12.189,0.947,0.142,5.013
2285.0,-18.127,-4.702,12.189,0.947,0.142,5.013
2289.0,-17.241,-4.122,11.042,0.93,0.089,5.013
2293.0,-17.241,-4.122,11.042,0.93,0.089,5.013
2297.0,-16.667,-3.349,9.712,0.858,0.054,5.013
2300.0,-16.667,-3.349,9.712,0.858,0.054,5.013
2304.0,-16.667,-3.349,9.712,0.858,0.054,5.013
2308.0,-16.219,-2.671,8.576,0.687,0.027,5.013
2312.0,-16.219,-2.671,8.576,0.687,0.027,5.013
2316.0,-15.344,-2.338,7.608,0.687,0.004,5.013
2320.0,-15.344,-2.338,7.608,0.453,0.004,5.013
2324.0,-15.344,-2.338,7.608,0.453,0.004,5.013
2328.0,-13.772,-2.595,7.128,0.191,-0.037,4.95
2332.0,-13.772,-2.595,7.128,0.191,-0.037,4.95
2336.0,-12.028,-3.193,6.759,0.191,-0.141,4.705
2340.0,-12.028,-3.193,6.759,-0.049,-0.141,4.705
2344.0,-12.028,-3.193,6.759,-0.049,-0.141,4.705
2348.0,-10.897,-4.058,6.2,-0.246,-0.299,4.401
2352.0,-10.897,-4.058,6.2,-0.246,-0.299,4.401
2356.0,-10.337,-5.014,5.253,-0.407,-0.482,4.031
2360.0,-10.337,-5.014,5.253,-0.407,-0.482,4.031
2364.0,-10.337,-5.014,5.253,-0.407,-0.482,4.031
2368.0,-9.73,-5.551,4.073,-0.54,-0.678,3.578
2372.0,-9.73,-5.551,4.073,-0.54,-0.678,3.578
2376.0,-8.649,-5.619,3.081,-0.665,-0.87,3.082
2380.0,-8.649,-5.619,3.081,-0.665,-0.87,3.082
2384.0,-8.649,-5.619,2.396,-0.665,-0.87,3.082
2388.0,-7.114,-5.445,2.396,-0.8,-1.028,2.587
2392.0,-7.114,-5.445,2.396,-0.8,-1.028,2.587
2396.0,-5.502,-5.241,1.965,-0.951,-1.142,2.105
2400.0,-5.502,-5.241,1.965,-0.951,-1.142,2.105
2404.0,-5.502,-5.195,1.506,-0.951,-1.142,2.105
2408.0,-4.219,-5.195,1.506,-1.122,-1.22,1.619
2412.0,-4.219,-5.195,1.506,-1.122,-1.22,1.619
2416.0,-3.29,-5.207,1.018,-1.304,-1.248,1.126
2420.0,-3.29,-5.207,1.018,-1.304,-1.248,1.126
2424.0,-2.758,-5.256,0.618,-1.304,-1.248,1.126
2428.0,-2.758,-5.256,0.618,-1.493,-1.212,0.645
2432.0,-2.758,-5.256,0.618,-1.493,-1.212,0.645
2436.0,-2.574,-5.237,0.546,-1.675,-1.14,0.2
2440.0,-2.574,-5.237,0.546,-1.675,-1.14,0.2
2444.0,-2.685,-5.196,0.336,-1.675,-1.14,-0.186
2448.0,-2.685,-5.196,0.336,-1.83,-1.084,-0.186
2452.0,-2.685,-5.196,0.336,-1.83,-1.084,-0.186
2456.0,-2.958,-5.405,-0.12,-1.936,-1.049,-0.508
2461.0,-2.958,-5.405,-0.12,-1.936,-1.049,-0.508
2465.0,-3.328,-5.851,-0.778,-1.974,-0.996,-0.789
2469.0,-3.328,-5.851,-0.778,-1.974,-0.996,-0.789
2473.0,-3.328,-5.851,-1.316,-1.974,-0.996,-0.789
2477.0,-3.898,-6.29,-1.316,-1.936,-0.892,-1.049
2481.0,-3.898,-6.29,-1.316,-1.936,-0.892,-1.049
2486.0,-4.533,-6.49,-1.521,-1.833,-0.752,-1.297
2490.0,-4.533,-6.49,-1.521,-1.833,-0.752,-1.297
2494.0,-5.16,-6.437,-1.481,-1.685,-0.601,-1.541
2498.0,-5.16,-6.437,-1.481,-1.685,-0.601,-1.541
2502.0,-5.16,-6.437,-1.481,-1.685,-0.601,-1.541
2506.0,-5.754,-6.272,-1.302,-1.519,-0.45,-1.78
2511.0,-5.754,-6.272,-1.302,-1.519,-0.45,-1.78
2515.0,-6.331,-6.121,-1.041,-1.346,-0.309,-2.016
2519.0,-6.331,-6.121,-1.041,-1.346,-0.309,-2.016
2523.0,-6.91,-5.956,-0.863,-1.346,-0.309,-2.251
2527.0,-6.91,-5.956,-0.863,-1.169,-0.182,-2.251
2531.0,-6.91,-5.956,-0.863,-1.169,-0.182,-2.251
2536.0,-7.403,-5.826,-0.782,-0.991,-0.06,-2.492
2540.0,-7.403,-5.826,-0.782,-0.991,-0.06,-2.492
2544.0,-7.813,-5.662,-0.708,-0.814,0.058,-2.737
2548.0,-7.813,-5.662,-0.708,-0.814,0.058,-2.737
2552.0,-7.813,-5.662,-0.676,-0.814,0.058,-2.737
2556.0,-8.123,-5.452,-0.676,-0.643,0.17,-2.983
2560.0,-8.123,-5.452,-0.676,-0.643,0.17,-2.983
2564.0,-8.413,-5.294,-0.632,-0.48,0.281,-3.222
2568.0,-8.413,-5.294,-0.632,-0.48,0.281,-3.222
2572.0,-8.863,-5.243,-0.497,-0.48,0.281,-3.46
2577.0,-8.863,-5.243,-0.497,-0.326,0.385,-3.46
2581.0,-8.863,-5.243,-0.497,-0.326,0.385,-3.46
2585.0,-9.443,-5.337,-0.279,-0.183,0.464,-3.697
2589.0,-9.443,-5.337,-0.279,-0.183,0.464,-3.697
2593.0,-10.061,-5.554,-0.051,-0.045,0.515,-3.937
2597.0,-10.061,-5.554,-0.051,-0.045,0.515,-3.937
2601.0,-10.061,-5.554,-0.051,-0.045,0.515,-3.937
2605.0,-10.602,-5.788,0.092,0.091,0.543,-4.18
2609.0,-10.602,-5.788,0.092,0.091,0.543,-4.18
2613.0,-11.043,-5.932,0.146,0.227,0.562,-4.419
2617.0,-11.043,-5.932,0.146,0.227,0.562,-4.419
2621.0,-11.043,-6.078,0.236,0.227,0.562,-4.419
2625.0,-11.509,-6.078,0.236,0.35,0.587,-4.642
2629.0,-11.509,-6.078,0.236,0.35,0.587,-4.642
2633.0,-12.093,-6.209,0.354,0.454,0.609,-4.852
2637.0,-12.093,-6.209,0.354,0.454,0.609,-4.852
2641.0,-12.776,-6.279,0.55,0.454,0.609,-4.852
2645.0,-12.776,-6.279,0.55,0.531,0.612,-4.983
2649.0,-12.776,-6.279,0.55,0.531,0.612,-4.983
2653.0,-13.577,-6.391,0.837,0.568,0.591,-4.995
2657.0,-13.577,-6.391,0.837,0.568,0.591,-4.995
2661.0,-14.443,-6.564,1.17,0.568,0.591,-4.995
2665.0,-14.443,-6.564,1.17,0.555,0.557,-4.995
2669.0,-14.443,-6.564,1.17,0.555,0.557,-4.995
2673.0,-15.206,-6.802,1.579,0.491,0.512,-4.995
2677.0,-15.206,-6.802,1.579,0.491,0.512,-4.995
2681.0,-15.679,-7.209,2.102,0.491,0.453,-4.995
2685.0,-15.679,-7.209,2.102,0.393,0.453,-4.995
2689.0,-15.679,-7.209,2.102,0.393,0.453,-4.995
2693.0,-15.772,-7.768,2.709,0.277,0.387,-4.995
2697.0,-15.772,-7.768,2.709,0.277,0.387,-4.995
2701.0,-15.602,-8.32,3.535,0.152,0.335,-4.995
2705.0,-15.602,-8.32,3.535,0.152,0.335,-4.995
2709.0,-15.602,-8.32,3.535,0.152,0.335,-4.995
2713.0,-15.415,-8.969,4.697,0.019,0.297,-4.995
2717.0,-15.415,-8.969,4.697,0.019,0.297,-4.995
2721.0,-15.563,-9.873,6.037,-0.12,0.252,-4.995
2725.0,-15.563,-9.873,6.037,-0.12,0.252,-4.995
2729.0,-15.563,-9.873,6.037,-0.12,0.252,-4.995
2733.0,-16.264,-10.946,7.419,-0.253,0.179,-4.995
2738.0,-16.264,-10.946,7.419,-0.253,0.179,-4.995
2742.0,-17.41,-11.991,8.754,-0.337,0.052,-4.995
2746.0,-17.41,-11.991,8.754,-0.337,0.052,-4.995
2750.0,-18.563,-13.135,9.818,-0.337,0.052,-4.995
2754.0,-18.563,-13.135,9.818,-0.39,-0.139,-4.995
2759.0,-18.563,-13.135,9.818,-0.39,-0.139,-4.995
2763.0,-19.355,-14.276,10.451,-0.378,-0.364,-4.995
2767.0,-19.355,-14.276,10.451,-0.378,-0.364,-4.995
2771.0,-19.6,-15.592,11.051,-0.336,-0.594,-4.995
2776.0,-19.6,-15.592,11.051,-0.336,-0.594,-4.995
2780.0,-19.6,-16.734,11.633,-0.296,-0.805,-4.995
2784.0,-19.6,-16.734,11.633,-0.296,-0.805,-4.995
2789.0,-19.6,-16.734,11.633,-0.296,-0.805,-4.995
2793.0,-19.6,-17.502,12.164,-0.298,-1.027,-4.995
2797.0,-19.6,-17.502,12.164,-0.298,-1.027,-4.995
2802.0,-19.6,-18.036,12.815,-0.331,-1.264,-4.995
2806.0,-19.6,-18.036,12.815,-0.331,-1.264,-4.995
2811.0,-19.6,-18.326,13.427,-0.373,-1.499,-4.995
2815.0,-19.6,-18.326,13.427,-0.373,-1.499,-4.995
2819.0,-19.6,-18.2,13.633,-0.373,-1.499,-4.995
2824.0,-19.6,-18.2,13.633,-0.407,-1.718,-4.995
2828.0,-19.6,-18.2,13.633,-0.407,-1.718,-4.995
2832.0,-19.6,-17.792,13.589,-0.421,-1.905,-4.995
2837.0,-19.6,-17.792,13.589,-0.421,-1.905,-4.995
2841.0,-19.6,-17.102,13.175,-0.397,-2.048,-4.995
2845.0,-19.6,-17.102,13.175,-0.397,-2.048,-4.995
2850.0,-19.6,-16.357,12.567,-0.331,-2.134,-4.995
2854.0,-19.6,-16.357,12.567,-0.331,-2.134,-4.995
2858.0,-19.6,-15.665,12.016,-0.331,-2.134,-4.995
2863.0,-18.961,-15.665,12.016,-0.235,-2.157,-4.995
2867.0,-18.961,-15.665,12.016,-0.235,-2.157,-4.995
2871.0,-17.801,-15.051,11.57,-0.128,-2.145,-4.995
2876.0,-17.801,-15.051,11.57,-0.128,-2.145,-4.995
2880.0,-16.611,-14.195,11.144,-0.001,-2.122,-4.995
2884.0,-16.611,-14.195,11.144,-0.001,-2.122,-4.995
2889.0,-15.215,-12.946,10.726,0.157,-2.126,-4.995
2893.0,-15.215,-12.946,10.726,0.157,-2.126,-4.995
2897.0,-15.215,-12.946,10.726,0.157,-2.126,-4.995
2901.0,-13.808,-11.217,9.997,0.352,-2.175,-4.995
2906.0,-13.808,-11.217,9.997,0.352,-2.175,-4.995
2910.0,-12.407,-9.187,9.249,0.579,-2.256,-4.995
2914.0,-12.407,-9.187,9.249,0.579,-2.256,-4.995
2918.0,-11.384,-7.217,8.435,0.579,-2.256,-4.995
2922.0,-11.384,-7.217,8.435,0.82,-2.356,-4.995
2926.0,-11.384,-7.217,8.435,0.82,-2.356,-4.995
2930.0,-10.78,-5.496,7.521,1.046,-2.448,-4.995
2934.0,-10.78,-5.496,7.521,1.046,-2.448,-4.995
2938.0,-10.456,-4.012,6.692,1.227,-2.521,-4.994
2942.0,-10.456,-4.012,6.692,1.227,-2.521,-4.994
2946.0,-10.456,-4.012,6.692,1.227,-2.521,-4.994
2951.0,-10.305,-2.818,5.955,1.356,-2.572,-4.874
2955.0,-10.305,-2.818,5.955,1.356,-2.572,-4.874
2959.0,-10.247,-1.972,5.096,1.427,-2.597,-4.511
2963.0,-10.247,-1.972,5.096,1.427,-2.597,-4.511
2967.0,-10.247,-1.216,4.248,1.427,-2.597,-4.511
2971.0,-10.135,-1.216,4.248,1.443,-2.596,-4.11
2975.0,-10.135,-1.216,4.248,1.443,-2.596,-4.11
2979.0,-9.933,-0.514,3.453,1.403,-2.574,-3.697
2983.0,-9.933,-0.514,3.453,1.403,-2.574,-3.697
2987.0,-9.498,0.078,2.644,1.403,-2.574,-3.273
2991.0,-9.498,0.078,2.644,1.319,-2.518,-3.273
2995.0,-9.498,0.078,2.644,1.319,-2.518,-3.273
2999.0,-8.789,0.598,1.835,1.199,-2.397,-2.835
