deltaTime,Acc_X,Acc_Y,Acc_Z,Gyro_X,Gyro_Y,Gyro_Z
0.0,-8.363,-2.147,3.331,-0.823,-0.682,-0.483
3.0,-8.363,-2.147,3.331,-0.823,-0.682,-0.483
6.0,-8.531,-2.425,3.169,-0.823,-0.682,-0.483
9.0,-8.531,-2.425,3.169,-0.884,-0.682,-0.464
12.0,-8.531,-2.425,3.169,-0.884,-0.682,-0.464
15.0,-8.531,-2.425,3.169,-0.884,-0.682,-0.464
18.0,-8.623,-2.918,3.136,-0.898,-0.658,-0.443
21.0,-8.623,-2.918,3.136,-0.898,-0.658,-0.443
24.0,-8.623,-2.918,3.136,-0.898,-0.658,-0.443
27.0,-8.669,-3.429,3.202,-0.838,-0.604,-0.427
30.0,-8.669,-3.429,3.202,-0.838,-0.604,-0.427
34.0,-8.669,-3.429,3.202,-0.838,-0.604,-0.427
38.0,-8.756,-3.83,3.263,-0.697,-0.529,-0.412
42.0,-8.756,-3.83,3.263,-0.697,-0.529,-0.412
46.0,-8.843,-3.929,3.378,-0.697,-0.529,-0.397
50.0,-8.843,-3.929,3.378,-0.496,-0.444,-0.397
53.0,-8.843,-3.929,3.378,-0.496,-0.444,-0.397
57.0,-9.152,-3.751,3.47,-0.293,-0.357,-0.388
61.0,-9.152,-3.751,3.47,-0.293,-0.357,-0.388
65.0,-9.355,-3.389,3.497,-0.293,-0.357,-0.388
69.0,-9.355,-3.389,3.497,-0.14,-0.279,-0.377
73.0,-9.355,-3.389,3.497,-0.14,-0.279,-0.377
77.0,-9.352,-3.049,3.51,-0.065,-0.206,-0.364
81.0,-9.352,-3.049,3.51,-0.065,-0.206,-0.364
85.0,-9.352,-3.178,3.677,-0.065,-0.206,-0.364
89.0,-9.515,-3.178,3.677,-0.057,-0.13,-0.344
93.0,-9.515,-3.178,3.677,-0.057,-0.13,-0.344
96.0,-9.694,-3.428,3.829,-0.057,-0.059,-0.314
100.0,-9.694,-3.428,3.829,-0.057,-0.059,-0.314
104.0,-9.694,-3.428,3.961,-0.057,-0.059,-0.314
108.0,-10.266,-3.499,3.961,-0.06,0.009,-0.278
112.0,-10.266,-3.499,3.961,-0.06,0.009,-0.278
116.0,-10.535,-3.69,4.089,-0.081,0.056,-0.249
120.0,-10.535,-3.69,4.089,-0.081,0.056,-0.249
124.0,-10.234,-4.05,4.124,-0.081,0.056,-0.249
128.0,-10.234,-4.05,4.124,-0.09,0.085,-0.235
132.0,-10.234,-4.05,4.124,-0.09,0.085,-0.235
136.0,-10.032,-4.282,4.232,-0.052,0.136,-0.236
140.0,-10.032,-4.282,4.232,-0.052,0.136,-0.236
144.0,-10.301,-4.287,4.38,-0.052,0.136,-0.238
148.0,-10.301,-4.287,4.38,0.031,0.226,-0.238
152.0,-10.301,-4.287,4.38,0.031,0.226,-0.238
156.0,-10.81,-4.195,4.505,0.133,0.328,-0.217
160.0,-10.81,-4.195,4.505,0.133,0.328,-0.217
164.0,-10.75,-3.933,4.874,0.133,0.328,-0.217
168.0,-10.75,-3.933,4.874,0.228,0.426,-0.153
172.0,-10.75,-3.933,4.874,0.228,0.426,-0.153
176.0,-10.704,-3.874,5.429,0.289,0.515,-0.062
180.0,-10.704,-3.874,5.429,0.289,0.515,-0.062
183.0,-10.704,-4.137,5.965,0.289,0.515,-0.062
187.0,-10.828,-4.137,5.965,0.347,0.549,0.045
191.0,-10.828,-4.137,5.965,0.347,0.549,0.045
195.0,-10.684,-4.217,6.257,0.446,0.468,0.151
199.0,-10.684,-4.217,6.257,0.446,0.468,0.151
203.0,-10.684,-4.217,6.257,0.446,0.468,0.151
206.0,-10.201,-4.294,6.292,0.547,0.326,0.229
210.0,-10.201,-4.294,6.292,0.547,0.326,0.229
214.0,-9.372,-3.904,6.068,0.631,0.156,0.24
218.0,-9.372,-3.904,6.068,0.631,0.156,0.24
222.0,-9.372,-3.904,6.068,0.631,0.156,0.24
225.0,-8.099,-3.705,5.445,0.654,-0.025,0.21
229.0,-8.099,-3.705,5.445,0.654,-0.025,0.21
233.0,-6.723,-3.543,4.717,0.654,-0.025,0.21
237.0,-6.723,-3.543,4.717,0.647,-0.192,0.179
241.0,-6.723,-3.543,4.717,0.647,-0.192,0.179
244.0,-5.843,-2.944,4.005,0.626,-0.297,0.141
248.0,-5.843,-2.944,4.005,0.626,-0.297,0.141
252.0,-5.843,-2.944,4.005,0.626,-0.297,0.141
256.0,-5.288,-2.432,3.494,0.531,-0.364,0.088
260.0,-5.288,-2.432,3.494,0.531,-0.364,0.088
263.0,-4.905,-2.356,3.128,0.373,-0.43,0.037
267.0,-4.905,-2.356,3.128,0.373,-0.43,0.037
271.0,-4.905,-2.356,3.128,0.373,-0.43,0.037
275.0,-4.641,-2.405,2.82,0.211,-0.498,-0.014
279.0,-4.641,-2.405,2.82,0.211,-0.498,-0.014
283.0,-4.546,-2.381,2.615,0.211,-0.566,-0.074
287.0,-4.546,-2.381,2.615,0.065,-0.566,-0.074
291.0,-4.546,-2.381,2.615,0.065,-0.566,-0.074
294.0,-4.612,-2.363,2.62,-0.071,-0.641,-0.142
298.0,-4.612,-2.363,2.62,-0.071,-0.641,-0.142
302.0,-4.756,-2.305,2.763,-0.071,-0.739,-0.211
306.0,-4.756,-2.305,2.763,-0.196,-0.739,-0.211
310.0,-4.756,-2.305,2.763,-0.196,-0.739,-0.211
314.0,-5.011,-2.353,3.151,-0.32,-0.869,-0.278
318.0,-5.011,-2.353,3.151,-0.32,-0.869,-0.278
322.0,-5.381,-2.611,3.667,-0.449,-1.052,-0.359
326.0,-5.381,-2.611,3.667,-0.449,-1.052,-0.359
330.0,-5.381,-2.611,3.667,-0.449,-1.052,-0.359
334.0,-5.808,-2.909,4.027,-0.58,-1.288,-0.475
338.0,-5.808,-2.909,4.027,-0.58,-1.288,-0.475
342.0,-6.284,-3.22,4.527,-0.702,-1.563,-0.628
346.0,-6.284,-3.22,4.527,-0.702,-1.563,-0.628
350.0,-6.284,-3.22,4.527,-0.702,-1.563,-0.628
354.0,-6.655,-3.574,4.885,-0.822,-1.884,-0.815
358.0,-6.655,-3.574,4.885,-0.822,-1.884,-0.815
362.0,-6.687,-4.184,5.045,-0.965,-2.211,-1.018
366.0,-6.687,-4.184,5.045,-0.965,-2.211,-1.018
370.0,-6.687,-4.184,5.045,-0.965,-2.211,-1.018
374.0,-6.391,-4.705,5.28,-1.162,-2.505,-1.223
378.0,-6.391,-4.705,5.28,-1.162,-2.505,-1.223
382.0,-6.823,-5.581,5.551,-1.424,-2.741,-1.428
386.0,-6.823,-5.581,5.551,-1.424,-2.741,-1.428
390.0,-6.823,-5.581,5.551,-1.424,-2.741,-1.428
394.0,-7.321,-6.558,6.248,-1.693,-3.051,-1.671
398.0,-7.321,-6.558,6.248,-1.693,-3.051,-1.671
402.0,-8.6,-7.696,7.172,-1.984,-3.333,-2.001
406.0,-8.6,-7.696,7.172,-1.984,-3.333,-2.001
410.0,-8.6,-7.696,8.0,-1.984,-3.333,-2.001
414.0,-10.128,-8.856,8.0,-2.235,-3.634,-2.425
418.0,-10.128,-8.856,8.0,-2.235,-3.634,-2.425
422.0,-11.462,-9.848,8.73,-2.395,-3.938,-2.896
426.0,-11.462,-9.848,8.73,-2.395,-3.938,-2.896
431.0,-12.035,-10.572,9.296,-2.395,-3.938,-3.364
435.0,-12.035,-10.572,9.296,-2.427,-4.198,-3.364
439.0,-12.035,-10.572,9.296,-2.427,-4.198,-3.364
443.0,-11.782,-10.843,9.836,-2.331,-4.39,-3.797
447.0,-11.782,-10.843,9.836,-2.331,-4.39,-3.797
451.0,-10.704,-10.867,10.258,-2.127,-4.553,-4.204
456.0,-10.704,-10.867,10.258,-2.127,-4.553,-4.204
460.0,-9.44,-10.497,10.88,-2.127,-4.553,-4.204
464.0,-9.44,-10.497,10.88,-1.845,-4.679,-4.618
468.0,-9.44,-10.497,10.88,-1.845,-4.679,-4.618
472.0,-8.817,-10.097,11.57,-1.518,-4.755,-4.94
477.0,-8.817,-10.097,11.57,-1.518,-4.755,-4.94
481.0,-9.105,-10.317,11.856,-1.17,-4.809,-4.995
485.0,-9.105,-10.317,11.856,-1.17,-4.809,-4.995
489.0,-9.105,-10.317,11.856,-1.17,-4.809,-4.995
493.0,-9.792,-10.429,11.578,-0.791,-4.851,-4.995
497.0,-9.792,-10.429,11.578,-0.791,-4.851,-4.995
502.0,-10.005,-10.045,11.535,-0.378,-4.87,-4.995
506.0,-10.005,-10.045,11.535,-0.378,-4.87,-4.995
510.0,-9.395,-9.302,11.748,0.04,-4.873,-4.995
514.0,-9.395,-9.302,11.748,0.04,-4.873,-4.995
518.0,-9.395,-9.302,11.748,0.04,-4.873,-4.995
522.0,-8.294,-8.185,11.98,0.434,-4.852,-4.995
526.0,-8.294,-8.185,11.98,0.434,-4.852,-4.995
530.0,-7.086,-7.07,12.319,0.807,-4.786,-4.993
534.0,-7.086,-7.07,12.319,0.807,-4.786,-4.993
538.0,-7.086,-7.07,12.319,0.807,-4.786,-4.993
542.0,-6.237,-5.676,12.148,1.164,-4.668,-4.9
546.0,-6.237,-5.676,12.148,1.164,-4.668,-4.9
550.0,-6.033,-4.494,11.804,1.44,-4.461,-4.668
554.0,-6.033,-4.494,11.804,1.44,-4.461,-4.668
558.0,-6.033,-4.494,11.804,1.44,-4.461,-4.668
562.0,-5.639,-3.763,11.674,1.671,-4.257,-4.367
566.0,-5.639,-3.763,11.674,1.671,-4.257,-4.367
570.0,-5.076,-3.252,11.482,1.841,-3.987,-4.023
574.0,-5.076,-3.252,11.482,1.841,-3.987,-4.023
578.0,-5.076,-3.252,11.563,1.841,-3.987,-4.023
582.0,-4.175,-2.74,11.563,1.991,-3.662,-3.689
586.0,-4.175,-2.74,11.563,1.991,-3.662,-3.689
590.0,-3.118,-2.177,11.791,2.165,-3.315,-3.384
594.0,-3.118,-2.177,11.791,2.165,-3.315,-3.384
598.0,-3.118,-1.44,11.796,2.165,-3.315,-3.384
602.0,-2.111,-1.44,11.796,2.376,-2.956,-3.082
606.0,-2.111,-1.44,11.796,2.376,-2.956,-3.082
610.0,-1.305,-0.68,11.785,2.614,-2.594,-2.749
614.0,-1.305,-0.68,11.785,2.614,-2.594,-2.749
618.0,-0.844,-0.133,11.556,2.614,-2.594,-2.749
622.0,-0.844,-0.133,11.556,2.868,-2.259,-2.388
626.0,-0.844,-0.133,11.556,2.868,-2.259,-2.388
630.0,-0.339,0.358,11.129,3.094,-1.994,-2.021
634.0,-0.339,0.358,11.129,3.094,-1.994,-2.021
638.0,0.239,0.769,10.519,3.094,-1.994,-2.021
642.0,0.239,0.769,10.519,3.262,-1.767,-1.659
645.0,0.239,0.769,10.519,3.262,-1.767,-1.659
649.0,0.73,1.168,9.797,3.352,-1.549,-1.325
653.0,0.73,1.168,9.797,3.352,-1.549,-1.325
657.0,0.73,1.168,9.797,3.352,-1.549,-1.325
660.0,1.36,1.524,9.094,3.375,-1.366,-1.023
664.0,1.36,1.524,9.094,3.375,-1.366,-1.023
668.0,1.977,1.722,8.489,3.334,-1.19,-0.744
672.0,1.977,1.722,8.489,3.334,-1.19,-0.744
675.0,1.977,1.722,8.489,3.334,-1.19,-0.744
679.0,2.376,1.841,7.939,3.228,-0.991,-0.48
683.0,2.376,1.841,7.939,3.228,-0.991,-0.48
686.0,2.376,1.841,7.939,3.228,-0.991,-0.48
690.0,2.7,1.848,7.478,3.066,-0.778,-0.223
694.0,2.7,1.848,7.478,3.066,-0.778,-0.223
698.0,3.178,1.574,7.097,2.85,-0.546,0.036
701.0,3.178,1.574,7.097,2.85,-0.546,0.036
705.0,3.178,1.574,7.097,2.85,-0.546,0.036
709.0,3.614,1.122,6.932,2.604,-0.284,0.302
712.0,3.614,1.122,6.932,2.604,-0.284,0.302
716.0,3.614,1.122,6.932,2.604,-0.284,0.302
720.0,3.701,0.355,6.756,2.352,0.008,0.578
723.0,3.701,0.355,6.756,2.352,0.008,0.578
727.0,2.998,-0.559,6.234,2.352,0.008,0.877
730.0,2.998,-0.559,6.234,2.112,0.316,0.877
734.0,2.998,-0.559,6.234,2.112,0.316,0.877
738.0,1.669,-1.538,5.338,1.892,0.605,1.187
741.0,1.669,-1.538,5.338,1.892,0.605,1.187
745.0,1.669,-1.538,5.338,1.892,0.605,1.187
749.0,0.336,-2.56,4.222,1.706,0.835,1.457
752.0,0.336,-2.56,4.222,1.706,0.835,1.457
756.0,0.336,-3.322,3.1,1.706,0.835,1.457
759.0,-0.657,-3.322,3.1,1.574,1.004,1.642
763.0,-0.657,-3.322,3.1,1.574,1.004,1.642
767.0,-1.248,-3.618,2.087,1.503,1.125,1.76
771.0,-1.248,-3.618,2.087,1.503,1.125,1.76
774.0,-1.248,-3.618,2.087,1.503,1.125,1.76
778.0,-1.455,-3.73,0.896,1.471,1.221,1.893
782.0,-1.455,-3.73,0.896,1.471,1.221,1.893
786.0,-1.36,-3.854,-0.243,1.471,1.221,1.893
789.0,-1.36,-3.854,-0.243,1.43,1.339,2.136
793.0,-1.36,-3.854,-0.243,1.43,1.339,2.136
797.0,-1.131,-4.052,-0.702,1.333,1.521,2.528
801.0,-1.131,-4.052,-0.702,1.333,1.521,2.528
805.0,-1.131,-4.052,-0.702,1.333,1.521,2.528
809.0,-2.006,-4.883,-0.867,1.171,1.801,3.041
812.0,-2.006,-4.883,-0.867,1.171,1.801,3.041
816.0,-2.391,-5.725,-0.821,0.995,2.027,3.629
820.0,-2.391,-5.725,-0.821,0.995,2.027,3.629
824.0,-2.391,-5.725,-0.821,0.995,2.027,3.629
828.0,-3.129,-6.933,-0.84,0.746,2.368,4.171
831.0,-3.129,-6.933,-0.84,0.746,2.368,4.171
835.0,-3.578,-8.143,-1.031,0.746,2.368,4.563
839.0,-3.578,-8.143,-1.031,0.431,2.774,4.563
843.0,-3.578,-8.143,-1.031,0.431,2.774,4.563
847.0,-3.639,-9.027,-1.247,0.024,3.188,4.755
851.0,-3.639,-9.027,-1.247,0.024,3.188,4.755
854.0,-3.639,-9.027,-1.874,0.024,3.188,4.755
858.0,-3.596,-8.872,-1.874,-0.445,3.61,4.795
862.0,-3.596,-8.872,-1.874,-0.445,3.61,4.795
866.0,-3.449,-8.712,-2.7,-0.918,4.056,4.821
870.0,-3.449,-8.712,-2.7,-0.918,4.056,4.821
874.0,-3.449,-8.712,-2.7,-0.918,4.056,4.821
878.0,-3.493,-9.064,-2.998,-1.328,4.505,4.871
882.0,-3.493,-9.064,-2.998,-1.328,4.505,4.871
886.0,-3.961,-9.374,-2.897,-1.588,4.886,4.909
889.0,-3.961,-9.374,-2.897,-1.588,4.886,4.909
893.0,-3.961,-9.374,-2.897,-1.588,4.886,4.909
897.0,-4.808,-10.073,-2.167,-1.669,5.014,4.952
901.0,-4.808,-10.073,-2.167,-1.669,5.014,4.952
905.0,-5.824,-11.118,-1.123,-1.591,5.015,4.994
909.0,-5.824,-11.118,-1.123,-1.591,5.015,4.994
913.0,-5.824,-11.118,-1.123,-1.591,5.015,4.994
917.0,-6.629,-11.931,-0.21,-1.401,5.015,5.011
921.0,-6.629,-11.931,-0.21,-1.401,5.015,5.011
925.0,-7.165,-12.528,0.651,-1.179,5.015,5.013
929.0,-7.165,-12.528,0.651,-1.179,5.015,5.013
933.0,-7.165,-12.528,0.651,-1.179,5.015,5.013
937.0,-7.578,-13.424,1.534,-0.99,5.015,5.013
941.0,-7.578,-13.424,1.534,-0.99,5.015,5.013
945.0,-7.723,-14.8,2.359,-0.831,5.015,5.001
949.0,-7.723,-14.8,2.359,-0.831,5.015,5.001
953.0,-7.723,-14.8,2.359,-0.831,5.015,5.001
956.0,-7.777,-16.314,3.2,-0.667,5.015,4.843
960.0,-7.777,-16.314,3.2,-0.667,5.015,4.843
964.0,-7.814,-17.691,4.187,-0.512,4.966,4.506
968.0,-7.814,-17.691,4.187,-0.512,4.966,4.506
972.0,-7.814,-17.691,4.187,-0.512,4.966,4.506
976.0,-7.672,-17.965,5.192,-0.431,4.707,4.062
980.0,-7.672,-17.965,5.192,-0.431,4.707,4.062
984.0,-6.994,-17.974,6.61,-0.511,4.367,3.586
988.0,-6.994,-17.974,6.61,-0.511,4.367,3.586
992.0,-6.994,-17.974,6.61,-0.511,4.367,3.586
995.0,-6.394,-18.287,8.57,-0.812,4.01,3.086
999.0,-6.394,-18.287,8.57,-0.812,4.01,3.086
1003.0,-6.323,-19.226,10.843,-1.307,3.622,2.522
1007.0,-6.323,-19.226,10.843,-1.307,3.622,2.522
1011.0,-6.323,-19.226,10.843,-1.307,3.622,2.522
1016.0,-6.593,-19.6,13.345,-1.897,3.146,1.849
1020.0,-6.593,-19.6,13.345,-1.897,3.146,1.849
1024.0,-6.466,-19.6,15.279,-2.417,2.583,1.073
1028.0,-6.466,-19.6,15.279,-2.417,2.583,1.073
1032.0,-6.466,-19.6,15.279,-2.417,2.583,1.073
1036.0,-5.248,-19.6,16.763,-2.75,1.983,0.248
1040.0,-5.248,-19.6,16.763,-2.75,1.983,0.248
1044.0,-3.409,-19.6,17.878,-2.876,1.381,-0.615
1048.0,-3.409,-19.6,17.878,-2.876,1.381,-0.615
1052.0,-1.424,-19.6,18.662,-2.876,1.381,-1.476
1057.0,-1.424,-19.6,18.662,-2.818,0.809,-1.476
1061.0,-1.424,-19.6,18.662,-2.818,0.809,-1.476
1065.0,0.511,-19.6,19.443,-2.63,0.278,-2.284
1069.0,0.511,-19.6,19.443,-2.63,0.278,-2.284
1073.0,1.764,-19.6,19.6,-2.366,-0.226,-3.034
1077.0,1.764,-19.6,19.6,-2.366,-0.226,-3.034
1081.0,1.764,-19.6,19.6,-2.366,-0.226,-3.034
1086.0,1.865,-19.6,19.6,-2.055,-0.757,-3.75
1090.0,1.865,-19.6,19.6,-2.055,-0.757,-3.75
1094.0,1.158,-19.6,19.6,-1.682,-1.345,-4.473
1098.0,1.158,-19.6,19.6,-1.682,-1.345,-4.473
1102.0,-0.008,-19.6,19.6,-1.247,-1.936,-4.954
1107.0,-0.008,-19.6,19.6,-1.247,-1.936,-4.954
1111.0,-0.008,-19.6,19.6,-1.247,-1.936,-4.954
1115.0,-1.581,-19.6,19.189,-0.824,-2.469,-4.995
1119.0,-1.581,-19.6,19.189,-0.824,-2.469,-4.995
1124.0,-3.354,-19.6,17.952,-0.515,-2.938,-4.995
1128.0,-3.354,-19.6,17.952,-0.515,-2.938,-4.995
1132.0,-5.231,-19.6,16.481,-0.369,-3.348,-4.995
1136.0,-5.231,-19.6,16.481,-0.369,-3.348,-4.995
1141.0,-5.231,-19.6,14.815,-0.369,-3.348,-4.995
1145.0,-6.757,-19.6,14.815,-0.369,-3.695,-4.995
1149.0,-6.757,-19.6,14.815,-0.369,-3.695,-4.995
1153.0,-7.477,-19.6,13.131,-0.445,-3.927,-4.995
1158.0,-7.477,-19.6,13.131,-0.445,-3.927,-4.995
1162.0,-7.284,-19.6,11.557,-0.531,-4.02,-4.995
1166.0,-7.284,-19.6,11.557,-0.531,-4.02,-4.995
1170.0,-7.284,-19.6,10.019,-0.531,-4.02,-4.995
1175.0,-6.879,-19.6,10.019,-0.582,-3.981,-4.995
1179.0,-6.879,-19.6,10.019,-0.582,-3.981,-4.995
1183.0,-6.579,-19.6,8.553,-0.569,-3.813,-4.995
1187.0,-6.579,-19.6,8.553,-0.569,-3.813,-4.995
1191.0,-6.451,-19.6,7.274,-0.495,-3.533,-4.995
1196.0,-6.451,-19.6,7.274,-0.495,-3.533,-4.995
1200.0,-6.451,-19.6,6.068,-0.495,-3.533,-4.995
1204.0,-6.531,-19.594,6.068,-0.364,-3.177,-4.995
1208.0,-6.531,-19.594,6.068,-0.364,-3.177,-4.995
1212.0,-7.03,-18.654,5.014,-0.174,-2.769,-4.995
1216.0,-7.03,-18.654,5.014,-0.174,-2.769,-4.995
1221.0,-8.226,-16.965,4.367,0.087,-2.354,-4.995
1225.0,-8.226,-16.965,4.367,0.087,-2.354,-4.995
1229.0,-8.226,-16.965,4.367,0.087,-2.354,-4.995
1233.0,-9.998,-15.006,3.826,0.427,-1.969,-4.995
1237.0,-9.998,-15.006,3.826,0.427,-1.969,-4.995
1241.0,-11.712,-12.706,3.223,0.833,-1.625,-4.995
1245.0,-11.712,-12.706,3.223,0.833,-1.625,-4.995
1249.0,-11.712,-10.105,2.634,0.833,-1.625,-4.995
1253.0,-12.642,-10.105,2.634,1.263,-1.33,-4.995
1258.0,-12.642,-10.105,2.634,1.263,-1.33,-4.995
1262.0,-12.85,-7.422,2.362,1.672,-1.072,-4.995
1266.0,-12.85,-7.422,2.362,1.672,-1.072,-4.995
1270.0,-13.371,-4.626,2.071,2.064,-0.834,-4.892
1274.0,-13.371,-4.626,2.071,2.064,-0.834,-4.892
1278.0,-13.371,-4.626,2.071,2.064,-0.834,-4.892
1282.0,-14.195,-2.091,1.558,2.337,-0.618,-4.377
1286.0,-14.195,-2.091,1.558,2.337,-0.618,-4.377
1290.0,-14.645,0.383,1.241,2.546,-0.411,-3.765
1294.0,-14.645,0.383,1.241,2.546,-0.411,-3.765
1298.0,-14.645,0.383,1.241,2.546,-0.411,-3.765
1302.0,-15.043,2.499,0.726,2.718,-0.209,-3.125
1306.0,-15.043,2.499,0.726,2.718,-0.209,-3.125
1310.0,-15.26,4.289,0.251,2.827,0.01,-2.468
1314.0,-15.26,4.289,0.251,2.827,0.01,-2.468
1318.0,-15.26,4.289,0.251,2.827,0.01,-2.468
1322.0,-14.898,5.857,-0.148,2.889,0.256,-1.841
1326.0,-14.898,5.857,-0.148,2.889,0.256,-1.841
1330.0,-14.78,7.384,-0.437,2.924,0.547,-1.272
1334.0,-14.78,7.384,-0.437,2.924,0.547,-1.272
1338.0,-14.78,7.384,-0.957,2.924,0.547,-1.272
1342.0,-15.151,8.669,-0.957,2.92,0.884,-0.719
1346.0,-15.151,8.669,-0.957,2.92,0.884,-0.719
1350.0,-15.379,9.505,-1.667,2.838,1.266,-0.096
1354.0,-15.379,9.505,-1.667,2.838,1.266,-0.096
1358.0,-15.379,9.673,-2.151,2.838,1.266,-0.096
1362.0,-15.071,9.673,-2.151,2.647,1.699,0.632
1366.0,-15.071,9.673,-2.151,2.647,1.699,0.632
1370.0,-14.446,9.087,-2.229,2.343,2.171,1.418
1374.0,-14.446,9.087,-2.229,2.343,2.171,1.418
1378.0,-14.446,8.125,-1.926,2.343,2.171,1.418
1382.0,-13.951,8.125,-1.926,1.939,2.659,2.173
1385.0,-13.951,8.125,-1.926,1.939,2.659,2.173
1389.0,-13.706,7.15,-1.491,1.47,3.131,2.839
1393.0,-13.706,7.15,-1.491,1.47,3.131,2.839
1397.0,-13.706,7.15,-0.857,1.47,3.131,2.839
1401.0,-13.661,6.196,-0.857,0.971,3.568,3.408
1405.0,-13.661,6.196,-0.857,0.971,3.568,3.408
1409.0,-13.856,5.308,-0.133,0.474,3.955,3.891
1413.0,-13.856,5.308,-0.133,0.474,3.955,3.891
1417.0,-13.856,5.308,-0.133,0.474,3.955,3.891
1421.0,-14.17,4.42,0.553,-0.006,4.293,4.315
1424.0,-14.17,4.42,0.553,-0.006,4.293,4.315
1428.0,-14.687,3.269,1.335,-0.45,4.594,4.703
1432.0,-14.687,3.269,1.335,-0.45,4.594,4.703
1436.0,-14.687,3.269,1.335,-0.45,4.594,4.703
1440.0,-15.436,1.871,2.125,-0.84,4.841,4.975
1444.0,-15.436,1.871,2.125,-0.84,4.841,4.975
1448.0,-16.266,0.434,2.744,-1.151,4.991,5.013
1452.0,-16.266,0.434,2.744,-1.151,4.991,5.013
1456.0,-16.266,0.434,2.744,-1.151,4.991,5.013
1460.0,-16.999,-0.91,3.392,-1.373,5.015,5.013
1464.0,-16.999,-0.91,3.392,-1.373,5.015,5.013
1468.0,-17.475,-2.1,3.964,-1.505,5.015,5.013
1472.0,-17.475,-2.1,3.964,-1.505,5.015,5.013
1476.0,-17.475,-2.1,3.964,-1.505,5.015,5.013
1480.0,-17.798,-3.306,4.753,-1.557,5.015,5.013
1484.0,-17.798,-3.306,4.753,-1.557,5.015,5.013
1488.0,-18.215,-4.513,5.775,-1.56,5.015,5.013
1492.0,-18.215,-4.513,5.775,-1.56,5.015,5.013
1496.0,-18.215,-4.513,5.775,-1.56,5.015,5.013
1500.0,-18.818,-5.443,6.885,-1.524,5.015,5.013
1504.0,-18.818,-5.443,6.885,-1.524,5.015,5.013
1508.0,-19.437,-6.546,8.286,-1.449,5.015,5.013
1512.0,-19.437,-6.546,8.286,-1.449,5.015,5.013
1516.0,-19.437,-6.546,8.286,-1.449,5.015,5.013
1520.0,-19.6,-7.236,9.339,-1.343,4.998,5.013
1524.0,-19.6,-7.236,9.339,-1.343,4.998,5.013
1528.0,-19.6,-7.607,10.326,-1.211,4.933,5.013
1532.0,-19.6,-7.607,10.326,-1.211,4.933,5.013
1536.0,-19.6,-7.879,11.42,-1.211,4.933,5.013
1540.0,-19.6,-7.879,11.42,-1.058,4.857,5.013
1544.0,-19.6,-7.879,11.42,-1.058,4.857,5.013
1548.0,-19.6,-7.859,12.525,-0.887,4.762,5.013
1552.0,-19.6,-7.859,12.525,-0.887,4.762,5.013
1556.0,-19.6,-7.772,13.518,-0.714,4.62,5.013
1560.0,-19.6,-7.772,13.518,-0.714,4.62,5.013
1564.0,-19.6,-7.772,13.518,-0.714,4.62,5.013
1568.0,-19.6,-7.402,13.835,-0.561,4.44,5.013
1572.0,-19.6,-7.402,13.835,-0.561,4.44,5.013
1576.0,-19.6,-6.725,13.691,-0.435,4.258,5.013
1581.0,-19.6,-6.725,13.691,-0.435,4.258,5.013
1585.0,-19.6,-6.725,13.691,-0.435,4.258,5.013
1589.0,-19.6,-5.947,13.994,-0.342,4.092,5.013
1593.0,-19.6,-5.947,13.994,-0.342,4.092,5.013
1597.0,-19.6,-5.55,14.993,-0.284,3.947,5.013
1601.0,-19.6,-5.55,14.993,-0.284,3.947,5.013
1605.0,-19.6,-4.731,15.858,-0.284,3.947,5.013
1609.0,-19.6,-4.731,15.858,-0.231,3.821,5.013
1613.0,-19.6,-4.731,15.858,-0.231,3.821,5.013
1617.0,-19.287,-5.588,15.775,-0.199,3.677,5.013
1621.0,-19.287,-5.588,15.775,-0.199,3.677,5.013
1625.0,-19.457,-4.04,15.815,-0.173,3.42,5.013
1630.0,-19.457,-4.04,15.815,-0.173,3.42,5.013
1634.0,-19.457,-4.04,15.815,-0.173,3.42,5.013
1638.0,-19.574,-4.868,18.131,-0.191,3.356,5.013
1642.0,-19.574,-4.868,18.131,-0.191,3.356,5.013
1646.0,-19.6,-4.644,19.244,-0.198,3.117,5.013
1650.0,-19.6,-4.644,19.244,-0.198,3.117,5.013
1654.0,-19.6,-4.346,18.81,-0.198,3.117,5.013
1658.0,-19.6,-4.346,18.81,-0.135,2.699,5.013
1662.0,-19.6,-4.346,18.81,-0.135,2.699,5.013
1666.0,-19.6,-4.26,17.949,-0.123,2.309,5.013
1670.0,-19.6,-4.26,17.949,-0.123,2.309,5.013
1674.0,-19.6,-4.499,17.015,-0.123,2.025,5.013
1678.0,-19.6,-4.499,17.015,-0.103,2.025,5.013
1683.0,-19.6,-4.499,17.015,-0.103,2.025,5.013
1687.0,-19.6,-4.445,16.274,-0.073,1.833,5.013
1691.0,-19.6,-4.445,16.274,-0.073,1.833,5.013
1695.0,-19.6,-4.286,15.81,-0.128,1.679,5.013
1699.0,-19.6,-4.286,15.81,-0.128,1.679,5.013
1703.0,-19.6,-4.286,15.81,-0.128,1.679,5.013
1707.0,-19.6,-4.247,15.572,-0.283,1.519,5.013
1711.0,-19.6,-4.247,15.572,-0.283,1.519,5.013
1715.0,-19.6,-4.35,15.324,-0.499,1.331,5.013
1719.0,-19.6,-4.35,15.324,-0.499,1.331,5.013
1723.0,-18.636,-4.454,14.621,-0.499,1.331,5.013
1727.0,-18.636,-4.454,14.621,-0.737,1.123,4.957
1732.0,-18.636,-4.454,14.621,-0.737,1.123,4.957
1736.0,-16.129,-4.556,13.898,-0.965,0.909,4.556
1740.0,-16.129,-4.556,13.898,-0.965,0.909,4.556
1744.0,-13.458,-4.753,13.159,-1.154,0.685,4.019
1748.0,-13.458,-4.753,13.159,-1.154,0.685,4.019
1752.0,-13.458,-4.753,13.159,-1.154,0.685,4.019
1756.0,-10.602,-5.075,12.515,-1.266,0.453,3.501
1760.0,-10.602,-5.075,12.515,-1.266,0.453,3.501
1764.0,-7.802,-5.501,12.138,-1.277,0.19,3.012
1768.0,-7.802,-5.501,12.138,-1.277,0.19,3.012
1772.0,-7.802,-5.501,12.138,-1.277,0.19,3.012
1776.0,-5.381,-6.153,11.432,-1.182,-0.112,2.582
1780.0,-5.381,-6.153,11.432,-1.182,-0.112,2.582
1784.0,-3.311,-7.064,10.201,-0.982,-0.38,2.231
1788.0,-3.311,-7.064,10.201,-0.982,-0.38,2.231
1792.0,-1.694,-8.176,8.658,-0.982,-0.38,2.231
1796.0,-1.694,-8.176,8.658,-0.699,-0.541,1.976
1800.0,-1.694,-8.176,8.658,-0.699,-0.541,1.976
1804.0,-0.472,-9.359,7.357,-0.373,-0.591,1.81
1808.0,-0.472,-9.359,7.357,-0.373,-0.591,1.81
1812.0,0.564,-10.332,6.387,-0.373,-0.591,1.686
1816.0,0.564,-10.332,6.387,-0.038,-0.577,1.686
1820.0,0.564,-10.332,6.387,-0.038,-0.577,1.686
1824.0,1.595,-10.686,5.885,0.276,-0.561,1.56
1828.0,1.595,-10.686,5.885,0.276,-0.561,1.56
1832.0,2.861,-10.52,5.52,0.276,-0.617,1.397
1836.0,2.861,-10.52,5.52,0.544,-0.617,1.397
1840.0,2.861,-10.52,5.52,0.544,-0.617,1.397
1844.0,4.437,-10.376,4.856,0.769,-0.764,1.143
1848.0,4.437,-10.376,4.856,0.769,-0.764,1.143
1852.0,5.831,-10.485,3.809,0.769,-0.764,1.143
1856.0,5.831,-10.485,3.809,0.96,-0.909,0.768
1860.0,5.831,-10.485,3.809,0.96,-0.909,0.768
1863.0,6.331,-10.48,2.621,1.105,-1.003,0.322
1867.0,6.331,-10.48,2.621,1.105,-1.003,0.322
1871.0,5.648,-10.381,1.779,1.105,-1.003,0.322
1875.0,5.648,-10.381,1.779,1.197,-1.008,-0.14
1879.0,5.648,-10.381,1.779,1.197,-1.008,-0.14
1883.0,3.836,-10.181,1.385,1.242,-0.971,-0.634
1887.0,3.836,-10.181,1.385,1.242,-0.971,-0.634
1891.0,1.597,-10.089,1.475,1.242,-0.971,-0.634
1895.0,1.597,-10.089,1.475,1.235,-0.972,-1.155
1899.0,1.597,-10.089,1.475,1.235,-0.972,-1.155
1903.0,-0.658,-9.98,1.628,1.187,-0.987,-1.679
1907.0,-0.658,-9.98,1.628,1.187,-0.987,-1.679
1911.0,-2.942,-9.849,1.792,1.187,-0.987,-2.174
1915.0,-2.942,-9.849,1.792,1.092,-1.03,-2.174
1919.0,-2.942,-9.849,1.792,1.092,-1.03,-2.174
1923.0,-5.04,-9.824,1.881,0.965,-1.106,-2.605
1927.0,-5.04,-9.824,1.881,0.965,-1.106,-2.605
1931.0,-6.791,-9.849,1.854,0.965,-1.197,-2.982
1935.0,-6.791,-9.849,1.854,0.804,-1.197,-2.982
1939.0,-6.791,-9.849,1.854,0.804,-1.197,-2.982
1943.0,-8.081,-10.01,1.778,0.621,-1.288,-3.302
1947.0,-8.081,-10.01,1.778,0.621,-1.288,-3.302
1951.0,-8.862,-10.14,1.743,0.43,-1.373,-3.578
1955.0,-8.862,-10.14,1.743,0.43,-1.373,-3.578
1959.0,-8.862,-10.14,1.743,0.43,-1.373,-3.578
1963.0,-9.271,-10.049,1.699,0.249,-1.451,-3.841
1968.0,-9.271,-10.049,1.699,0.249,-1.451,-3.841
1972.0,-9.568,-9.715,1.677,0.091,-1.514,-4.106
1976.0,-9.568,-9.715,1.677,0.091,-1.514,-4.106
1980.0,-9.568,-9.715,1.708,0.091,-1.514,-4.106
1984.0,-9.954,-9.22,1.708,-0.053,-1.563,-4.375
1988.0,-9.954,-9.22,1.708,-0.053,-1.563,-4.375
1992.0,-10.511,-8.708,1.932,-0.205,-1.586,-4.634
1996.0,-10.511,-8.708,1.932,-0.205,-1.586,-4.634
2000.0,-11.272,-8.457,2.352,-0.205,-1.591,-4.874
2004.0,-11.272,-8.457,2.352,-0.387,-1.591,-4.874
2008.0,-11.272,-8.457,2.352,-0.387,-1.591,-4.874
2013.0,-12.202,-8.45,2.841,-0.601,-1.592,-4.99
2017.0,-12.202,-8.45,2.841,-0.601,-1.592,-4.99
2021.0,-13.159,-8.645,3.354,-0.822,-1.59,-4.995
2025.0,-13.159,-8.645,3.354,-0.822,-1.59,-4.995
2029.0,-13.982,-9.071,3.821,-0.822,-1.59,-4.995
2033.0,-13.982,-9.071,3.821,-1.018,-1.575,-4.995
2038.0,-13.982,-9.071,3.821,-1.018,-1.575,-4.995
2042.0,-14.812,-9.757,4.338,-1.173,-1.536,-4.995
2046.0,-14.812,-9.757,4.338,-1.173,-1.536,-4.995
2050.0,-15.787,-10.485,4.761,-1.282,-1.48,-4.995
2054.0,-15.787,-10.485,4.761,-1.282,-1.48,-4.995
2059.0,-15.787,-10.485,5.198,-1.282,-1.48,-4.995
2063.0,-16.8,-11.081,5.198,-1.346,-1.424,-4.995
2067.0,-16.8,-11.081,5.198,-1.346,-1.424,-4.995
2071.0,-17.695,-11.6,5.849,-1.362,-1.395,-4.995
2076.0,-17.695,-11.6,5.849,-1.362,-1.395,-4.995
2080.0,-18.474,-12.242,6.616,-1.318,-1.414,-4.995
2084.0,-18.474,-12.242,6.616,-1.318,-1.414,-4.995
2088.0,-18.474,-12.842,7.498,-1.318,-1.414,-4.995
2093.0,-18.972,-12.842,7.498,-1.218,-1.478,-4.995
2097.0,-18.972,-12.842,7.498,-1.218,-1.478,-4.995
2101.0,-19.1,-13.265,8.525,-1.074,-1.568,-4.995
2105.0,-19.1,-13.265,8.525,-1.074,-1.568,-4.995
2110.0,-18.887,-13.558,9.723,-0.891,-1.654,-4.995
2114.0,-18.887,-13.558,9.723,-0.891,-1.654,-4.995
2118.0,-18.919,-13.848,11.094,-0.891,-1.654,-4.995
2122.0,-18.919,-13.848,11.094,-0.679,-1.727,-4.995
2127.0,-18.919,-13.848,11.094,-0.679,-1.727,-4.995
2131.0,-19.518,-14.231,12.387,-0.472,-1.811,-4.995
2135.0,-19.518,-14.231,12.387,-0.472,-1.811,-4.995
2140.0,-19.6,-14.623,13.628,-0.294,-1.95,-4.995
2144.0,-19.6,-14.623,13.628,-0.294,-1.95,-4.995
2149.0,-19.6,-15.297,14.832,-0.159,-2.168,-4.995
2153.0,-19.6,-15.297,14.832,-0.159,-2.168,-4.995
2157.0,-19.6,-15.297,15.748,-0.159,-2.168,-4.995
2162.0,-19.6,-16.24,15.748,-0.104,-2.455,-4.995
2166.0,-19.6,-16.24,15.748,-0.104,-2.455,-4.995
2170.0,-19.6,-17.0,15.817,-0.042,-2.782,-4.995
2175.0,-19.6,-17.0,15.817,-0.042,-2.782,-4.995
2179.0,-19.6,-17.674,15.76,-0.078,-3.106,-4.995
2183.0,-19.6,-17.674,15.76,-0.078,-3.106,-4.995
2188.0,-19.6,-18.106,15.745,-0.078,-3.413,-4.995
2192.0,-19.6,-18.106,15.745,-0.134,-3.413,-4.995
2196.0,-19.6,-18.106,15.745,-0.134,-3.413,-4.995
2201.0,-19.6,-18.011,15.792,-0.188,-3.705,-4.995
2205.0,-19.6,-18.011,15.792,-0.188,-3.705,-4.995
2209.0,-19.6,-17.563,15.775,-0.274,-3.968,-4.995
2214.0,-19.6,-17.563,15.775,-0.274,-3.968,-4.995
2218.0,-19.6,-17.046,15.397,-0.414,-4.196,-4.995
2222.0,-19.6,-17.046,15.397,-0.414,-4.196,-4.995
2227.0,-19.6,-16.54,14.772,-0.414,-4.196,-4.995
2231.0,-19.6,-16.54,14.772,-0.592,-4.375,-4.995
2235.0,-19.6,-16.54,14.772,-0.592,-4.375,-4.995
2240.0,-19.592,-16.521,14.052,-0.743,-4.482,-4.995
2244.0,-19.592,-16.521,14.052,-0.743,-4.482,-4.995
2248.0,-18.986,-16.522,13.217,-0.795,-4.52,-4.995
2253.0,-18.986,-16.522,13.217,-0.795,-4.52,-4.995
2257.0,-17.934,-15.911,11.885,-0.723,-4.509,-4.995
2261.0,-17.934,-15.911,11.885,-0.723,-4.509,-4.995
2266.0,-17.934,-15.911,10.623,-0.723,-4.509,-4.995
2270.0,-16.647,-14.7,10.623,-0.552,-4.455,-4.995
2274.0,-16.647,-14.7,10.623,-0.552,-4.455,-4.995
2279.0,-15.516,-13.01,9.506,-0.328,-4.366,-4.995
2283.0,-15.516,-13.01,9.506,-0.328,-4.366,-4.995
2287.0,-14.724,-11.069,8.535,-0.098,-4.247,-4.995
2291.0,-14.724,-11.069,8.535,-0.098,-4.247,-4.995
2296.0,-13.878,-9.057,7.711,-0.098,-4.247,-4.995
2300.0,-13.878,-9.057,7.711,0.118,-4.124,-4.995
2304.0,-13.878,-9.057,7.711,0.118,-4.124,-4.995
2308.0,-12.665,-6.823,6.842,0.336,-4.002,-4.995
2312.0,-12.665,-6.823,6.842,0.336,-4.002,-4.995
2316.0,-11.812,-4.515,5.798,0.543,-3.881,-4.995
2320.0,-11.812,-4.515,5.798,0.543,-3.881,-4.995
2324.0,-11.812,-4.515,5.798,0.543,-3.881,-4.995
2328.0,-11.34,-2.38,4.483,0.746,-3.731,-4.995
2333.0,-11.34,-2.38,4.483,0.746,-3.731,-4.995
2337.0,-11.191,-0.415,3.111,0.914,-3.529,-4.862
2341.0,-11.191,-0.415,3.111,0.914,-3.529,-4.862
2345.0,-11.191,-0.415,1.956,0.914,-3.529,-4.862
2349.0,-11.08,1.316,1.956,1.014,-3.27,-4.223
2353.0,-11.08,1.316,1.956,1.014,-3.27,-4.223
2357.0,-10.998,2.782,0.95,1.109,-2.945,-3.491
2361.0,-10.998,2.782,0.95,1.109,-2.945,-3.491
2365.0,-10.779,3.956,0.27,1.109,-2.945,-3.491
2369.0,-10.779,3.956,0.27,1.178,-2.566,-2.811
2373.0,-10.779,3.956,0.27,1.178,-2.566,-2.811
2377.0,-10.434,4.962,-0.264,1.203,-2.161,-2.195
2381.0,-10.434,4.962,-0.264,1.203,-2.161,-2.195
2385.0,-9.966,5.93,-0.78,1.203,-1.742,-1.626
2389.0,-9.966,5.93,-0.78,1.172,-1.742,-1.626
2393.0,-9.966,5.93,-0.78,1.172,-1.742,-1.626
2397.0,-9.581,6.845,-1.308,1.072,-1.274,-1.067
2401.0,-9.581,6.845,-1.308,1.072,-1.274,-1.067
2405.0,-9.122,7.396,-1.607,0.899,-0.71,-0.484
2409.0,-9.122,7.396,-1.607,0.899,-0.71,-0.484
2413.0,-9.122,7.396,-1.607,0.899,-0.71,-0.484
2417.0,-8.693,7.399,-1.592,0.667,-0.059,0.129
2421.0,-8.693,7.399,-1.592,0.667,-0.059,0.129
2425.0,-8.39,7.006,-1.299,0.4,0.629,0.757
2429.0,-8.39,7.006,-1.299,0.4,0.629,0.757
2432.0,-8.39,7.006,-1.299,0.4,0.629,0.757
2436.0,-8.06,6.348,-0.614,0.117,1.297,1.381
2440.0,-8.06,6.348,-0.614,0.117,1.297,1.381
2444.0,-7.796,5.491,0.214,0.117,1.297,1.381
2448.0,-7.796,5.491,0.214,-0.161,1.906,1.983
2451.0,-7.796,5.491,0.214,-0.161,1.906,1.983
2455.0,-7.619,4.582,1.023,-0.413,2.452,2.559
2459.0,-7.619,4.582,1.023,-0.413,2.452,2.559
2463.0,-7.619,4.582,1.023,-0.413,2.452,2.559
2467.0,-7.698,3.619,1.844,-0.621,2.942,3.114
2470.0,-7.698,3.619,1.844,-0.621,2.942,3.114
2474.0,-8.013,2.708,2.569,-0.778,3.376,3.65
2478.0,-8.013,2.708,2.569,-0.778,3.376,3.65
2482.0,-8.013,2.708,2.569,-0.778,3.376,3.65
2486.0,-8.512,1.73,3.208,-0.89,3.754,4.166
2490.0,-8.512,1.73,3.208,-0.89,3.754,4.166
2493.0,-9.229,0.679,3.677,-0.89,3.754,4.646
2497.0,-9.229,0.679,3.677,-0.964,4.074,4.646
2501.0,-9.229,0.679,3.677,-0.964,4.074,4.646
2505.0,-10.138,-0.261,3.968,-1.013,4.34,4.973
2509.0,-10.138,-0.261,3.968,-1.013,4.34,4.973
2513.0,-11.029,-1.022,4.131,-1.013,4.34,4.973
2517.0,-11.029,-1.022,4.131,-1.037,4.556,5.013
2521.0,-11.029,-1.022,4.131,-1.037,4.556,5.013
2525.0,-12.054,-1.921,4.515,-1.039,4.717,5.013
2529.0,-12.054,-1.921,4.515,-1.039,4.717,5.013
2533.0,-13.415,-3.009,5.108,-1.039,4.717,5.013
2537.0,-13.415,-3.009,5.108,-1.027,4.801,5.013
2541.0,-13.415,-3.009,5.108,-1.027,4.801,5.013
2545.0,-14.657,-4.594,5.81,-1.018,4.8,5.013
2549.0,-14.657,-4.594,5.81,-1.018,4.8,5.013
2553.0,-16.841,-4.851,6.621,-1.018,4.71,5.013
2557.0,-16.841,-4.851,6.621,-1.152,4.71,5.013
2561.0,-16.841,-4.851,6.621,-1.152,4.71,5.013
2565.0,-17.712,-6.025,7.374,-1.201,4.559,5.013
2569.0,-17.712,-6.025,7.374,-1.201,4.559,5.013
2573.0,-18.281,-7.04,7.993,-1.165,4.357,5.013
2577.0,-18.281,-7.04,7.993,-1.165,4.357,5.013
2581.0,-18.281,-7.04,7.993,-1.165,4.357,5.013
2585.0,-18.903,-7.696,8.129,-1.059,4.145,5.013
2589.0,-18.903,-7.696,8.129,-1.059,4.145,5.013
2593.0,-19.234,-8.274,8.52,-0.951,3.94,5.013
2597.0,-19.234,-8.274,8.52,-0.951,3.94,5.013
2601.0,-19.234,-8.274,8.52,-0.951,3.94,5.013
2605.0,-19.228,-8.958,8.73,-0.868,3.745,5.013
2609.0,-19.228,-8.958,8.73,-0.868,3.745,5.013
2613.0,-19.552,-9.718,8.942,-0.774,3.561,5.013
2617.0,-19.552,-9.718,8.942,-0.774,3.561,5.013
2621.0,-19.552,-9.718,8.942,-0.774,3.561,5.013
2625.0,-19.6,-9.663,9.205,-0.692,3.408,5.013
2629.0,-19.6,-9.663,9.205,-0.692,3.408,5.013
2633.0,-19.436,-9.422,9.742,-0.622,3.296,5.013
2637.0,-19.436,-9.422,9.742,-0.622,3.296,5.013
2641.0,-19.436,-9.422,9.742,-0.622,3.296,5.013
2645.0,-19.487,-8.981,10.38,-0.568,3.213,5.013
2649.0,-19.487,-8.981,10.38,-0.568,3.213,5.013
2653.0,-19.6,-8.255,11.385,-0.516,3.147,5.013
2657.0,-19.6,-8.255,11.385,-0.516,3.147,5.013
2661.0,-19.6,-7.607,12.293,-0.516,3.147,5.013
2665.0,-19.6,-7.607,12.293,-0.45,3.045,5.013
2669.0,-19.6,-7.607,12.293,-0.45,3.045,5.013
2673.0,-19.6,-7.319,13.23,-0.348,2.874,5.013
2677.0,-19.6,-7.319,13.23,-0.348,2.874,5.013
2681.0,-19.6,-7.528,14.001,-0.194,2.624,5.013
2685.0,-19.6,-7.528,14.001,-0.194,2.624,5.013
2689.0,-19.6,-7.528,14.001,-0.194,2.624,5.013
2694.0,-19.6,-7.54,14.154,0.016,2.315,5.013
2698.0,-19.6,-7.54,14.154,0.016,2.315,5.013
2702.0,-19.534,-7.18,13.942,0.267,1.978,5.013
2706.0,-19.534,-7.18,13.942,0.267,1.978,5.013
2710.0,-19.534,-7.18,13.942,0.267,1.978,5.013
2714.0,-18.935,-6.817,13.836,0.531,1.654,5.013
2718.0,-18.935,-6.817,13.836,0.531,1.654,5.013
2722.0,-18.489,-6.288,14.05,0.783,1.368,5.013
2726.0,-18.489,-6.288,14.05,0.783,1.368,5.013
2730.0,-18.489,-6.288,14.05,0.783,1.368,5.013
2733.0,-18.558,-5.341,14.417,0.978,1.104,5.013
2737.0,-18.558,-5.341,14.417,0.978,1.104,5.013
2741.0,-18.318,-4.287,14.887,1.076,0.853,5.013
2745.0,-18.318,-4.287,14.887,1.076,0.853,5.013
2749.0,-18.318,-4.287,15.395,1.076,0.853,5.013
2753.0,-17.481,-3.453,15.395,1.083,0.622,5.013
2757.0,-17.481,-3.453,15.395,1.083,0.622,5.013
2761.0,-16.692,-2.696,15.835,1.037,0.435,5.013
2765.0,-16.692,-2.696,15.835,1.037,0.435,5.013
2769.0,-16.408,-2.091,15.909,1.037,0.435,5.013
2773.0,-16.408,-2.091,15.909,0.97,0.297,5.013
2777.0,-16.408,-2.091,15.909,0.97,0.297,5.013
2781.0,-16.35,-1.771,15.772,0.887,0.193,5.013
2785.0,-16.35,-1.771,15.772,0.887,0.193,5.013
2789.0,-16.353,-1.604,15.671,0.887,0.193,5.013
2793.0,-16.353,-1.604,15.671,0.791,0.092,5.013
2797.0,-16.353,-1.604,15.671,0.791,0.092,5.013
2801.0,-16.453,-1.551,15.317,0.687,-0.028,5.013
2805.0,-16.453,-1.551,15.317,0.687,-0.028,5.013
2810.0,-16.067,-1.47,14.574,0.577,-0.166,5.013
2814.0,-16.067,-1.47,14.574,0.577,-0.166,5.013
2818.0,-16.067,-1.47,14.574,0.577,-0.166,5.013
2822.0,-15.019,-1.362,13.7,0.466,-0.295,5.013
2826.0,-15.019,-1.362,13.7,0.466,-0.295,5.013
2830.0,-13.542,-1.46,13.244,0.361,-0.416,5.001
2834.0,-13.542,-1.46,13.244,0.361,-0.416,5.001
2838.0,-13.542,-1.46,13.244,0.361,-0.416,5.001
2842.0,-12.642,-1.714,12.692,0.261,-0.559,4.91
2846.0,-12.642,-1.714,12.692,0.261,-0.559,4.91
2850.0,-12.583,-1.857,11.917,0.147,-0.698,4.722
2854.0,-12.583,-1.857,11.917,0.147,-0.698,4.722
2858.0,-12.608,-2.005,11.17,0.147,-0.698,4.488
2863.0,-12.608,-2.005,11.17,-0.023,-0.817,4.488
2867.0,-12.608,-2.005,11.17,-0.023,-0.817,4.488
2871.0,-12.391,-2.252,10.379,-0.271,-0.907,4.235
2875.0,-12.391,-2.252,10.379,-0.271,-0.907,4.235
2879.0,-11.546,-2.725,9.582,-0.574,-0.95,3.967
2883.0,-11.546,-2.725,9.582,-0.574,-0.95,3.967
2887.0,-11.546,-2.725,9.582,-0.574,-0.95,3.967
2891.0,-9.879,-3.19,8.941,-0.888,-0.95,3.665
2895.0,-9.879,-3.19,8.941,-0.888,-0.95,3.665
2899.0,-7.821,-3.682,8.228,-1.197,-0.949,3.317
2903.0,-7.821,-3.682,8.228,-1.197,-0.949,3.317
2907.0,-7.821,-4.482,7.625,-1.197,-0.949,3.317
2911.0,-5.66,-4.482,7.625,-1.43,-0.928,2.871
2915.0,-5.66,-4.482,7.625,-1.43,-0.928,2.871
2919.0,-3.904,-4.927,6.905,-1.548,-0.907,2.348
2923.0,-3.904,-4.927,6.905,-1.548,-0.907,2.348
2927.0,-2.78,-5.39,6.334,-1.548,-0.907,2.348
2931.0,-2.78,-5.39,6.334,-1.584,-0.896,1.827
2935.0,-2.78,-5.39,6.334,-1.584,-0.896,1.827
2939.0,-2.386,-6.038,5.63,-1.538,-0.885,1.353
2943.0,-2.386,-6.038,5.63,-1.538,-0.885,1.353
2947.0,-2.43,-6.84,4.753,-1.538,-0.885,0.949
2951.0,-2.43,-6.84,4.753,-1.425,-0.878,0.949
2955.0,-2.43,-6.84,4.753,-1.425,-0.878,0.949
2959.0,-2.498,-7.601,3.938,-1.255,-0.869,0.605
2963.0,-2.498,-7.601,3.938,-1.255,-0.869,0.605
2967.0,-2.359,-8.072,3.33,-1.255,-0.861,0.303
2971.0,-2.359,-8.072,3.33,-1.046,-0.861,0.303
2975.0,-2.359,-8.072,3.33,-1.046,-0.861,0.303
2979.0,-2.052,-8.221,2.826,-0.82,-0.866,0.026
2983.0,-2.052,-8.221,2.826,-0.82,-0.866,0.026
2987.0,-1.7,-8.149,2.332,-0.587,-0.888,-0.238
2991.0,-1.7,-8.149,2.332,-0.587,-0.888,-0.238
2995.0,-1.7,-8.149,2.332,-0.587,-0.888,-0.238
3000.0,-1.501,-8.07,1.657,-0.349,-0.912,-0.489
