deltaTime,Acc_X,Acc_Y,Acc_Z,Gyro_X,Gyro_Y,Gyro_Z
0.0,-6.906,-4.514,1.204,1.978,0.466,-0.642
3.0,-6.906,-4.514,1.204,1.978,0.466,-0.642
6.0,-6.906,-4.514,1.204,1.978,0.466,-0.642
9.0,-6.906,-4.514,1.096,1.978,0.466,-0.642
12.0,-6.887,-4.279,1.096,1.897,0.443,-0.7
15.0,-6.887,-4.279,1.096,1.897,0.443,-0.7
18.0,-6.887,-4.279,1.096,1.897,0.443,-0.7
21.0,-6.916,-4.094,1.174,1.772,0.441,-0.741
24.0,-6.916,-4.094,1.174,1.772,0.441,-0.741
27.0,-6.916,-4.094,1.174,1.772,0.441,-0.741
30.0,-6.995,-4.044,1.56,1.638,0.464,-0.742
33.0,-6.995,-4.044,1.56,1.638,0.464,-0.742
36.0,-6.995,-4.044,1.56,1.638,0.464,-0.742
40.0,-7.234,-4.015,2.115,1.529,0.493,-0.697
44.0,-7.234,-4.015,2.115,1.529,0.493,-0.697
47.0,-7.234,-4.015,2.115,1.529,0.493,-0.697
51.0,-7.638,-3.894,2.71,1.438,0.505,-0.624
55.0,-7.638,-3.894,2.71,1.438,0.505,-0.624
59.0,-7.638,-3.894,3.334,1.438,0.505,-0.624
62.0,-8.044,-3.777,3.334,1.339,0.474,-0.534
66.0,-8.044,-3.777,3.334,1.339,0.474,-0.534
70.0,-8.091,-3.819,3.749,1.219,0.402,-0.444
73.0,-8.091,-3.819,3.749,1.219,0.402,-0.444
77.0,-8.091,-3.819,3.749,1.219,0.402,-0.444
81.0,-7.793,-4.176,3.995,1.086,0.324,-0.364
85.0,-7.793,-4.176,3.995,1.086,0.324,-0.364
88.0,-7.424,-4.701,4.354,1.086,0.324,-0.364
92.0,-7.424,-4.701,4.354,0.968,0.266,-0.31
96.0,-7.424,-4.701,4.354,0.968,0.266,-0.31
100.0,-7.315,-4.982,4.787,0.89,0.231,-0.3
103.0,-7.315,-4.982,4.787,0.89,0.231,-0.3
107.0,-7.315,-4.982,4.787,0.89,0.231,-0.3
111.0,-7.728,-4.876,5.38,0.825,0.219,-0.35
115.0,-7.728,-4.876,5.38,0.825,0.219,-0.35
119.0,-8.797,-4.366,6.364,0.729,0.201,-0.435
122.0,-8.797,-4.366,6.364,0.729,0.201,-0.435
126.0,-8.797,-4.366,6.364,0.729,0.201,-0.435
130.0,-10.292,-3.87,7.665,0.54,0.136,-0.535
134.0,-10.292,-3.87,7.665,0.54,0.136,-0.535
138.0,-11.832,-3.448,8.911,0.54,0.136,-0.636
142.0,-11.832,-3.448,8.911,0.244,0.026,-0.636
146.0,-11.832,-3.448,8.911,0.244,0.026,-0.636
150.0,-12.681,-2.941,9.884,-0.136,-0.188,-0.76
154.0,-12.681,-2.941,9.884,-0.136,-0.188,-0.76
158.0,-13.947,-3.745,10.813,-0.136,-0.188,-0.866
162.0,-13.947,-3.745,10.813,-0.621,-0.431,-0.866
166.0,-13.947,-3.745,10.813,-0.621,-0.431,-0.866
170.0,-15.577,-5.271,11.346,-1.069,-0.703,-0.975
174.0,-15.577,-5.271,11.346,-1.069,-0.703,-0.975
179.0,-16.844,-6.814,11.749,-1.408,-1.028,-1.139
183.0,-16.844,-6.814,11.749,-1.408,-1.028,-1.139
187.0,-16.844,-8.781,12.188,-1.408,-1.028,-1.139
191.0,-17.686,-8.781,12.188,-1.667,-1.332,-1.35
195.0,-17.686,-8.781,12.188,-1.667,-1.332,-1.35
199.0,-18.185,-11.377,12.817,-1.861,-1.612,-1.591
204.0,-18.185,-11.377,12.817,-1.861,-1.612,-1.591
208.0,-18.711,-14.25,13.519,-1.936,-1.9,-1.877
212.0,-18.711,-14.25,13.519,-1.936,-1.9,-1.877
216.0,-18.711,-16.624,14.38,-1.936,-1.9,-1.877
221.0,-18.826,-16.624,14.38,-1.853,-2.224,-2.182
225.0,-18.826,-16.624,14.38,-1.853,-2.224,-2.182
229.0,-19.044,-18.379,15.322,-1.705,-2.548,-2.466
234.0,-19.044,-18.379,15.322,-1.705,-2.548,-2.466
238.0,-18.7,-19.449,15.765,-1.556,-2.9,-2.747
242.0,-18.7,-19.449,15.765,-1.556,-2.9,-2.747
246.0,-17.205,-19.6,15.239,-1.556,-2.9,-2.747
251.0,-17.205,-19.6,15.239,-1.472,-3.267,-3.08
255.0,-17.205,-19.6,15.239,-1.472,-3.267,-3.08
259.0,-13.927,-19.6,13.665,-1.457,-3.648,-3.512
263.0,-13.927,-19.6,13.665,-1.457,-3.648,-3.512
268.0,-10.53,-19.6,12.898,-1.507,-3.825,-3.998
272.0,-10.53,-19.6,12.898,-1.507,-3.825,-3.998
276.0,-7.805,-19.6,12.693,-1.507,-3.825,-3.998
280.0,-7.805,-19.6,12.693,-1.498,-3.902,-4.47
284.0,-7.805,-19.6,12.693,-1.498,-3.902,-4.47
289.0,-5.131,-19.6,11.88,-1.294,-4.028,-4.881
293.0,-5.131,-19.6,11.88,-1.294,-4.028,-4.881
297.0,-2.106,-19.52,10.841,-0.893,-4.119,-4.995
301.0,-2.106,-19.52,10.841,-0.893,-4.119,-4.995
305.0,-2.106,-19.52,10.063,-0.893,-4.119,-4.995
309.0,0.293,-18.58,10.063,-0.344,-4.071,-4.995
313.0,0.293,-18.58,10.063,-0.344,-4.071,-4.995
318.0,1.482,-16.552,9.078,0.341,-3.942,-4.995
321.0,1.482,-16.552,9.078,0.341,-3.942,-4.995
325.0,1.429,-14.399,8.008,0.341,-3.942,-4.995
329.0,1.429,-14.399,8.008,1.071,-3.806,-4.995
333.0,1.429,-14.399,8.008,1.071,-3.806,-4.995
337.0,0.087,-12.45,6.922,1.798,-3.691,-4.995
341.0,0.087,-12.45,6.922,1.798,-3.691,-4.995
345.0,0.087,-10.752,5.286,1.798,-3.691,-4.995
349.0,-2.141,-10.752,5.286,2.486,-3.637,-4.995
353.0,-2.141,-10.752,5.286,2.486,-3.637,-4.995
357.0,-4.219,-9.69,3.644,3.04,-3.616,-4.995
361.0,-4.219,-9.69,3.644,3.04,-3.616,-4.995
365.0,-4.219,-9.081,2.224,3.04,-3.616,-4.995
368.0,-5.39,-9.081,2.224,3.425,-3.61,-4.995
372.0,-5.39,-9.081,2.224,3.425,-3.61,-4.995
376.0,-6.468,-8.477,1.068,3.6,-3.551,-4.995
380.0,-6.468,-8.477,1.068,3.6,-3.551,-4.995
384.0,-6.468,-8.477,0.151,3.6,-3.551,-4.995
388.0,-7.947,-7.659,0.151,3.579,-3.435,-4.995
392.0,-7.947,-7.659,0.151,3.579,-3.435,-4.995
396.0,-9.81,-6.958,-0.914,3.398,-3.253,-4.974
400.0,-9.81,-6.958,-0.914,3.398,-3.253,-4.974
404.0,-9.81,-6.958,-1.53,3.398,-3.253,-4.974
408.0,-11.54,-5.918,-1.53,3.059,-3.001,-4.667
412.0,-11.54,-5.918,-1.53,3.059,-3.001,-4.667
416.0,-12.566,-4.346,-1.915,2.601,-2.721,-4.159
420.0,-12.566,-4.346,-1.915,2.601,-2.721,-4.159
424.0,-13.296,-2.944,-2.737,2.601,-2.721,-3.631
428.0,-13.296,-2.944,-2.737,2.087,-2.423,-3.631
432.0,-13.296,-2.944,-2.737,2.087,-2.423,-3.631
436.0,-14.411,-1.81,-3.858,1.605,-2.099,-3.094
440.0,-14.411,-1.81,-3.858,1.605,-2.099,-3.094
445.0,-15.956,-0.937,-5.236,1.249,-1.765,-2.549
449.0,-15.956,-0.937,-5.236,1.249,-1.765,-2.549
453.0,-15.956,-0.937,-5.236,1.249,-1.765,-2.549
457.0,-17.309,-0.192,-6.343,1.036,-1.404,-1.997
461.0,-17.309,-0.192,-6.343,1.036,-1.404,-1.997
465.0,-18.193,0.742,-6.873,0.955,-1.003,-1.463
469.0,-18.193,0.742,-6.873,0.955,-1.003,-1.463
473.0,-18.193,0.742,-6.916,0.955,-1.003,-1.463
477.0,-18.732,1.924,-6.916,0.971,-0.577,-0.962
481.0,-18.732,1.924,-6.916,0.971,-0.577,-0.962
485.0,-18.928,3.159,-6.669,1.047,-0.159,-0.477
489.0,-18.928,3.159,-6.669,1.047,-0.159,-0.477
493.0,-18.928,4.303,-6.386,1.047,-0.159,-0.477
497.0,-18.626,4.303,-6.386,1.142,0.224,0.012
501.0,-18.626,4.303,-6.386,1.142,0.224,0.012
505.0,-17.993,5.282,-6.042,1.194,0.574,0.518
508.0,-17.993,5.282,-6.042,1.194,0.574,0.518
512.0,-17.993,5.282,-6.042,1.194,0.574,0.518
516.0,-17.064,5.922,-5.57,1.171,0.906,1.045
520.0,-17.064,5.922,-5.57,1.171,0.906,1.045
524.0,-16.138,6.148,-4.837,1.057,1.226,1.58
527.0,-16.138,6.148,-4.837,1.057,1.226,1.58
531.0,-16.138,6.148,-4.837,1.057,1.226,1.58
535.0,-15.492,6.01,-3.952,0.86,1.528,2.105
539.0,-15.492,6.01,-3.952,0.86,1.528,2.105
543.0,-15.13,5.615,-2.885,0.86,1.528,2.603
547.0,-15.13,5.615,-2.885,0.596,1.811,2.603
550.0,-15.13,5.615,-2.885,0.596,1.811,2.603
554.0,-14.97,5.094,-1.466,0.286,2.052,3.068
558.0,-14.97,5.094,-1.466,0.286,2.052,3.068
562.0,-14.97,5.094,0.13,0.286,2.052,3.068
566.0,-14.927,4.671,0.13,-0.041,2.232,3.5
569.0,-14.927,4.671,0.13,-0.041,2.232,3.5
573.0,-15.032,4.123,1.828,-0.353,2.368,3.917
577.0,-15.032,4.123,1.828,-0.353,2.368,3.917
581.0,-15.032,4.123,1.828,-0.353,2.368,3.917
585.0,-15.42,3.328,3.538,-0.63,2.465,4.324
588.0,-15.42,3.328,3.538,-0.63,2.465,4.324
592.0,-15.866,2.396,5.039,-0.63,2.525,4.717
596.0,-15.866,2.396,5.039,-0.877,2.525,4.717
600.0,-15.866,2.396,5.039,-0.877,2.525,4.717
604.0,-16.112,1.342,6.564,-1.103,2.578,4.984
608.0,-16.112,1.342,6.564,-1.103,2.578,4.984
611.0,-16.112,-0.047,8.323,-1.103,2.578,4.984
615.0,-16.402,-0.047,8.323,-1.309,2.659,5.013
619.0,-16.402,-0.047,8.323,-1.309,2.659,5.013
623.0,-17.008,-1.647,10.318,-1.485,2.79,5.013
627.0,-17.008,-1.647,10.318,-1.485,2.79,5.013
631.0,-17.008,-3.358,12.408,-1.485,2.79,5.013
635.0,-17.808,-3.358,12.408,-1.609,2.974,5.013
639.0,-17.808,-3.358,12.408,-1.609,2.974,5.013
643.0,-18.724,-5.272,14.933,-1.651,3.181,5.013
647.0,-18.724,-5.272,14.933,-1.651,3.181,5.013
651.0,-19.182,-7.263,17.506,-1.651,3.181,5.013
655.0,-19.182,-7.263,17.506,-1.584,3.366,5.013
659.0,-19.182,-7.263,17.506,-1.584,3.366,5.013
663.0,-19.365,-8.594,19.538,-1.392,3.527,5.013
667.0,-19.365,-8.594,19.538,-1.392,3.527,5.013
671.0,-19.6,-9.182,19.6,-1.392,3.527,5.013
675.0,-19.6,-9.182,19.6,-1.08,3.634,5.013
679.0,-19.6,-9.182,19.6,-1.08,3.634,5.013
683.0,-19.588,-8.908,19.594,-0.687,3.745,5.013
687.0,-19.588,-8.908,19.594,-0.687,3.745,5.013
691.0,-19.545,-8.727,19.57,-0.687,3.92,5.013
695.0,-19.545,-8.727,19.57,-0.237,3.92,5.013
699.0,-19.545,-8.727,19.57,-0.237,3.92,5.013
703.0,-19.448,-8.02,19.6,0.284,4.087,5.013
707.0,-19.448,-8.02,19.6,0.284,4.087,5.013
711.0,-19.6,-7.674,19.6,0.82,4.167,5.013
715.0,-19.6,-7.674,19.6,0.82,4.167,5.013
719.0,-19.6,-7.674,19.6,0.82,4.167,5.013
722.0,-19.6,-8.098,19.6,1.273,4.157,5.013
726.0,-19.6,-8.098,19.6,1.273,4.157,5.013
730.0,-19.6,-8.187,19.6,1.273,4.118,5.013
734.0,-19.6,-8.187,19.6,1.65,4.118,5.013
738.0,-19.6,-8.187,19.6,1.65,4.118,5.013
742.0,-19.6,-8.101,19.6,1.974,4.031,5.013
746.0,-19.6,-8.101,19.6,1.974,4.031,5.013
750.0,-19.6,-7.959,19.6,1.974,4.031,5.013
754.0,-19.6,-7.959,19.6,2.218,3.882,5.013
758.0,-19.6,-7.959,19.6,2.218,3.882,5.013
762.0,-19.6,-7.405,19.6,2.308,3.712,5.013
765.0,-19.6,-7.405,19.6,2.308,3.712,5.013
769.0,-19.6,-7.178,19.6,2.308,3.712,5.013
773.0,-19.6,-7.178,19.6,2.254,3.57,5.013
777.0,-19.6,-7.178,19.6,2.254,3.57,5.013
781.0,-19.6,-6.279,19.6,2.054,3.434,5.013
785.0,-19.6,-6.279,19.6,2.054,3.434,5.013
789.0,-19.6,-6.279,19.204,2.054,3.434,5.013
793.0,-19.6,-5.505,19.204,1.622,3.284,5.013
797.0,-19.6,-5.505,19.204,1.622,3.284,5.013
801.0,-19.528,-5.519,18.825,0.977,3.109,5.013
805.0,-19.528,-5.519,18.825,0.977,3.109,5.013
808.0,-19.528,-5.519,18.825,0.977,3.109,5.013
812.0,-18.571,-5.992,17.888,0.27,2.9,5.013
816.0,-18.571,-5.992,17.888,0.27,2.9,5.013
820.0,-18.172,-7.005,16.902,-0.331,2.637,5.013
824.0,-18.172,-7.005,16.902,-0.331,2.637,5.013
828.0,-18.172,-7.005,16.902,-0.331,2.637,5.013
832.0,-18.297,-7.671,15.59,-0.679,2.296,5.013
836.0,-18.297,-7.671,15.59,-0.679,2.296,5.013
840.0,-17.359,-9.135,14.276,-0.85,1.889,4.946
844.0,-17.359,-9.135,14.276,-0.85,1.889,4.946
848.0,-17.359,-9.135,12.912,-0.85,1.889,4.946
852.0,-15.271,-10.765,12.912,-0.828,1.491,4.678
856.0,-15.271,-10.765,12.912,-0.828,1.491,4.678
860.0,-12.939,-11.938,11.598,-0.629,1.108,4.354
864.0,-12.939,-11.938,11.598,-0.629,1.108,4.354
868.0,-10.718,-12.466,10.31,-0.629,1.108,3.979
872.0,-10.718,-12.466,10.31,-0.323,0.707,3.979
877.0,-10.718,-12.466,10.31,-0.323,0.707,3.979
881.0,-8.344,-12.465,8.99,0.036,0.306,3.558
884.0,-8.344,-12.465,8.99,0.036,0.306,3.558
888.0,-5.751,-12.109,7.571,0.036,-0.07,3.087
892.0,-5.751,-12.109,7.571,0.44,-0.07,3.087
896.0,-5.751,-12.109,7.571,0.44,-0.07,3.087
900.0,-3.285,-11.663,5.958,0.88,-0.386,2.623
904.0,-3.285,-11.663,5.958,0.88,-0.386,2.623
908.0,-1.07,-11.381,4.261,0.88,-0.386,2.262
912.0,-1.07,-11.381,4.261,1.313,-0.602,2.262
916.0,-1.07,-11.381,4.261,1.313,-0.602,2.262
920.0,0.807,-11.43,2.763,1.689,-0.694,2.022
923.0,0.807,-11.43,2.763,1.689,-0.694,2.022
927.0,0.807,-11.748,1.832,1.689,-0.694,2.022
931.0,2.259,-11.748,1.832,1.978,-0.686,1.819
935.0,2.259,-11.748,1.832,1.978,-0.686,1.819
939.0,3.203,-12.113,1.61,2.188,-0.67,1.515
942.0,3.203,-12.113,1.61,2.188,-0.67,1.515
946.0,3.203,-12.113,1.61,2.188,-0.67,1.515
950.0,3.498,-12.127,2.034,2.321,-0.727,1.041
954.0,3.498,-12.127,2.034,2.321,-0.727,1.041
958.0,3.072,-11.739,2.55,2.376,-0.879,0.445
962.0,3.072,-11.739,2.55,2.376,-0.879,0.445
965.0,3.072,-11.739,2.55,2.376,-0.879,0.445
969.0,2.045,-11.016,2.735,2.337,-1.097,-0.161
973.0,2.045,-11.016,2.735,2.337,-1.097,-0.161
977.0,0.769,-10.293,2.654,2.337,-1.097,-0.698
981.0,0.769,-10.293,2.654,2.188,-1.33,-0.698
985.0,0.769,-10.293,2.654,2.188,-1.33,-0.698
989.0,-0.373,-9.698,2.733,1.933,-1.543,-1.152
993.0,-0.373,-9.698,2.733,1.933,-1.543,-1.152
997.0,-1.36,-9.234,3.241,1.933,-1.543,-1.152
1000.0,-1.36,-9.234,3.241,1.591,-1.743,-1.533
1004.0,-1.36,-9.234,3.241,1.591,-1.743,-1.533
1008.0,-2.085,-8.813,3.823,1.183,-1.959,-1.853
1012.0,-2.085,-8.813,3.823,1.183,-1.959,-1.853
1016.0,-2.478,-8.546,4.125,1.183,-1.959,-2.13
1020.0,-2.478,-8.546,4.125,0.727,-2.18,-2.13
1024.0,-2.478,-8.546,4.125,0.727,-2.18,-2.13
1028.0,-2.654,-8.513,4.21,0.24,-2.352,-2.397
1032.0,-2.654,-8.513,4.21,0.24,-2.352,-2.397
1036.0,-2.979,-8.594,4.298,0.24,-2.431,-2.666
1040.0,-2.979,-8.594,4.298,-0.26,-2.431,-2.666
1044.0,-2.979,-8.594,4.298,-0.26,-2.431,-2.666
1049.0,-3.558,-8.787,4.398,-0.739,-2.426,-2.938
1053.0,-3.558,-8.787,4.398,-0.739,-2.426,-2.938
1057.0,-4.362,-9.124,4.672,-1.158,-2.367,-3.22
1061.0,-4.362,-9.124,4.672,-1.158,-2.367,-3.22
1065.0,-4.362,-9.124,4.672,-1.158,-2.367,-3.22
1069.0,-5.315,-9.352,4.88,-1.475,-2.281,-3.503
1073.0,-5.315,-9.352,4.88,-1.475,-2.281,-3.503
1077.0,-6.13,-9.701,4.868,-1.677,-2.168,-3.754
1081.0,-6.13,-9.701,4.868,-1.677,-2.168,-3.754
1085.0,-6.664,-10.376,4.577,-1.677,-2.168,-3.754
1089.0,-6.664,-10.376,4.577,-1.767,-2.016,-3.971
1094.0,-6.664,-10.376,4.577,-1.767,-2.016,-3.971
1098.0,-6.997,-11.241,4.094,-1.75,-1.821,-4.177
1102.0,-6.997,-11.241,4.094,-1.75,-1.821,-4.177
1106.0,-7.374,-12.056,3.574,-1.631,-1.598,-4.383
1110.0,-7.374,-12.056,3.574,-1.631,-1.598,-4.383
1114.0,-7.374,-12.056,3.574,-1.631,-1.598,-4.383
1119.0,-7.982,-12.818,3.173,-1.431,-1.365,-4.579
1123.0,-7.982,-12.818,3.173,-1.431,-1.365,-4.579
1127.0,-8.968,-13.389,2.998,-1.17,-1.144,-4.75
1131.0,-8.968,-13.389,2.998,-1.17,-1.144,-4.75
1135.0,-10.317,-13.965,3.126,-0.861,-0.947,-4.886
1139.0,-10.317,-13.965,3.126,-0.861,-0.947,-4.886
1144.0,-10.317,-13.965,3.126,-0.861,-0.947,-4.886
1148.0,-11.917,-14.42,3.47,-0.552,-0.803,-4.973
1152.0,-11.917,-14.42,3.47,-0.552,-0.803,-4.973
1157.0,-13.457,-14.825,3.803,-0.277,-0.74,-4.994
1161.0,-13.457,-14.825,3.803,-0.277,-0.74,-4.994
1165.0,-14.664,-15.049,4.263,-0.054,-0.752,-4.995
1169.0,-14.664,-15.049,4.263,-0.054,-0.752,-4.995
1174.0,-14.664,-15.049,4.263,-0.054,-0.752,-4.995
1178.0,-15.281,-14.907,4.941,0.118,-0.822,-4.995
1182.0,-15.281,-14.907,4.941,0.118,-0.822,-4.995
1186.0,-15.484,-14.55,5.864,0.23,-0.94,-4.995
1190.0,-15.484,-14.55,5.864,0.23,-0.94,-4.995
1194.0,-15.872,-14.308,6.961,0.259,-1.107,-4.995
1199.0,-15.872,-14.308,6.961,0.259,-1.107,-4.995
1203.0,-15.872,-14.308,6.961,0.259,-1.107,-4.995
1207.0,-16.308,-14.075,8.091,0.197,-1.317,-4.995
1211.0,-16.308,-14.075,8.091,0.197,-1.317,-4.995
1215.0,-16.475,-13.884,9.151,0.04,-1.562,-4.995
1219.0,-16.475,-13.884,9.151,0.04,-1.562,-4.995
1224.0,-16.767,-14.06,10.154,0.04,-1.562,-4.995
1228.0,-16.767,-14.06,10.154,-0.228,-1.812,-4.995
1232.0,-16.767,-14.06,10.154,-0.228,-1.812,-4.995
1237.0,-17.319,-14.541,11.585,-0.555,-2.051,-4.995
1241.0,-17.319,-14.541,11.585,-0.555,-2.051,-4.995
1245.0,-18.209,-15.539,12.444,-0.865,-2.299,-4.995
1250.0,-18.209,-15.539,12.444,-0.865,-2.299,-4.995
1254.0,-18.867,-16.524,13.352,-1.221,-2.524,-4.995
1258.0,-18.867,-16.524,13.352,-1.221,-2.524,-4.995
1263.0,-18.867,-16.524,13.88,-1.221,-2.524,-4.995
1267.0,-18.983,-17.312,13.88,-1.53,-2.726,-4.995
1271.0,-18.983,-17.312,13.88,-1.53,-2.726,-4.995
1276.0,-18.71,-17.894,14.331,-1.773,-2.903,-4.995
1280.0,-18.71,-17.894,14.331,-1.773,-2.903,-4.995
1284.0,-18.44,-18.602,14.895,-1.956,-3.058,-4.995
1289.0,-18.44,-18.602,14.895,-1.956,-3.058,-4.995
1293.0,-18.556,-19.476,15.351,-1.956,-3.179,-4.995
1297.0,-18.556,-19.476,15.351,-2.078,-3.179,-4.995
1302.0,-18.556,-19.476,15.351,-2.078,-3.179,-4.995
1306.0,-18.694,-19.6,15.337,-2.134,-3.294,-4.995
1310.0,-18.694,-19.6,15.337,-2.134,-3.294,-4.995
1315.0,-18.354,-19.6,15.216,-2.105,-3.402,-4.995
1319.0,-18.354,-19.6,15.216,-2.105,-3.402,-4.995
1323.0,-17.709,-19.6,15.043,-1.975,-3.481,-4.995
1328.0,-17.709,-19.6,15.043,-1.975,-3.481,-4.995
1332.0,-16.999,-19.6,14.789,-1.975,-3.481,-4.995
1336.0,-16.999,-19.6,14.789,-1.74,-3.52,-4.995
1341.0,-16.999,-19.6,14.789,-1.74,-3.52,-4.995
1345.0,-15.995,-19.519,14.395,-1.422,-3.538,-4.995
1349.0,-15.995,-19.519,14.395,-1.422,-3.538,-4.995
1354.0,-14.718,-18.14,13.835,-1.071,-3.537,-4.995
1358.0,-14.718,-18.14,13.835,-1.071,-3.537,-4.995
1362.0,-13.362,-15.976,13.344,-0.728,-3.517,-4.995
1367.0,-13.362,-15.976,13.344,-0.728,-3.517,-4.995
1371.0,-13.362,-15.976,12.904,-0.728,-3.517,-4.995
1375.0,-12.389,-13.76,12.904,-0.422,-3.495,-4.995
1380.0,-12.389,-13.76,12.904,-0.422,-3.495,-4.995
1384.0,-12.045,-11.584,12.208,-0.171,-3.475,-4.995
1388.0,-12.045,-11.584,12.208,-0.171,-3.475,-4.995
1393.0,-12.252,-9.623,11.331,0.018,-3.462,-4.995
1397.0,-12.252,-9.623,11.331,0.018,-3.462,-4.995
1401.0,-12.614,-7.93,10.26,0.018,-3.462,-4.995
1405.0,-12.614,-7.93,10.26,0.15,-3.446,-4.995
1409.0,-12.614,-7.93,10.26,0.15,-3.446,-4.995
1414.0,-12.496,-6.292,9.255,0.243,-3.398,-4.995
1418.0,-12.496,-6.292,9.255,0.243,-3.398,-4.995
1422.0,-11.643,-4.999,8.545,0.306,-3.284,-4.981
1426.0,-11.643,-4.999,8.545,0.306,-3.284,-4.981
1430.0,-11.643,-4.999,8.545,0.306,-3.284,-4.981
1434.0,-10.726,-4.089,7.974,0.339,-3.076,-4.687
1438.0,-10.726,-4.089,7.974,0.339,-3.076,-4.687
1442.0,-9.998,-3.365,7.411,0.346,-2.795,-4.144
1446.0,-9.998,-3.365,7.411,0.346,-2.795,-4.144
1450.0,-9.998,-3.365,7.052,0.346,-2.795,-4.144
1454.0,-9.577,-2.721,7.052,0.341,-2.505,-3.675
1458.0,-9.577,-2.721,7.052,0.341,-2.505,-3.675
1462.0,-9.509,-1.864,6.539,0.297,-2.241,-3.315
1466.0,-9.509,-1.864,6.539,0.297,-2.241,-3.315
1470.0,-9.349,-1.003,5.737,0.297,-2.241,-3.315
1474.0,-9.349,-1.003,5.737,0.239,-1.961,-2.995
1478.0,-9.349,-1.003,5.737,0.239,-1.961,-2.995
1482.0,-8.959,-0.312,4.871,0.168,-1.622,-2.618
1486.0,-8.959,-0.312,4.871,0.168,-1.622,-2.618
1490.0,-8.472,0.018,4.378,0.168,-1.622,-2.124
1494.0,-8.472,0.018,4.378,0.067,-1.21,-2.124
1498.0,-8.472,0.018,4.378,0.067,-1.21,-2.124
1502.0,-8.278,-0.189,4.072,-0.043,-0.753,-1.531
1506.0,-8.278,-0.189,4.072,-0.043,-0.753,-1.531
1510.0,-8.308,-0.878,3.858,-0.043,-0.753,-0.92
1514.0,-8.308,-0.878,3.858,-0.128,-0.288,-0.92
1518.0,-8.308,-0.878,3.858,-0.128,-0.288,-0.92
1522.0,-8.22,-1.415,3.821,-0.158,0.16,-0.377
1526.0,-8.22,-1.415,3.821,-0.158,0.16,-0.377
1530.0,-8.081,-1.637,3.969,-0.14,0.587,0.09
1534.0,-8.081,-1.637,3.969,-0.14,0.587,0.09
1538.0,-8.081,-1.637,3.969,-0.14,0.587,0.09
1542.0,-8.0,-1.53,4.08,-0.098,0.995,0.528
1546.0,-8.0,-1.53,4.08,-0.098,0.995,0.528
1550.0,-7.903,-1.244,4.168,-0.041,1.386,0.992
1554.0,-7.903,-1.244,4.168,-0.041,1.386,0.992
1558.0,-7.903,-1.244,4.168,-0.041,1.386,0.992
1561.0,-7.732,-1.083,4.245,0.027,1.745,1.488
1565.0,-7.732,-1.083,4.245,0.027,1.745,1.488
1569.0,-7.501,-1.032,4.156,0.027,1.745,1.98
1573.0,-7.501,-1.032,4.156,0.102,2.066,1.98
1577.0,-7.501,-1.032,4.156,0.102,2.066,1.98
1581.0,-7.253,-1.15,3.95,0.18,2.357,2.446
1584.0,-7.253,-1.15,3.95,0.18,2.357,2.446
1588.0,-7.253,-1.15,3.95,0.18,2.357,2.446
1592.0,-7.194,-1.454,3.701,0.256,2.627,2.887
1596.0,-7.194,-1.454,3.701,0.256,2.627,2.887
1600.0,-7.459,-1.932,3.48,0.317,2.867,3.305
1603.0,-7.459,-1.932,3.48,0.317,2.867,3.305
1607.0,-7.459,-1.932,3.48,0.317,2.867,3.305
1611.0,-8.078,-2.321,3.278,0.361,3.074,3.698
1615.0,-8.078,-2.321,3.278,0.361,3.074,3.698
1619.0,-8.662,-2.542,3.246,0.361,3.251,4.073
1623.0,-8.662,-2.542,3.246,0.386,3.251,4.073
1626.0,-8.662,-2.542,3.246,0.386,3.251,4.073
1630.0,-9.133,-2.612,3.485,0.395,3.395,4.435
1634.0,-9.133,-2.612,3.485,0.395,3.395,4.435
1638.0,-9.133,-2.61,3.804,0.395,3.395,4.435
1642.0,-9.613,-2.61,3.804,0.383,3.493,4.776
1645.0,-9.613,-2.61,3.804,0.383,3.493,4.776
1649.0,-10.104,-2.559,3.974,0.357,3.545,4.993
1653.0,-10.104,-2.559,3.974,0.357,3.545,4.993
1657.0,-10.104,-2.559,3.974,0.357,3.545,4.993
1661.0,-10.397,-2.523,3.989,0.315,3.559,5.013
1665.0,-10.397,-2.523,3.989,0.315,3.559,5.013
1669.0,-10.699,-2.46,3.885,0.251,3.545,5.013
1673.0,-10.699,-2.46,3.885,0.251,3.545,5.013
1677.0,-10.699,-2.46,3.885,0.251,3.545,5.013
1681.0,-11.134,-2.661,3.859,0.16,3.513,5.013
1684.0,-11.134,-2.661,3.859,0.16,3.513,5.013
1688.0,-11.539,-3.027,3.951,0.048,3.465,5.013
1692.0,-11.539,-3.027,3.951,0.048,3.465,5.013
1696.0,-11.539,-3.027,3.951,0.048,3.465,5.013
1700.0,-11.922,-3.48,4.125,-0.071,3.418,5.013
1704.0,-11.922,-3.48,4.125,-0.071,3.418,5.013
1708.0,-12.307,-4.094,4.499,-0.186,3.374,5.013
1712.0,-12.307,-4.094,4.499,-0.186,3.374,5.013
1716.0,-12.307,-4.094,4.499,-0.186,3.374,5.013
1720.0,-12.981,-4.97,5.345,-0.322,3.304,5.013
1724.0,-12.981,-4.97,5.345,-0.322,3.304,5.013
1728.0,-13.44,-4.946,5.504,-0.452,3.217,5.013
1732.0,-13.44,-4.946,5.504,-0.452,3.217,5.013
1736.0,-13.44,-4.946,5.504,-0.452,3.217,5.013
1740.0,-13.819,-4.745,5.82,-0.518,3.102,5.013
1744.0,-13.819,-4.745,5.82,-0.518,3.102,5.013
1748.0,-14.12,-4.519,6.434,-0.58,2.975,5.013
1752.0,-14.12,-4.519,6.434,-0.58,2.975,5.013
1756.0,-14.12,-4.519,6.631,-0.58,2.975,5.013
1760.0,-13.657,-4.525,6.631,-0.63,2.856,5.013
1764.0,-13.657,-4.525,6.631,-0.63,2.856,5.013
1768.0,-14.121,-4.64,7.058,-0.615,2.776,5.013
1772.0,-14.121,-4.64,7.058,-0.615,2.776,5.013
1776.0,-14.121,-5.046,7.469,-0.615,2.776,5.013
1780.0,-15.022,-5.046,7.469,-0.58,2.698,5.013
1784.0,-15.022,-5.046,7.469,-0.58,2.698,5.013
1788.0,-15.768,-5.2,7.599,-0.529,2.605,5.013
1792.0,-15.768,-5.2,7.599,-0.529,2.605,5.013
1796.0,-16.167,-5.083,7.875,-0.529,2.605,5.013
1800.0,-16.167,-5.083,7.875,-0.459,2.504,5.013
1804.0,-16.167,-5.083,7.875,-0.459,2.504,5.013
1808.0,-16.408,-4.868,8.151,-0.359,2.385,5.013
1812.0,-16.408,-4.868,8.151,-0.359,2.385,5.013
1816.0,-16.625,-4.751,8.304,-0.359,2.385,5.013
1820.0,-16.625,-4.751,8.304,-0.23,2.261,5.013
1824.0,-16.625,-4.751,8.304,-0.23,2.261,5.013
1828.0,-17.279,-4.683,8.654,-0.087,2.17,5.013
1832.0,-17.279,-4.683,8.654,-0.087,2.17,5.013
1836.0,-18.252,-4.594,9.418,-0.087,2.115,5.013
1840.0,-18.252,-4.594,9.418,0.054,2.115,5.013
1844.0,-18.252,-4.594,9.418,0.054,2.115,5.013
1848.0,-19.292,-4.462,10.363,0.179,2.068,5.013
1852.0,-19.292,-4.462,10.363,0.179,2.068,5.013
1856.0,-19.6,-4.076,11.419,0.179,2.031,5.013
1860.0,-19.6,-4.076,11.419,0.283,2.031,5.013
1864.0,-19.6,-4.076,11.419,0.283,2.031,5.013
1868.0,-19.6,-3.647,12.398,0.373,2.005,5.013
1872.0,-19.6,-3.647,12.398,0.373,2.005,5.013
1876.0,-19.6,-3.529,13.086,0.458,1.978,5.013
1880.0,-19.6,-3.529,13.086,0.458,1.978,5.013
1884.0,-19.6,-3.529,13.086,0.458,1.978,5.013
1888.0,-19.6,-3.68,13.339,0.559,1.963,5.013
1892.0,-19.6,-3.68,13.339,0.559,1.963,5.013
1896.0,-19.6,-3.639,13.378,0.682,1.99,5.013
1900.0,-19.6,-3.639,13.378,0.682,1.99,5.013
1904.0,-19.6,-3.639,13.378,0.682,1.99,5.013
1908.0,-19.6,-3.324,13.599,0.81,2.044,5.013
1912.0,-19.6,-3.324,13.599,0.81,2.044,5.013
1916.0,-19.583,-3.02,13.819,0.917,2.08,5.013
1920.0,-19.583,-3.02,13.819,0.917,2.08,5.013
1924.0,-19.583,-3.02,13.819,0.917,2.08,5.013
1928.0,-19.052,-2.651,14.121,0.988,2.078,5.013
1931.0,-19.052,-2.651,14.121,0.988,2.078,5.013
1935.0,-18.057,-2.298,14.474,1.021,2.027,4.97
1939.0,-18.057,-2.298,14.474,1.021,2.027,4.97
1943.0,-18.057,-2.298,14.474,1.021,2.027,4.97
1947.0,-17.112,-2.186,14.356,1.021,1.921,4.779
1951.0,-17.112,-2.186,14.356,1.021,1.921,4.779
1955.0,-16.482,-2.008,13.911,0.983,1.791,4.529
1959.0,-16.482,-2.008,13.911,0.983,1.791,4.529
1963.0,-16.482,-2.008,13.529,0.983,1.791,4.529
1967.0,-15.879,-1.778,13.529,0.903,1.638,4.284
1971.0,-15.879,-1.778,13.529,0.903,1.638,4.284
1975.0,-14.914,-1.753,12.711,0.786,1.438,4.071
1979.0,-14.914,-1.753,12.711,0.786,1.438,4.071
1983.0,-13.828,-1.795,11.931,0.786,1.438,4.071
1987.0,-13.828,-1.795,11.931,0.641,1.204,3.885
1991.0,-13.828,-1.795,11.931,0.641,1.204,3.885
1995.0,-12.58,-1.832,10.987,0.458,0.907,3.72
1999.0,-12.58,-1.832,10.987,0.458,0.907,3.72
2003.0,-10.876,-2.767,9.794,0.458,0.907,3.538
2007.0,-10.876,-2.767,9.794,0.206,0.586,3.538
2011.0,-10.876,-2.767,9.794,0.206,0.586,3.538
2015.0,-9.252,-3.393,8.631,0.038,0.324,3.284
2019.0,-9.252,-3.393,8.631,0.038,0.324,3.284
2023.0,-9.252,-3.608,7.432,0.038,0.324,3.284
2027.0,-7.417,-3.608,7.432,-0.068,0.067,3.027
2030.0,-7.417,-3.608,7.432,-0.068,0.067,3.027
2034.0,-5.459,-3.745,6.443,-0.192,-0.148,2.773
2038.0,-5.459,-3.745,6.443,-0.192,-0.148,2.773
2042.0,-5.459,-3.745,5.468,-0.192,-0.148,2.773
2046.0,-3.756,-4.122,5.468,-0.333,-0.284,2.473
2050.0,-3.756,-4.122,5.468,-0.333,-0.284,2.473
2054.0,-2.378,-4.694,4.217,-0.486,-0.365,2.136
2058.0,-2.378,-4.694,4.217,-0.486,-0.365,2.136
2062.0,-1.284,-5.403,2.975,-0.486,-0.365,2.136
2066.0,-1.284,-5.403,2.975,-0.632,-0.358,1.8
2070.0,-1.284,-5.403,2.975,-0.632,-0.358,1.8
2074.0,-0.662,-6.334,2.312,-0.734,-0.258,1.489
2078.0,-0.662,-6.334,2.312,-0.734,-0.258,1.489
2082.0,-0.573,-7.417,2.228,-0.734,-0.258,1.489
2086.0,-0.573,-7.417,2.228,-0.751,-0.145,1.209
2090.0,-0.573,-7.417,2.228,-0.751,-0.145,1.209
2094.0,-0.897,-8.595,2.423,-0.646,-0.106,0.932
2098.0,-0.897,-8.595,2.423,-0.646,-0.106,0.932
2102.0,-1.604,-9.8,2.231,-0.646,-0.155,0.622
2106.0,-1.604,-9.8,2.231,-0.4,-0.155,0.622
2110.0,-1.604,-9.8,2.231,-0.4,-0.155,0.622
2114.0,-2.833,-10.669,1.543,-0.041,-0.23,0.266
2118.0,-2.833,-10.669,1.543,-0.041,-0.23,0.266
2122.0,-4.388,-10.833,0.781,0.36,-0.284,-0.111
2126.0,-4.388,-10.833,0.781,0.36,-0.284,-0.111
2131.0,-4.388,-10.833,0.781,0.36,-0.284,-0.111
2135.0,-5.968,-10.419,0.267,0.718,-0.318,-0.487
2139.0,-5.968,-10.419,0.267,0.718,-0.318,-0.487
2143.0,-7.174,-9.75,0.019,0.977,-0.355,-0.859
2147.0,-7.174,-9.75,0.019,0.977,-0.355,-0.859
2151.0,-7.174,-9.75,0.019,0.977,-0.355,-0.859
2155.0,-7.779,-9.054,-0.137,1.11,-0.411,-1.237
2159.0,-7.779,-9.054,-0.137,1.11,-0.411,-1.237
2163.0,-7.842,-8.524,-0.257,1.134,-0.478,-1.629
2167.0,-7.842,-8.524,-0.257,1.134,-0.478,-1.629
2171.0,-7.821,-8.11,-0.267,1.134,-0.478,-1.629
2175.0,-7.821,-8.11,-0.267,1.089,-0.54,-2.033
2179.0,-7.821,-8.11,-0.267,1.089,-0.54,-2.033
2183.0,-7.799,-7.637,-0.204,1.01,-0.603,-2.431
2187.0,-7.799,-7.637,-0.204,1.01,-0.603,-2.431
2191.0,-7.989,-7.197,-0.026,0.906,-0.66,-2.806
2196.0,-7.989,-7.197,-0.026,0.906,-0.66,-2.806
2200.0,-7.989,-7.197,-0.026,0.906,-0.66,-2.806
2204.0,-8.099,-6.803,0.151,0.781,-0.722,-3.148
2208.0,-8.099,-6.803,0.151,0.781,-0.722,-3.148
2212.0,-8.223,-6.465,0.246,0.631,-0.791,-3.457
2216.0,-8.223,-6.465,0.246,0.631,-0.791,-3.457
2220.0,-8.223,-6.465,0.246,0.631,-0.791,-3.457
2224.0,-8.312,-6.242,0.294,0.466,-0.855,-3.727
2228.0,-8.312,-6.242,0.294,0.466,-0.855,-3.727
2232.0,-8.444,-6.194,0.371,0.293,-0.911,-3.957
2236.0,-8.444,-6.194,0.371,0.293,-0.911,-3.957
2240.0,-8.444,-6.194,0.499,0.293,-0.911,-3.957
2244.0,-8.596,-6.295,0.499,0.125,-0.962,-4.153
2248.0,-8.596,-6.295,0.499,0.125,-0.962,-4.153
2252.0,-8.894,-6.551,0.723,-0.031,-1.02,-4.332
2256.0,-8.894,-6.551,0.723,-0.031,-1.02,-4.332
2260.0,-9.256,-6.818,0.895,-0.031,-1.02,-4.332
2264.0,-9.256,-6.818,0.895,-0.172,-1.087,-4.51
2268.0,-9.256,-6.818,0.895,-0.172,-1.087,-4.51
2272.0,-9.565,-6.946,1.079,-0.299,-1.154,-4.7
2276.0,-9.565,-6.946,1.079,-0.299,-1.154,-4.7
2280.0,-9.79,-6.98,1.504,-0.414,-1.214,-4.896
2284.0,-9.79,-6.98,1.504,-0.414,-1.214,-4.896
2288.0,-9.79,-6.98,1.504,-0.414,-1.214,-4.896
2292.0,-9.998,-7.068,2.131,-0.522,-1.28,-4.991
2297.0,-9.998,-7.068,2.131,-0.522,-1.28,-4.991
2301.0,-10.45,-7.224,2.885,-0.623,-1.36,-4.995
2305.0,-10.45,-7.224,2.885,-0.623,-1.36,-4.995
2309.0,-10.45,-7.504,3.772,-0.623,-1.36,-4.995
2313.0,-11.166,-7.504,3.772,-0.719,-1.45,-4.995
2317.0,-11.166,-7.504,3.772,-0.719,-1.45,-4.995
2321.0,-12.059,-7.87,4.852,-0.808,-1.535,-4.995
2326.0,-12.059,-7.87,4.852,-0.808,-1.535,-4.995
2330.0,-12.961,-8.292,6.078,-0.879,-1.615,-4.995
2334.0,-12.961,-8.292,6.078,-0.879,-1.615,-4.995
2338.0,-12.961,-8.292,6.078,-0.879,-1.615,-4.995
2342.0,-13.898,-8.85,7.464,-0.924,-1.699,-4.995
2346.0,-13.898,-8.85,7.464,-0.924,-1.699,-4.995
2351.0,-14.611,-9.464,8.875,-0.935,-1.819,-4.995
2355.0,-14.611,-9.464,8.875,-0.935,-1.819,-4.995
2359.0,-15.01,-10.1,10.183,-0.935,-1.993,-4.995
2363.0,-15.01,-10.1,10.183,-0.91,-1.993,-4.995
2368.0,-15.01,-10.1,10.183,-0.91,-1.993,-4.995
2372.0,-15.419,-10.713,11.222,-0.871,-2.219,-4.995
2376.0,-15.419,-10.713,11.222,-0.871,-2.219,-4.995
2381.0,-16.21,-11.501,12.142,-0.856,-2.469,-4.995
2385.0,-16.21,-11.501,12.142,-0.856,-2.469,-4.995
2389.0,-17.644,-12.471,12.952,-0.902,-2.717,-4.995
2394.0,-17.644,-12.471,12.952,-0.902,-2.717,-4.995
2398.0,-19.135,-13.484,14.084,-0.902,-2.717,-4.995
2402.0,-19.135,-13.484,14.084,-1.059,-2.967,-4.995
2407.0,-19.135,-13.484,14.084,-1.059,-2.967,-4.995
2411.0,-19.6,-14.678,15.631,-1.259,-3.223,-4.995
2415.0,-19.6,-14.678,15.631,-1.259,-3.223,-4.995
2420.0,-19.6,-15.678,16.498,-1.527,-3.485,-4.995
2424.0,-19.6,-15.678,16.498,-1.527,-3.485,-4.995
2428.0,-19.6,-16.695,16.954,-1.872,-3.717,-4.995
2433.0,-19.6,-16.695,16.954,-1.872,-3.717,-4.995
2437.0,-19.6,-16.695,17.002,-1.872,-3.717,-4.995
2441.0,-19.6,-17.956,17.002,-2.219,-3.869,-4.995
2446.0,-19.6,-17.956,17.002,-2.219,-3.869,-4.995
2450.0,-19.6,-19.375,17.222,-2.489,-3.928,-4.995
2454.0,-19.6,-19.375,17.222,-2.489,-3.928,-4.995
2459.0,-19.594,-19.6,17.234,-2.615,-3.934,-4.995
2463.0,-19.594,-19.6,17.234,-2.615,-3.934,-4.995
2467.0,-18.831,-19.6,16.774,-2.615,-3.912,-4.995
2472.0,-18.831,-19.6,16.774,-2.544,-3.912,-4.995
2476.0,-18.831,-19.6,16.774,-2.544,-3.912,-4.995
2480.0,-17.224,-19.6,16.143,-2.241,-3.856,-4.995
2485.0,-17.224,-19.6,16.143,-2.241,-3.856,-4.995
2489.0,-15.673,-19.6,15.446,-1.732,-3.796,-4.995
2493.0,-15.673,-19.6,15.446,-1.732,-3.796,-4.995
2498.0,-14.389,-19.6,14.29,-1.113,-3.767,-4.995
2502.0,-14.389,-19.6,14.29,-1.113,-3.767,-4.995
2506.0,-12.935,-19.272,12.785,-1.113,-3.767,-4.995
2511.0,-12.935,-19.272,12.785,-0.474,-3.761,-4.995
2515.0,-12.935,-19.272,12.785,-0.474,-3.761,-4.995
2520.0,-11.065,-17.782,11.047,0.105,-3.738,-4.995
2524.0,-11.065,-17.782,11.047,0.105,-3.738,-4.995
2528.0,-8.986,-15.967,9.315,0.56,-3.651,-4.995
2532.0,-8.986,-15.967,9.315,0.56,-3.651,-4.995
2536.0,-7.36,-14.043,7.643,0.56,-3.651,-4.995
2540.0,-7.36,-14.043,7.643,0.869,-3.481,-4.995
2544.0,-7.36,-14.043,7.643,0.869,-3.481,-4.995
2548.0,-6.889,-11.807,6.209,1.052,-3.244,-4.995
2552.0,-6.889,-11.807,6.209,1.052,-3.244,-4.995
2557.0,-7.604,-9.12,5.237,1.138,-2.99,-4.995
2561.0,-7.604,-9.12,5.237,1.138,-2.99,-4.995
2565.0,-7.604,-9.12,5.237,1.138,-2.99,-4.995
2569.0,-8.838,-6.39,4.734,1.148,-2.769,-4.995
2573.0,-8.838,-6.39,4.734,1.148,-2.769,-4.995
2577.0,-9.611,-4.363,3.85,1.109,-2.585,-4.995
2581.0,-9.611,-4.363,3.85,1.109,-2.585,-4.995
2585.0,-9.611,-4.363,3.85,1.109,-2.585,-4.995
2589.0,-9.577,-3.255,2.477,1.049,-2.391,-4.992
2593.0,-9.577,-3.255,2.477,1.049,-2.391,-4.992
2597.0,-9.191,-2.609,0.934,1.001,-2.129,-4.797
2600.0,-9.191,-2.609,0.934,1.001,-2.129,-4.797
2604.0,-9.191,-2.609,0.934,1.001,-2.129,-4.797
2608.0,-8.837,-1.994,-0.24,0.945,-1.774,-4.274
2613.0,-8.837,-1.994,-0.24,0.945,-1.774,-4.274
2617.0,-9.01,-1.278,-1.081,0.905,-1.375,-3.743
2621.0,-9.01,-1.278,-1.081,0.905,-1.375,-3.743
2625.0,-9.01,-0.348,-1.839,0.905,-1.375,-3.743
2629.0,-9.866,-0.348,-1.839,0.896,-1.006,-3.207
2633.0,-9.866,-0.348,-1.839,0.896,-1.006,-3.207
2637.0,-10.749,0.671,-2.752,0.92,-0.685,-2.62
2641.0,-10.749,0.671,-2.752,0.92,-0.685,-2.62
2645.0,-10.891,1.578,-3.438,0.92,-0.39,-1.965
2649.0,-10.891,1.578,-3.438,0.941,-0.39,-1.965
2653.0,-10.891,1.578,-3.438,0.941,-0.39,-1.965
2657.0,-10.594,2.218,-3.756,0.946,-0.083,-1.28
2662.0,-10.594,2.218,-3.756,0.946,-0.083,-1.28
2666.0,-10.353,2.689,-3.529,0.927,0.276,-0.621
2670.0,-10.353,2.689,-3.529,0.927,0.276,-0.621
2674.0,-10.353,2.689,-3.529,0.927,0.276,-0.621
2678.0,-10.167,3.123,-2.864,0.889,0.671,-0.017
2682.0,-10.167,3.123,-2.864,0.889,0.671,-0.017
2686.0,-9.974,3.495,-2.047,0.842,1.06,0.535
2689.0,-9.974,3.495,-2.047,0.842,1.06,0.535
2693.0,-9.974,3.495,-2.047,0.842,1.06,0.535
2697.0,-9.826,3.781,-1.242,0.783,1.409,1.055
2701.0,-9.826,3.781,-1.242,0.783,1.409,1.055
2705.0,-9.75,3.826,-0.529,0.703,1.707,1.575
2708.0,-9.75,3.826,-0.529,0.703,1.707,1.575
2712.0,-9.75,3.826,-0.529,0.703,1.707,1.575
2716.0,-9.689,3.638,0.058,0.595,1.971,2.108
2720.0,-9.689,3.638,0.058,0.595,1.971,2.108
2724.0,-9.584,3.255,0.622,0.595,1.971,2.108
2727.0,-9.584,3.255,0.622,0.455,2.213,2.634
2731.0,-9.584,3.255,0.622,0.455,2.213,2.634
2735.0,-9.433,2.838,1.089,0.288,2.45,3.132
2739.0,-9.433,2.838,1.089,0.288,2.45,3.132
2742.0,-9.433,2.838,1.089,0.288,2.45,3.132
2746.0,-9.303,2.431,1.46,0.099,2.685,3.602
2750.0,-9.303,2.431,1.46,0.099,2.685,3.602
2753.0,-9.37,2.049,1.836,0.099,2.685,4.052
2757.0,-9.37,2.049,1.836,-0.108,2.913,4.052
2761.0,-9.37,2.049,1.836,-0.108,2.913,4.052
2765.0,-9.627,1.787,2.273,-0.332,3.129,4.49
2769.0,-9.627,1.787,2.273,-0.332,3.129,4.49
2772.0,-9.627,1.787,2.273,-0.332,3.129,4.49
2776.0,-10.156,1.411,2.877,-0.567,3.322,4.888
2780.0,-10.156,1.411,2.877,-0.567,3.322,4.888
2784.0,-11.057,0.752,3.569,-0.812,3.482,5.012
2788.0,-11.057,0.752,3.569,-0.812,3.482,5.012
2792.0,-11.057,0.752,3.569,-0.812,3.482,5.012
2796.0,-12.171,-0.115,4.336,-1.053,3.608,5.013
2800.0,-12.171,-0.115,4.336,-1.053,3.608,5.013
2804.0,-13.378,-1.254,5.16,-1.275,3.686,5.013
2808.0,-13.378,-1.254,5.16,-1.275,3.686,5.013
2812.0,-13.378,-1.254,5.16,-1.275,3.686,5.013
2816.0,-14.559,-2.444,5.635,-1.461,3.704,5.013
2820.0,-14.559,-2.444,5.635,-1.461,3.704,5.013
2824.0,-15.528,-3.642,5.932,-1.594,3.671,5.013
2828.0,-15.528,-3.642,5.932,-1.594,3.671,5.013
2832.0,-15.528,-3.642,5.932,-1.594,3.671,5.013
2836.0,-16.455,-4.748,6.136,-1.668,3.599,5.013
2840.0,-16.455,-4.748,6.136,-1.668,3.599,5.013
2844.0,-17.267,-5.568,6.123,-1.69,3.506,5.013
2848.0,-17.267,-5.568,6.123,-1.69,3.506,5.013
2852.0,-17.267,-5.568,6.45,-1.69,3.506,5.013
2856.0,-18.105,-6.456,6.45,-1.674,3.397,5.013
2860.0,-18.105,-6.456,6.45,-1.674,3.397,5.013
2864.0,-19.205,-7.322,7.06,-1.638,3.257,5.013
2868.0,-19.205,-7.322,7.06,-1.638,3.257,5.013
2872.0,-19.6,-8.211,7.791,-1.638,3.257,5.013
2876.0,-19.6,-8.211,7.791,-1.592,3.069,5.013
2880.0,-19.6,-8.211,7.791,-1.592,3.069,5.013
2884.0,-19.6,-8.694,8.294,-1.532,2.824,5.013
2888.0,-19.6,-8.694,8.294,-1.532,2.824,5.013
2892.0,-19.6,-8.669,8.463,-1.532,2.824,5.013
2896.0,-19.6,-8.669,8.463,-1.44,2.539,5.013
2900.0,-19.6,-8.669,8.463,-1.44,2.539,5.013
2904.0,-19.6,-8.957,8.729,-1.31,2.253,5.013
2908.0,-19.6,-8.957,8.729,-1.31,2.253,5.013
2912.0,-19.6,-9.549,8.815,-1.31,1.985,5.013
2916.0,-19.6,-9.549,8.815,-1.139,1.985,5.013
2920.0,-19.6,-9.549,8.815,-1.139,1.985,5.013
2924.0,-19.6,-9.205,8.626,-0.957,1.756,5.013
2928.0,-19.6,-9.205,8.626,-0.957,1.756,5.013
2932.0,-19.6,-8.85,8.598,-0.793,1.565,5.013
2936.0,-19.6,-8.85,8.598,-0.793,1.565,5.013
2940.0,-19.6,-8.85,8.598,-0.793,1.565,5.013
2944.0,-19.6,-8.858,8.859,-0.663,1.388,5.013
2948.0,-19.6,-8.858,8.859,-0.663,1.388,5.013
2952.0,-19.6,-8.745,9.291,-0.532,1.234,5.013
2956.0,-19.6,-8.745,9.291,-0.532,1.234,5.013
2960.0,-19.6,-8.745,9.291,-0.532,1.234,5.013
2964.0,-19.6,-8.718,9.626,-0.403,1.106,5.013
2968.0,-19.6,-8.718,9.626,-0.403,1.106,5.013
2972.0,-19.6,-8.489,9.821,-0.271,1.023,5.013
2975.0,-19.6,-8.489,9.821,-0.271,1.023,5.013
2979.0,-19.6,-8.489,9.821,-0.271,1.023,5.013
2983.0,-19.6,-8.204,9.908,-0.141,0.976,5.013
2987.0,-19.6,-8.204,9.908,-0.141,0.976,5.013
2991.0,-19.6,-7.988,9.887,-0.01,0.965,5.013
2995.0,-19.6,-7.988,9.887,-0.01,0.965,5.013
2999.0,-19.6,-7.988,9.887,-0.01,0.965,5.013
