deltaTime,Acc_X,Acc_Y,Acc_Z,Gyro_X,Gyro_Y,Gyro_Z
0.0,-5.846,-7.451,3.619,1.248,0.185,-0.379
3.0,-5.846,-7.451,3.619,1.248,0.185,-0.379
6.0,-6.571,-6.72,4.42,1.357,0.12,-0.466
9.0,-6.571,-6.72,4.42,1.357,0.12,-0.466
12.0,-6.571,-6.72,4.42,1.357,0.12,-0.466
15.0,-7.012,-6.23,5.228,1.387,0.008,-0.475
18.0,-7.012,-6.23,5.228,1.387,0.008,-0.475
21.0,-7.012,-6.23,5.228,1.387,0.008,-0.475
24.0,-7.012,-6.23,5.701,1.387,0.008,-0.475
27.0,-6.997,-5.863,5.701,1.312,-0.144,-0.431
30.0,-6.997,-5.863,5.701,1.312,-0.144,-0.431
33.0,-6.997,-5.863,5.701,1.312,-0.144,-0.431
37.0,-6.818,-5.932,5.906,1.109,-0.311,-0.39
40.0,-6.818,-5.932,5.906,1.109,-0.311,-0.39
44.0,-6.818,-6.815,6.197,1.109,-0.311,-0.39
48.0,-6.531,-6.815,6.197,0.823,-0.448,-0.365
52.0,-6.531,-6.815,6.197,0.823,-0.448,-0.365
56.0,-6.467,-8.002,6.562,0.554,-0.542,-0.364
60.0,-6.467,-8.002,6.562,0.554,-0.542,-0.364
63.0,-6.467,-8.002,6.562,0.554,-0.542,-0.364
67.0,-6.6,-8.858,6.925,0.349,-0.61,-0.392
71.0,-6.6,-8.858,6.925,0.349,-0.61,-0.392
75.0,-6.951,-9.569,7.522,0.182,-0.658,-0.44
79.0,-6.951,-9.569,7.522,0.182,-0.658,-0.44
82.0,-6.951,-9.569,7.522,0.182,-0.658,-0.44
86.0,-7.78,-10.554,8.359,0.06,-0.696,-0.481
90.0,-7.78,-10.554,8.359,0.06,-0.696,-0.481
94.0,-8.68,-11.582,9.351,0.06,-0.745,-0.501
98.0,-8.68,-11.582,9.351,0.033,-0.745,-0.501
102.0,-8.68,-11.582,9.351,0.033,-0.745,-0.501
106.0,-9.534,-12.289,10.3,0.118,-0.811,-0.499
110.0,-9.534,-12.289,10.3,0.118,-0.811,-0.499
114.0,-10.125,-12.531,11.081,0.262,-0.902,-0.487
118.0,-10.125,-12.531,11.081,0.262,-0.902,-0.487
122.0,-10.125,-12.531,11.081,0.262,-0.902,-0.487
127.0,-10.555,-12.619,11.626,0.39,-0.982,-0.495
131.0,-10.555,-12.619,11.626,0.39,-0.982,-0.495
135.0,-10.902,-12.659,12.016,0.457,-1.052,-0.535
139.0,-10.902,-12.659,12.016,0.457,-1.052,-0.535
143.0,-10.918,-12.864,12.074,0.457,-1.052,-0.535
147.0,-10.918,-12.864,12.074,0.494,-1.177,-0.603
152.0,-10.918,-12.864,12.074,0.494,-1.177,-0.603
156.0,-10.936,-13.121,11.973,0.463,-1.32,-0.712
160.0,-10.936,-13.121,11.973,0.463,-1.32,-0.712
164.0,-11.0,-13.764,11.827,0.376,-1.455,-0.856
168.0,-11.0,-13.764,11.827,0.376,-1.455,-0.856
172.0,-11.0,-13.764,11.766,0.376,-1.455,-0.856
177.0,-10.568,-14.224,11.766,0.321,-1.611,-1.023
181.0,-10.568,-14.224,11.766,0.321,-1.611,-1.023
185.0,-10.608,-13.59,11.638,0.306,-1.803,-1.233
189.0,-10.608,-13.59,11.638,0.306,-1.803,-1.233
193.0,-10.585,-13.158,11.436,0.227,-2.061,-1.517
197.0,-10.585,-13.158,11.436,0.227,-2.061,-1.517
202.0,-10.585,-13.158,11.436,0.227,-2.061,-1.517
206.0,-10.412,-13.15,11.159,0.138,-2.335,-1.788
210.0,-10.412,-13.15,11.159,0.138,-2.335,-1.788
214.0,-10.375,-13.217,10.555,0.055,-2.579,-2.01
218.0,-10.375,-13.217,10.555,0.055,-2.579,-2.01
222.0,-10.517,-13.618,10.111,0.055,-2.793,-2.231
227.0,-10.517,-13.618,10.111,-0.075,-2.793,-2.231
231.0,-10.517,-13.618,10.111,-0.075,-2.793,-2.231
235.0,-10.882,-14.449,9.974,-0.287,-3.006,-2.51
239.0,-10.882,-14.449,9.974,-0.287,-3.006,-2.51
243.0,-11.096,-15.806,9.951,-0.581,-3.244,-2.899
248.0,-11.096,-15.806,9.951,-0.581,-3.244,-2.899
252.0,-11.113,-16.901,9.477,-0.581,-3.244,-2.899
256.0,-11.113,-16.901,9.477,-0.907,-3.512,-3.427
260.0,-11.113,-16.901,9.477,-0.907,-3.512,-3.427
264.0,-11.42,-17.215,8.651,-1.213,-3.753,-4.017
268.0,-11.42,-17.215,8.651,-1.213,-3.753,-4.017
273.0,-11.773,-17.112,7.516,-1.416,-3.924,-4.523
277.0,-11.773,-17.112,7.516,-1.416,-3.924,-4.523
281.0,-11.773,-17.112,6.423,-1.416,-3.924,-4.523
285.0,-11.305,-16.927,6.423,-1.443,-4.038,-4.865
289.0,-11.305,-16.927,6.423,-1.443,-4.038,-4.865
293.0,-9.756,-16.598,5.768,-1.283,-4.075,-4.99
298.0,-9.756,-16.598,5.768,-1.283,-4.075,-4.99
302.0,-8.02,-15.687,5.472,-0.983,-4.037,-4.995
306.0,-8.02,-15.687,5.472,-0.983,-4.037,-4.995
310.0,-8.02,-15.687,5.472,-0.983,-4.037,-4.995
314.0,-6.591,-14.216,5.177,-0.619,-3.946,-4.995
318.0,-6.591,-14.216,5.177,-0.619,-3.946,-4.995
322.0,-5.439,-12.443,4.81,-0.24,-3.806,-4.995
326.0,-5.439,-12.443,4.81,-0.24,-3.806,-4.995
330.0,-5.439,-12.443,4.81,-0.24,-3.806,-4.995
334.0,-4.75,-10.732,4.344,0.116,-3.56,-4.995
338.0,-4.75,-10.732,4.344,0.116,-3.56,-4.995
342.0,-4.301,-9.043,4.028,0.522,-3.386,-4.995
346.0,-4.301,-9.043,4.028,0.522,-3.386,-4.995
350.0,-4.301,-9.043,3.765,0.522,-3.386,-4.995
354.0,-3.958,-7.327,3.765,0.947,-3.239,-4.995
358.0,-3.958,-7.327,3.765,0.947,-3.239,-4.995
362.0,-4.371,-5.624,3.26,1.353,-3.046,-4.995
366.0,-4.371,-5.624,3.26,1.353,-3.046,-4.995
370.0,-4.371,-5.624,3.26,1.353,-3.046,-4.995
373.0,-4.89,-3.986,2.899,1.68,-2.862,-4.993
377.0,-4.89,-3.986,2.899,1.68,-2.862,-4.993
381.0,-5.532,-2.308,2.349,1.987,-2.698,-4.877
385.0,-5.532,-2.308,2.349,1.987,-2.698,-4.877
389.0,-5.532,-2.308,2.349,1.987,-2.698,-4.877
393.0,-6.095,-0.819,1.435,2.225,-2.548,-4.547
397.0,-6.095,-0.819,1.435,2.225,-2.548,-4.547
401.0,-6.41,0.597,0.402,2.369,-2.363,-4.151
405.0,-6.41,0.597,0.402,2.369,-2.363,-4.151
408.0,-6.41,0.597,0.402,2.369,-2.363,-4.151
412.0,-6.554,1.737,-0.602,2.426,-2.11,-3.711
416.0,-6.554,1.737,-0.602,2.426,-2.11,-3.711
420.0,-6.572,2.517,-1.315,2.425,-1.784,-3.252
424.0,-6.572,2.517,-1.315,2.425,-1.784,-3.252
428.0,-6.572,2.517,-1.315,2.425,-1.784,-3.252
432.0,-6.736,3.025,-1.792,2.389,-1.433,-2.801
436.0,-6.736,3.025,-1.792,2.389,-1.433,-2.801
440.0,-7.141,3.419,-2.303,2.389,-1.106,-2.364
444.0,-7.141,3.419,-2.303,2.331,-1.106,-2.364
447.0,-7.141,3.419,-2.303,2.331,-1.106,-2.364
451.0,-7.467,3.805,-2.745,2.242,-0.81,-1.938
455.0,-7.467,3.805,-2.745,2.242,-0.81,-1.938
459.0,-7.68,4.227,-2.937,2.242,-0.81,-1.516
463.0,-7.68,4.227,-2.937,2.115,-0.536,-1.516
467.0,-7.68,4.227,-2.937,2.115,-0.536,-1.516
471.0,-7.864,4.589,-2.971,1.944,-0.278,-1.09
475.0,-7.864,4.589,-2.971,1.944,-0.278,-1.09
479.0,-7.945,4.893,-2.888,1.944,-0.278,-1.09
483.0,-7.945,4.893,-2.888,1.737,-0.037,-0.651
486.0,-7.945,4.893,-2.888,1.737,-0.037,-0.651
490.0,-7.897,4.957,-2.763,1.501,0.189,-0.193
494.0,-7.897,4.957,-2.763,1.501,0.189,-0.193
498.0,-7.897,4.957,-2.508,1.501,0.189,-0.193
502.0,-7.673,4.734,-2.508,1.247,0.404,0.272
506.0,-7.673,4.734,-2.508,1.247,0.404,0.272
509.0,-7.552,4.272,-2.093,0.983,0.6,0.718
513.0,-7.552,4.272,-2.093,0.983,0.6,0.718
517.0,-7.552,4.272,-2.093,0.983,0.6,0.718
521.0,-7.596,3.649,-1.49,0.715,0.775,1.124
524.0,-7.596,3.649,-1.49,0.715,0.775,1.124
528.0,-7.707,2.773,-0.59,0.715,0.775,1.124
532.0,-7.707,2.773,-0.59,0.446,0.93,1.486
535.0,-7.707,2.773,-0.59,0.446,0.93,1.486
539.0,-7.969,1.397,0.906,0.18,1.072,1.796
543.0,-7.969,1.397,0.906,0.18,1.072,1.796
546.0,-7.969,1.397,0.906,0.18,1.072,1.796
550.0,-8.669,-0.209,2.599,-0.078,1.191,2.031
554.0,-8.669,-0.209,2.599,-0.078,1.191,2.031
558.0,-9.38,-1.407,3.512,-0.078,1.191,2.031
562.0,-9.38,-1.407,3.512,-0.304,1.225,2.213
565.0,-9.38,-1.407,3.512,-0.304,1.225,2.213
569.0,-9.67,-1.912,3.589,-0.492,1.147,2.415
573.0,-9.67,-1.912,3.589,-0.492,1.147,2.415
577.0,-9.67,-1.912,3.589,-0.492,1.147,2.415
581.0,-8.962,-1.917,3.254,-0.581,1.021,2.561
584.0,-8.962,-1.917,3.254,-0.581,1.021,2.561
588.0,-7.887,-1.312,2.765,-0.554,0.934,2.608
592.0,-7.887,-1.312,2.765,-0.554,0.934,2.608
596.0,-7.887,-1.312,2.765,-0.554,0.934,2.608
600.0,-7.083,-0.489,2.55,-0.482,0.929,2.664
604.0,-7.083,-0.489,2.55,-0.482,0.929,2.664
607.0,-6.409,-0.172,2.897,-0.482,1.017,2.826
611.0,-6.409,-0.172,2.897,-0.433,1.017,2.826
615.0,-6.409,-0.172,2.897,-0.433,1.017,2.826
619.0,-5.834,-0.373,3.846,-0.398,1.184,3.066
623.0,-5.834,-0.373,3.846,-0.398,1.184,3.066
626.0,-5.834,-0.373,5.227,-0.398,1.184,3.066
630.0,-5.545,-0.838,5.227,-0.335,1.413,3.317
634.0,-5.545,-0.838,5.227,-0.335,1.413,3.317
638.0,-5.377,-1.274,6.68,-0.239,1.683,3.587
642.0,-5.377,-1.274,6.68,-0.239,1.683,3.587
646.0,-5.377,-1.274,6.68,-0.239,1.683,3.587
649.0,-5.155,-1.794,8.417,-0.116,1.992,3.881
653.0,-5.155,-1.794,8.417,-0.116,1.992,3.881
657.0,-5.043,-2.337,10.269,0.027,2.345,4.177
661.0,-5.043,-2.337,10.269,0.027,2.345,4.177
665.0,-5.043,-2.337,10.269,0.027,2.345,4.177
669.0,-5.012,-2.952,12.173,0.18,2.752,4.469
672.0,-5.012,-2.952,12.173,0.18,2.752,4.469
676.0,-5.276,-3.495,13.854,0.18,2.752,4.469
680.0,-5.276,-3.495,13.854,0.313,3.188,4.767
684.0,-5.276,-3.495,13.854,0.313,3.188,4.767
688.0,-6.261,-3.812,15.101,0.392,3.626,4.985
691.0,-6.261,-3.812,15.101,0.392,3.626,4.985
695.0,-6.261,-3.812,15.101,0.392,3.626,4.985
699.0,-7.349,-4.194,16.08,0.378,4.056,5.013
703.0,-7.349,-4.194,16.08,0.378,4.056,5.013
707.0,-8.254,-4.419,16.7,0.283,4.474,5.013
711.0,-8.254,-4.419,16.7,0.283,4.474,5.013
714.0,-8.254,-4.419,16.7,0.283,4.474,5.013
718.0,-9.373,-4.497,17.194,0.156,4.864,5.013
722.0,-9.373,-4.497,17.194,0.156,4.864,5.013
726.0,-10.988,-4.254,17.544,0.156,5.013,5.013
730.0,-10.988,-4.254,17.544,0.044,5.013,5.013
734.0,-10.988,-4.254,17.544,0.044,5.013,5.013
738.0,-12.909,-4.442,18.476,-0.03,5.015,5.013
742.0,-12.909,-4.442,18.476,-0.03,5.015,5.013
746.0,-15.418,-5.454,19.473,-0.03,5.015,5.013
749.0,-15.418,-5.454,19.473,-0.101,5.015,5.013
753.0,-15.418,-5.454,19.473,-0.101,5.015,5.013
757.0,-18.02,-6.572,19.569,-0.208,5.015,5.013
761.0,-18.02,-6.572,19.569,-0.208,5.015,5.013
765.0,-19.507,-7.987,19.519,-0.362,5.015,5.013
769.0,-19.507,-7.987,19.519,-0.362,5.015,5.013
773.0,-19.507,-7.987,19.519,-0.362,5.015,5.013
777.0,-19.6,-8.662,18.862,-0.552,5.015,5.013
781.0,-19.6,-8.662,18.862,-0.552,5.015,5.013
785.0,-19.6,-8.877,18.475,-0.736,5.015,5.013
789.0,-19.6,-8.877,18.475,-0.736,5.015,5.013
793.0,-19.6,-8.877,18.475,-0.736,5.015,5.013
797.0,-19.6,-9.107,18.07,-0.874,5.015,5.013
801.0,-19.6,-9.107,18.07,-0.874,5.015,5.013
805.0,-19.55,-8.496,16.504,-0.983,5.015,5.013
809.0,-19.55,-8.496,16.504,-0.983,5.015,5.013
813.0,-19.55,-8.496,16.504,-0.983,5.015,5.013
817.0,-19.6,-7.844,15.715,-1.047,5.015,5.013
821.0,-19.6,-7.844,15.715,-1.047,5.015,5.013
825.0,-19.6,-6.901,14.477,-0.951,5.015,5.013
829.0,-19.6,-6.901,14.477,-0.951,5.015,5.013
833.0,-19.6,-6.901,14.477,-0.951,5.015,5.013
837.0,-19.6,-6.66,13.385,-0.855,4.918,5.013
841.0,-19.6,-6.66,13.385,-0.855,4.918,5.013
845.0,-19.589,-6.706,12.651,-0.739,4.61,5.013
849.0,-19.589,-6.706,12.651,-0.739,4.61,5.013
853.0,-19.589,-6.706,12.352,-0.739,4.61,5.013
857.0,-18.599,-6.565,12.352,-0.601,4.312,5.013
861.0,-18.599,-6.565,12.352,-0.601,4.312,5.013
865.0,-17.268,-6.397,12.084,-0.459,4.009,5.013
869.0,-17.268,-6.397,12.084,-0.459,4.009,5.013
873.0,-17.268,-6.227,11.212,-0.459,4.009,5.013
877.0,-16.845,-6.227,11.212,-0.3,3.677,5.013
881.0,-16.845,-6.227,11.212,-0.3,3.677,5.013
885.0,-16.86,-6.522,10.183,-0.113,3.327,5.013
889.0,-16.86,-6.522,10.183,-0.113,3.327,5.013
893.0,-16.606,-6.978,9.117,-0.113,3.327,5.013
897.0,-16.606,-6.978,9.117,0.089,2.955,5.013
901.0,-16.606,-6.978,9.117,0.089,2.955,5.013
905.0,-15.949,-6.931,7.948,0.318,2.593,5.013
909.0,-15.949,-6.931,7.948,0.318,2.593,5.013
912.0,-15.949,-6.931,7.948,0.318,2.593,5.013
916.0,-15.499,-7.406,7.335,0.567,2.252,5.013
920.0,-15.499,-7.406,7.335,0.567,2.252,5.013
924.0,-16.161,-8.332,6.766,0.816,1.857,5.013
928.0,-16.161,-8.332,6.766,0.816,1.857,5.013
932.0,-16.161,-8.332,6.766,0.816,1.857,5.013
935.0,-17.297,-8.56,5.743,1.069,1.346,4.864
939.0,-17.297,-8.56,5.743,1.069,1.346,4.864
943.0,-17.571,-8.246,4.906,1.069,0.723,4.291
947.0,-17.571,-8.246,4.906,1.311,0.723,4.291
951.0,-17.571,-8.246,4.906,1.311,0.723,4.291
954.0,-16.369,-7.651,4.26,1.523,0.07,3.641
958.0,-16.369,-7.651,4.26,1.523,0.07,3.641
962.0,-16.369,-7.651,3.715,1.523,0.07,3.641
966.0,-14.6,-7.047,3.715,1.668,-0.478,3.051
970.0,-14.6,-7.047,3.715,1.668,-0.478,3.051
974.0,-13.012,-6.462,3.148,1.698,-0.887,2.53
978.0,-13.012,-6.462,3.148,1.698,-0.887,2.53
982.0,-13.012,-6.462,3.148,1.698,-0.887,2.53
985.0,-11.429,-5.761,2.578,1.584,-1.206,2.023
989.0,-11.429,-5.761,2.578,1.584,-1.206,2.023
993.0,-9.674,-4.933,2.062,1.345,-1.453,1.481
997.0,-9.674,-4.933,2.062,1.345,-1.453,1.481
1001.0,-9.674,-4.933,2.062,1.345,-1.453,1.481
1005.0,-7.923,-4.033,1.7,1.01,-1.623,0.921
1009.0,-7.923,-4.033,1.7,1.01,-1.623,0.921
1013.0,-6.353,-3.22,1.395,0.608,-1.712,0.386
1017.0,-6.353,-3.22,1.395,0.608,-1.712,0.386
1020.0,-6.353,-3.22,1.395,0.608,-1.712,0.386
1024.0,-4.885,-2.746,1.028,0.165,-1.723,-0.091
1028.0,-4.885,-2.746,1.028,0.165,-1.723,-0.091
1032.0,-3.442,-2.66,0.617,-0.295,-1.656,-0.502
1036.0,-3.442,-2.66,0.617,-0.295,-1.656,-0.502
1040.0,-3.442,-2.66,0.617,-0.295,-1.656,-0.502
1045.0,-2.145,-2.89,0.325,-0.747,-1.517,-0.858
1049.0,-2.145,-2.89,0.325,-0.747,-1.517,-0.858
1053.0,-1.113,-3.361,0.202,-1.152,-1.33,-1.16
1057.0,-1.113,-3.361,0.202,-1.152,-1.33,-1.16
1061.0,-1.113,-4.016,0.278,-1.152,-1.33,-1.16
1065.0,-0.435,-4.016,0.278,-1.472,-1.13,-1.398
1069.0,-0.435,-4.016,0.278,-1.472,-1.13,-1.398
1073.0,-0.206,-4.86,0.487,-1.679,-0.949,-1.574
1077.0,-0.206,-4.86,0.487,-1.679,-0.949,-1.574
1081.0,-0.28,-5.701,0.608,-1.679,-0.795,-1.711
1085.0,-0.28,-5.701,0.608,-1.758,-0.795,-1.711
1089.0,-0.28,-5.701,0.608,-1.758,-0.795,-1.711
1094.0,-0.491,-6.435,0.669,-1.713,-0.666,-1.822
1098.0,-0.491,-6.435,0.669,-1.713,-0.666,-1.822
1102.0,-0.781,-7.027,0.726,-1.565,-0.56,-1.912
1106.0,-0.781,-7.027,0.726,-1.565,-0.56,-1.912
1110.0,-0.781,-7.027,0.726,-1.565,-0.56,-1.912
1114.0,-1.18,-7.403,0.788,-1.352,-0.478,-1.995
1118.0,-1.18,-7.403,0.788,-1.352,-0.478,-1.995
1122.0,-1.729,-7.711,0.894,-1.102,-0.415,-2.078
1126.0,-1.729,-7.711,0.894,-1.102,-0.415,-2.078
1130.0,-2.381,-7.984,1.06,-1.102,-0.415,-2.078
1134.0,-2.381,-7.984,1.06,-0.831,-0.372,-2.182
1138.0,-2.381,-7.984,1.06,-0.831,-0.372,-2.182
1142.0,-3.111,-8.101,1.29,-0.55,-0.353,-2.32
1147.0,-3.111,-8.101,1.29,-0.55,-0.353,-2.32
1151.0,-3.804,-8.033,1.43,-0.271,-0.354,-2.482
1155.0,-3.804,-8.033,1.43,-0.271,-0.354,-2.482
1159.0,-3.804,-8.033,1.43,-0.271,-0.354,-2.482
1163.0,-4.461,-7.85,1.561,-0.006,-0.376,-2.658
1167.0,-4.461,-7.85,1.561,-0.006,-0.376,-2.658
1171.0,-5.019,-7.732,1.662,0.227,-0.422,-2.845
1175.0,-5.019,-7.732,1.662,0.227,-0.422,-2.845
1179.0,-5.019,-7.732,1.662,0.227,-0.422,-2.845
1183.0,-5.547,-7.674,1.78,0.418,-0.491,-3.052
1187.0,-5.547,-7.674,1.78,0.418,-0.491,-3.052
1191.0,-6.073,-7.66,1.942,0.552,-0.574,-3.292
1195.0,-6.073,-7.66,1.942,0.552,-0.574,-3.292
1199.0,-6.073,-7.747,2.308,0.552,-0.574,-3.292
1203.0,-6.519,-7.747,2.308,0.622,-0.667,-3.566
1207.0,-6.519,-7.747,2.308,0.622,-0.667,-3.566
1211.0,-6.955,-7.962,2.729,0.631,-0.764,-3.874
1215.0,-6.955,-7.962,2.729,0.631,-0.764,-3.874
1219.0,-7.472,-8.259,3.232,0.631,-0.764,-3.874
1223.0,-7.472,-8.259,3.232,0.608,-0.855,-4.205
1227.0,-7.472,-8.259,3.232,0.608,-0.855,-4.205
1231.0,-8.149,-8.835,4.205,0.608,-0.938,-4.54
1235.0,-8.149,-8.835,4.205,0.608,-0.938,-4.54
1239.0,-9.352,-9.574,5.6,0.608,-0.938,-4.843
1243.0,-9.352,-9.574,5.6,0.689,-1.038,-4.843
1247.0,-9.352,-9.574,5.6,0.689,-1.038,-4.843
1251.0,-11.162,-10.43,7.073,0.882,-1.181,-4.987
1255.0,-11.162,-10.43,7.073,0.882,-1.181,-4.987
1259.0,-13.569,-11.313,8.715,1.158,-1.398,-4.995
1263.0,-13.569,-11.313,8.715,1.158,-1.398,-4.995
1268.0,-13.569,-11.313,8.715,1.158,-1.398,-4.995
1272.0,-16.359,-11.957,10.302,1.462,-1.725,-4.995
1276.0,-16.359,-11.957,10.302,1.462,-1.725,-4.995
1280.0,-18.618,-12.404,11.356,1.723,-2.185,-4.995
1284.0,-18.618,-12.404,11.356,1.723,-2.185,-4.995
1289.0,-19.564,-12.921,12.184,1.867,-2.693,-4.995
1293.0,-19.564,-12.921,12.184,1.867,-2.693,-4.995
1297.0,-19.564,-12.921,12.184,1.867,-2.693,-4.995
1301.0,-19.6,-13.323,12.973,1.825,-3.153,-4.995
1306.0,-19.6,-13.323,12.973,1.825,-3.153,-4.995
1310.0,-19.6,-13.165,13.878,1.544,-3.547,-4.995
1314.0,-19.6,-13.165,13.878,1.544,-3.547,-4.995
1318.0,-19.6,-12.577,15.086,1.02,-3.895,-4.995
1323.0,-19.6,-12.577,15.086,1.02,-3.895,-4.995
1327.0,-19.6,-12.577,15.086,1.02,-3.895,-4.995
1331.0,-19.6,-12.152,16.238,0.31,-4.214,-4.995
1336.0,-19.6,-12.152,16.238,0.31,-4.214,-4.995
1340.0,-19.6,-12.03,17.143,-0.526,-4.496,-4.995
1344.0,-19.6,-12.03,17.143,-0.526,-4.496,-4.995
1348.0,-19.6,-12.579,17.632,-1.393,-4.711,-4.995
1353.0,-19.6,-12.579,17.632,-1.393,-4.711,-4.995
1357.0,-19.6,-13.593,17.617,-1.393,-4.711,-4.995
1361.0,-19.6,-13.593,17.617,-2.214,-4.833,-4.995
1366.0,-19.6,-13.593,17.617,-2.214,-4.833,-4.995
1370.0,-19.6,-15.215,17.243,-2.86,-4.842,-4.995
1374.0,-19.6,-15.215,17.243,-2.86,-4.842,-4.995
1379.0,-19.6,-17.045,16.604,-3.256,-4.741,-4.995
1383.0,-19.6,-17.045,16.604,-3.256,-4.741,-4.995
1388.0,-19.41,-18.592,16.156,-3.386,-4.568,-4.995
1392.0,-19.41,-18.592,16.156,-3.386,-4.568,-4.995
1396.0,-19.41,-18.592,15.727,-3.386,-4.568,-4.995
1401.0,-18.293,-19.458,15.727,-3.233,-4.389,-4.995
1405.0,-18.293,-19.458,15.727,-3.233,-4.389,-4.995
1409.0,-16.603,-19.309,15.264,-2.82,-4.229,-4.995
1414.0,-16.603,-19.309,15.264,-2.82,-4.229,-4.995
1418.0,-15.013,-18.29,14.633,-2.203,-4.102,-4.995
1422.0,-15.013,-18.29,14.633,-2.203,-4.102,-4.995
1427.0,-13.601,-16.171,13.467,-2.203,-4.025,-4.995
1431.0,-13.601,-16.171,13.467,-1.449,-4.025,-4.995
1435.0,-13.601,-16.171,13.467,-1.449,-4.025,-4.995
1440.0,-12.367,-13.451,12.051,-0.639,-3.991,-4.995
1444.0,-12.367,-13.451,12.051,-0.639,-3.991,-4.995
1448.0,-11.402,-10.881,10.551,0.131,-3.97,-4.995
1453.0,-11.402,-10.881,10.551,0.131,-3.97,-4.995
1457.0,-10.56,-8.712,8.981,0.791,-3.925,-4.995
1461.0,-10.56,-8.712,8.981,0.791,-3.925,-4.995
1465.0,-10.56,-8.712,8.981,0.791,-3.925,-4.995
1469.0,-9.655,-7.123,7.508,1.293,-3.843,-4.995
1473.0,-9.655,-7.123,7.508,1.293,-3.843,-4.995
1477.0,-8.919,-6.211,6.245,1.643,-3.73,-4.995
1481.0,-8.919,-6.211,6.245,1.643,-3.73,-4.995
1485.0,-8.919,-6.211,5.043,1.643,-3.73,-4.995
1489.0,-8.308,-5.578,5.043,1.845,-3.593,-4.995
1493.0,-8.308,-5.578,5.043,1.845,-3.593,-4.995
1497.0,-7.972,-4.805,4.094,1.91,-3.422,-4.995
1501.0,-7.972,-4.805,4.094,1.91,-3.422,-4.995
1505.0,-7.972,-4.262,3.458,1.91,-3.422,-4.995
1509.0,-7.277,-4.262,3.458,1.827,-3.226,-4.994
1513.0,-7.277,-4.262,3.458,1.827,-3.226,-4.994
1517.0,-6.556,-4.241,3.047,1.65,-2.962,-4.832
1521.0,-6.556,-4.241,3.047,1.65,-2.962,-4.832
1525.0,-6.727,-4.186,2.663,1.65,-2.962,-4.832
1529.0,-6.727,-4.186,2.663,1.429,-2.628,-4.288
1533.0,-6.727,-4.186,2.663,1.429,-2.628,-4.288
1537.0,-7.108,-4.401,2.656,1.173,-2.272,-3.655
1541.0,-7.108,-4.401,2.656,1.173,-2.272,-3.655
1545.0,-7.604,-4.623,2.524,1.173,-2.272,-3.043
1549.0,-7.604,-4.623,2.524,0.927,-1.932,-3.043
1553.0,-7.604,-4.623,2.524,0.927,-1.932,-3.043
1557.0,-8.057,-4.528,2.028,0.696,-1.64,-2.505
1561.0,-8.057,-4.528,2.028,0.696,-1.64,-2.505
1565.0,-8.258,-4.073,1.351,0.696,-1.385,-2.067
1569.0,-8.258,-4.073,1.351,0.483,-1.385,-2.067
1573.0,-8.258,-4.073,1.351,0.483,-1.385,-2.067
1577.0,-8.165,-3.385,0.799,0.28,-1.148,-1.72
1581.0,-8.165,-3.385,0.799,0.28,-1.148,-1.72
1585.0,-7.851,-2.533,0.418,0.101,-0.918,-1.451
1589.0,-7.851,-2.533,0.418,0.101,-0.918,-1.451
1593.0,-7.851,-2.533,0.418,0.101,-0.918,-1.451
1597.0,-7.44,-1.645,0.184,-0.063,-0.69,-1.22
1601.0,-7.44,-1.645,0.184,-0.063,-0.69,-1.22
1605.0,-7.02,-0.774,0.251,-0.218,-0.46,-0.988
1609.0,-7.02,-0.774,0.251,-0.218,-0.46,-0.988
1613.0,-7.02,-0.774,0.251,-0.218,-0.46,-0.988
1617.0,-6.663,-0.194,0.424,-0.345,-0.236,-0.723
1621.0,-6.663,-0.194,0.424,-0.345,-0.236,-0.723
1625.0,-6.403,0.101,0.559,-0.419,-0.022,-0.429
1629.0,-6.403,0.101,0.559,-0.419,-0.022,-0.429
1633.0,-6.403,0.366,0.718,-0.419,-0.022,-0.429
1637.0,-6.202,0.366,0.718,-0.419,0.187,-0.114
1641.0,-6.202,0.366,0.718,-0.419,0.187,-0.114
1645.0,-5.955,0.598,0.813,-0.341,0.396,0.221
1649.0,-5.955,0.598,0.813,-0.341,0.396,0.221
1653.0,-5.955,0.598,0.873,-0.341,0.396,0.221
1657.0,-5.665,0.849,0.873,-0.195,0.607,0.569
1660.0,-5.665,0.849,0.873,-0.195,0.607,0.569
1664.0,-5.39,1.105,0.875,-0.012,0.816,0.932
1668.0,-5.39,1.105,0.875,-0.012,0.816,0.932
1672.0,-5.39,1.105,0.875,-0.012,0.816,0.932
1676.0,-5.165,1.351,0.855,0.18,1.02,1.311
1679.0,-5.165,1.351,0.855,0.18,1.02,1.311
1683.0,-4.932,1.531,0.749,0.18,1.222,1.705
1687.0,-4.932,1.531,0.749,0.355,1.222,1.705
1691.0,-4.932,1.531,0.749,0.355,1.222,1.705
1694.0,-4.729,1.639,0.661,0.496,1.43,2.106
1698.0,-4.729,1.639,0.661,0.496,1.43,2.106
1702.0,-4.729,1.639,0.661,0.496,1.43,2.106
1706.0,-4.664,1.697,0.706,0.597,1.648,2.499
1709.0,-4.664,1.697,0.706,0.597,1.648,2.499
1713.0,-4.778,1.72,0.904,0.656,1.875,2.884
1717.0,-4.778,1.72,0.904,0.656,1.875,2.884
1720.0,-4.778,1.72,0.904,0.656,1.875,2.884
1724.0,-5.082,1.624,1.161,0.682,2.109,3.267
1728.0,-5.082,1.624,1.161,0.682,2.109,3.267
1732.0,-5.082,1.624,1.161,0.682,2.109,3.267
1735.0,-5.525,1.467,1.416,0.683,2.348,3.648
1739.0,-5.525,1.467,1.416,0.683,2.348,3.648
1743.0,-6.082,1.264,1.813,0.665,2.586,4.026
1747.0,-6.082,1.264,1.813,0.665,2.586,4.026
1750.0,-6.082,1.264,1.813,0.665,2.586,4.026
1754.0,-6.757,0.921,2.33,0.622,2.807,4.392
1758.0,-6.757,0.921,2.33,0.622,2.807,4.392
1762.0,-6.757,0.381,2.881,0.622,2.807,4.392
1765.0,-7.51,0.381,2.881,0.546,3.002,4.728
1769.0,-7.51,0.381,2.881,0.546,3.002,4.728
1773.0,-8.289,-0.074,3.399,0.438,3.171,4.969
1777.0,-8.289,-0.074,3.399,0.438,3.171,4.969
1780.0,-8.289,-0.074,3.399,0.438,3.171,4.969
1784.0,-9.001,-0.443,3.864,0.305,3.318,5.013
1788.0,-9.001,-0.443,3.864,0.305,3.318,5.013
1792.0,-9.788,-0.943,4.492,0.305,3.445,5.013
1796.0,-9.788,-0.943,4.492,0.165,3.445,5.013
1799.0,-9.788,-0.943,4.492,0.165,3.445,5.013
1803.0,-10.786,-1.623,5.16,0.033,3.541,5.013
1807.0,-10.786,-1.623,5.16,0.033,3.541,5.013
1811.0,-11.932,-2.158,5.794,0.033,3.541,5.013
1815.0,-11.932,-2.158,5.794,-0.075,3.609,5.013
1819.0,-11.932,-2.158,5.794,-0.075,3.609,5.013
1823.0,-12.964,-2.712,6.4,-0.157,3.651,5.013
1827.0,-12.964,-2.712,6.4,-0.157,3.651,5.013
1831.0,-13.866,-3.454,7.302,-0.157,3.651,5.013
1835.0,-13.866,-3.454,7.302,-0.218,3.68,5.013
1839.0,-13.866,-3.454,7.302,-0.218,3.68,5.013
1843.0,-14.889,-4.262,8.401,-0.269,3.69,5.013
1847.0,-14.889,-4.262,8.401,-0.269,3.69,5.013
1851.0,-15.965,-5.171,9.547,-0.269,3.675,5.013
1855.0,-15.965,-5.171,9.547,-0.317,3.675,5.013
1859.0,-15.965,-5.171,9.547,-0.317,3.675,5.013
1863.0,-16.872,-6.136,10.755,-0.369,3.647,5.013
1867.0,-16.872,-6.136,10.755,-0.369,3.647,5.013
1871.0,-17.423,-6.83,11.962,-0.417,3.612,5.013
1875.0,-17.423,-6.83,11.962,-0.417,3.612,5.013
1879.0,-17.423,-6.83,11.962,-0.417,3.612,5.013
1883.0,-17.706,-7.062,12.769,-0.444,3.577,5.013
1887.0,-17.706,-7.062,12.769,-0.444,3.577,5.013
1891.0,-18.074,-7.193,13.569,-0.441,3.563,5.013
1896.0,-18.074,-7.193,13.569,-0.441,3.563,5.013
1900.0,-18.074,-7.193,13.796,-0.441,3.563,5.013
1904.0,-18.888,-7.083,13.796,-0.418,3.559,5.013
1908.0,-18.888,-7.083,13.796,-0.418,3.559,5.013
1912.0,-19.532,-6.384,14.051,-0.405,3.586,5.013
1916.0,-19.532,-6.384,14.051,-0.405,3.586,5.013
1920.0,-19.6,-6.452,14.478,-0.405,3.577,5.013
1924.0,-19.6,-6.452,14.478,-0.439,3.577,5.013
1928.0,-19.6,-6.452,14.478,-0.439,3.577,5.013
1932.0,-19.6,-6.646,15.038,-0.484,3.524,5.013
1936.0,-19.6,-6.646,15.038,-0.484,3.524,5.013
1940.0,-19.6,-6.877,15.583,-0.507,3.437,5.013
1945.0,-19.6,-6.877,15.583,-0.507,3.437,5.013
1949.0,-19.6,-6.877,15.583,-0.507,3.437,5.013
1953.0,-19.6,-7.612,16.338,-0.513,3.326,5.013
1957.0,-19.6,-7.612,16.338,-0.513,3.326,5.013
1961.0,-19.6,-8.21,16.605,-0.509,3.187,5.013
1965.0,-19.6,-8.21,16.605,-0.509,3.187,5.013
1969.0,-19.6,-7.887,16.279,-0.509,3.187,5.013
1973.0,-19.6,-7.887,16.279,-0.496,3.029,5.013
1977.0,-19.6,-7.887,16.279,-0.496,3.029,5.013
1981.0,-19.6,-6.993,15.471,-0.489,2.863,5.013
1985.0,-19.6,-6.993,15.471,-0.489,2.863,5.013
1989.0,-19.6,-6.109,14.585,-0.5,2.723,5.013
1993.0,-19.6,-6.109,14.585,-0.5,2.723,5.013
1998.0,-19.6,-6.109,14.585,-0.5,2.723,5.013
2002.0,-19.576,-4.942,13.624,-0.556,2.597,5.013
2006.0,-19.576,-4.942,13.624,-0.556,2.597,5.013
2010.0,-19.6,-4.611,13.174,-0.735,2.457,5.013
2014.0,-19.6,-4.611,13.174,-0.735,2.457,5.013
2018.0,-19.6,-4.611,12.755,-0.735,2.457,5.013
2022.0,-19.6,-4.482,12.755,-0.85,2.355,5.013
2026.0,-19.6,-4.482,12.755,-0.85,2.355,5.013
2030.0,-19.6,-4.297,12.006,-0.931,2.183,5.013
2034.0,-19.6,-4.297,12.006,-0.931,2.183,5.013
2038.0,-19.6,-4.478,11.35,-0.931,2.183,5.013
2042.0,-19.6,-4.478,11.35,-1.026,1.985,5.013
2047.0,-19.6,-4.478,11.35,-1.026,1.985,5.013
2051.0,-19.6,-5.041,11.038,-1.079,1.818,5.013
2055.0,-19.6,-5.041,11.038,-1.079,1.818,5.013
2059.0,-19.6,-5.496,10.79,-1.069,1.642,5.013
2063.0,-19.6,-5.496,10.79,-1.069,1.642,5.013
2067.0,-19.6,-5.496,10.79,-1.069,1.642,5.013
2071.0,-19.044,-5.694,10.749,-1.01,1.424,5.013
2075.0,-19.044,-5.694,10.749,-1.01,1.424,5.013
2079.0,-17.401,-5.572,10.634,-0.91,1.136,5.013
2083.0,-17.401,-5.572,10.634,-0.91,1.136,5.013
2087.0,-17.401,-5.252,10.152,-0.91,1.136,5.013
2091.0,-15.538,-5.252,10.152,-0.775,0.791,5.013
2095.0,-15.538,-5.252,10.152,-0.775,0.791,5.013
2100.0,-13.633,-5.007,9.461,-0.622,0.417,5.004
2104.0,-13.633,-5.007,9.461,-0.622,0.417,5.004
2108.0,-11.894,-4.911,8.527,-0.622,0.417,4.803
2112.0,-11.894,-4.911,8.527,-0.472,0.047,4.803
2116.0,-11.894,-4.911,8.527,-0.472,0.047,4.803
2120.0,-10.556,-4.856,7.439,-0.352,-0.283,4.407
2124.0,-10.556,-4.856,7.439,-0.352,-0.283,4.407
2128.0,-9.75,-4.835,6.325,-0.289,-0.539,4.008
2132.0,-9.75,-4.835,6.325,-0.289,-0.539,4.008
2136.0,-9.75,-4.835,6.325,-0.289,-0.539,4.008
2140.0,-9.249,-4.72,5.486,-0.319,-0.712,3.638
2144.0,-9.249,-4.72,5.486,-0.319,-0.712,3.638
2148.0,-8.502,-4.83,5.191,-0.448,-0.826,3.296
2152.0,-8.502,-4.83,5.191,-0.448,-0.826,3.296
2156.0,-8.502,-4.83,5.191,-0.448,-0.826,3.296
2160.0,-7.703,-4.863,5.014,-0.628,-0.93,2.965
2164.0,-7.703,-4.863,5.014,-0.628,-0.93,2.965
2168.0,-6.874,-4.809,4.69,-0.825,-1.056,2.602
2172.0,-6.874,-4.809,4.69,-0.825,-1.056,2.602
2176.0,-6.874,-4.809,4.69,-0.825,-1.056,2.602
2180.0,-6.132,-4.655,4.025,-1.014,-1.189,2.209
2184.0,-6.132,-4.655,4.025,-1.014,-1.189,2.209
2188.0,-5.459,-4.613,3.311,-1.175,-1.288,1.817
2192.0,-5.459,-4.613,3.311,-1.175,-1.288,1.817
2196.0,-5.459,-4.613,3.311,-1.175,-1.288,1.817
2200.0,-4.79,-4.826,2.717,-1.283,-1.33,1.443
2204.0,-4.79,-4.826,2.717,-1.283,-1.33,1.443
2208.0,-4.265,-5.058,2.197,-1.323,-1.323,1.079
2212.0,-4.265,-5.058,2.197,-1.323,-1.323,1.079
2216.0,-4.265,-5.058,1.765,-1.323,-1.323,1.079
2220.0,-3.757,-5.282,1.765,-1.294,-1.285,0.717
2224.0,-3.757,-5.282,1.765,-1.294,-1.285,0.717
2228.0,-3.291,-5.434,1.604,-1.216,-1.228,0.352
2232.0,-3.291,-5.434,1.604,-1.216,-1.228,0.352
2236.0,-2.974,-5.45,1.544,-1.216,-1.228,0.352
2239.0,-2.974,-5.45,1.544,-1.104,-1.165,-0.006
2244.0,-2.974,-5.45,1.544,-1.104,-1.165,-0.006
2248.0,-2.854,-5.332,1.519,-0.975,-1.097,-0.348
2252.0,-2.854,-5.332,1.519,-0.975,-1.097,-0.348
2256.0,-2.944,-5.167,1.482,-0.837,-1.028,-0.661
2260.0,-2.944,-5.167,1.482,-0.837,-1.028,-0.661
2264.0,-2.944,-5.167,1.482,-0.837,-1.028,-0.661
2268.0,-3.096,-5.015,1.394,-0.696,-0.966,-0.937
2272.0,-3.096,-5.015,1.394,-0.696,-0.966,-0.937
2276.0,-3.179,-4.872,1.29,-0.556,-0.905,-1.18
2280.0,-3.179,-4.872,1.29,-0.556,-0.905,-1.18
2284.0,-3.179,-4.872,1.29,-0.556,-0.905,-1.18
2288.0,-3.143,-4.747,1.123,-0.425,-0.837,-1.39
2293.0,-3.143,-4.747,1.123,-0.425,-0.837,-1.39
2297.0,-2.998,-4.583,0.942,-0.314,-0.757,-1.57
2301.0,-2.998,-4.583,0.942,-0.314,-0.757,-1.57
2305.0,-2.898,-4.346,0.633,-0.314,-0.757,-1.727
2309.0,-2.898,-4.346,0.633,-0.225,-0.669,-1.727
2313.0,-2.898,-4.346,0.633,-0.225,-0.669,-1.727
2317.0,-2.936,-4.184,0.486,-0.153,-0.548,-1.85
2321.0,-2.936,-4.184,0.486,-0.153,-0.548,-1.85
2325.0,-3.055,-4.053,0.476,-0.089,-0.422,-1.945
2329.0,-3.055,-4.053,0.476,-0.089,-0.422,-1.945
2333.0,-3.055,-4.053,0.476,-0.089,-0.422,-1.945
2337.0,-3.341,-4.053,0.587,-0.027,-0.308,-2.024
2341.0,-3.341,-4.053,0.587,-0.027,-0.308,-2.024
2346.0,-3.65,-4.193,0.705,0.049,-0.202,-2.089
2350.0,-3.65,-4.193,0.705,0.049,-0.202,-2.089
2354.0,-3.65,-4.193,0.766,0.049,-0.202,-2.089
2358.0,-4.013,-4.399,0.766,0.14,-0.111,-2.155
2362.0,-4.013,-4.399,0.766,0.14,-0.111,-2.155
2366.0,-4.405,-4.652,0.744,0.243,-0.024,-2.228
2370.0,-4.405,-4.652,0.744,0.243,-0.024,-2.228
2374.0,-4.405,-4.922,0.735,0.243,-0.024,-2.228
2378.0,-4.847,-4.922,0.735,0.361,0.064,-2.323
2381.0,-4.847,-4.922,0.735,0.361,0.064,-2.323
2385.0,-5.343,-5.103,0.794,0.49,0.141,-2.449
2389.0,-5.343,-5.103,0.794,0.49,0.141,-2.449
2393.0,-5.343,-5.103,0.903,0.49,0.141,-2.449
2397.0,-5.924,-5.171,0.903,0.615,0.195,-2.611
2401.0,-5.924,-5.171,0.903,0.615,0.195,-2.611
2405.0,-6.636,-5.164,1.08,0.72,0.222,-2.811
2409.0,-6.636,-5.164,1.08,0.72,0.222,-2.811
2413.0,-6.636,-5.164,1.08,0.72,0.222,-2.811
2417.0,-7.42,-5.198,1.241,0.801,0.217,-3.044
2420.0,-7.42,-5.198,1.241,0.801,0.217,-3.044
2424.0,-8.164,-5.28,1.357,0.86,0.178,-3.311
2428.0,-8.164,-5.28,1.357,0.86,0.178,-3.311
2432.0,-8.164,-5.28,1.357,0.86,0.178,-3.311
2436.0,-8.897,-5.473,1.539,0.9,0.125,-3.603
2440.0,-8.897,-5.473,1.539,0.9,0.125,-3.603
2444.0,-9.738,-5.72,1.777,0.923,0.069,-3.896
2448.0,-9.738,-5.72,1.777,0.923,0.069,-3.896
2452.0,-9.738,-5.72,1.777,0.923,0.069,-3.896
2456.0,-10.615,-5.986,2.032,0.925,0.012,-4.165
2460.0,-10.615,-5.986,2.032,0.925,0.012,-4.165
2464.0,-11.48,-6.286,2.386,0.898,-0.049,-4.405
2468.0,-11.48,-6.286,2.386,0.898,-0.049,-4.405
2472.0,-11.48,-6.286,2.386,0.898,-0.049,-4.405
2476.0,-12.306,-6.62,2.917,0.835,-0.11,-4.629
2480.0,-12.306,-6.62,2.917,0.835,-0.11,-4.629
2484.0,-13.116,-6.862,3.626,0.739,-0.172,-4.849
2488.0,-13.116,-6.862,3.626,0.739,-0.172,-4.849
2492.0,-13.895,-7.111,4.297,0.739,-0.172,-4.849
2496.0,-13.895,-7.111,4.297,0.623,-0.245,-4.983
2500.0,-13.895,-7.111,4.297,0.623,-0.245,-4.983
2504.0,-14.573,-7.264,4.912,0.504,-0.325,-4.995
2509.0,-14.573,-7.264,4.912,0.504,-0.325,-4.995
2513.0,-15.32,-7.3,5.978,0.39,-0.387,-4.995
2517.0,-15.32,-7.3,5.978,0.39,-0.387,-4.995
2521.0,-15.32,-7.3,5.978,0.39,-0.387,-4.995
2525.0,-16.585,-7.415,7.29,0.271,-0.449,-4.995
2529.0,-16.585,-7.415,7.29,0.271,-0.449,-4.995
2533.0,-18.449,-7.654,8.463,0.112,-0.552,-4.995
2537.0,-18.449,-7.654,8.463,0.112,-0.552,-4.995
2541.0,-18.449,-7.654,9.581,0.112,-0.552,-4.995
2545.0,-19.59,-8.11,9.581,-0.126,-0.701,-4.995
2549.0,-19.59,-8.11,9.581,-0.126,-0.701,-4.995
2554.0,-19.6,-8.746,10.691,-0.444,-0.874,-4.995
2558.0,-19.6,-8.746,10.691,-0.444,-0.874,-4.995
2562.0,-19.6,-9.663,11.655,-0.806,-1.049,-4.995
2566.0,-19.6,-9.663,11.655,-0.806,-1.049,-4.995
2571.0,-19.6,-9.663,11.655,-0.806,-1.049,-4.995
2575.0,-19.6,-10.851,12.342,-1.159,-1.219,-4.995
2579.0,-19.6,-10.851,12.342,-1.159,-1.219,-4.995
2584.0,-19.6,-12.238,12.577,-1.44,-1.384,-4.995
2588.0,-19.6,-12.238,12.577,-1.44,-1.384,-4.995
2592.0,-19.6,-13.482,12.51,-1.606,-1.539,-4.995
2597.0,-19.6,-13.482,12.51,-1.606,-1.539,-4.995
2601.0,-19.6,-14.506,12.49,-1.606,-1.539,-4.995
2605.0,-19.6,-14.506,12.49,-1.667,-1.676,-4.995
2610.0,-19.6,-14.506,12.49,-1.667,-1.676,-4.995
2614.0,-19.6,-15.514,12.735,-1.632,-1.796,-4.995
2618.0,-19.6,-15.514,12.735,-1.632,-1.796,-4.995
2623.0,-19.6,-16.632,12.96,-1.52,-1.907,-4.995
2627.0,-19.6,-16.632,12.96,-1.52,-1.907,-4.995
2631.0,-19.6,-17.642,13.052,-1.351,-2.023,-4.995
2636.0,-19.6,-17.642,13.052,-1.351,-2.023,-4.995
2640.0,-19.6,-17.642,13.047,-1.351,-2.023,-4.995
2644.0,-19.597,-18.389,13.047,-1.141,-2.171,-4.995
2649.0,-19.597,-18.389,13.047,-1.141,-2.171,-4.995
2653.0,-18.783,-18.724,12.906,-0.892,-2.347,-4.995
2657.0,-18.783,-18.724,12.906,-0.892,-2.347,-4.995
2662.0,-17.047,-18.358,12.546,-0.604,-2.526,-4.995
2666.0,-17.047,-18.358,12.546,-0.604,-2.526,-4.995
2670.0,-15.334,-17.46,12.035,-0.604,-2.683,-4.995
2675.0,-15.334,-17.46,12.035,-0.301,-2.683,-4.995
2679.0,-15.334,-17.46,12.035,-0.301,-2.683,-4.995
2683.0,-13.949,-16.235,11.409,0.004,-2.806,-4.995
2688.0,-13.949,-16.235,11.409,0.004,-2.806,-4.995
2692.0,-12.617,-14.928,10.658,0.315,-2.923,-4.995
2696.0,-12.617,-14.928,10.658,0.315,-2.923,-4.995
2700.0,-11.473,-13.508,9.668,0.626,-3.032,-4.995
2705.0,-11.473,-13.508,9.668,0.626,-3.032,-4.995
2709.0,-11.473,-13.508,9.668,0.626,-3.032,-4.995
2713.0,-10.529,-11.969,8.672,0.915,-3.11,-4.995
2717.0,-10.529,-11.969,8.672,0.915,-3.11,-4.995
2721.0,-9.489,-10.554,7.768,1.16,-3.153,-4.995
2725.0,-9.489,-10.554,7.768,1.16,-3.153,-4.995
2729.0,-8.218,-9.237,7.021,1.16,-3.153,-4.995
2733.0,-8.218,-9.237,7.021,1.346,-3.159,-4.995
2737.0,-8.218,-9.237,7.021,1.346,-3.159,-4.995
2741.0,-7.002,-8.168,6.364,1.457,-3.135,-4.995
2745.0,-7.002,-8.168,6.364,1.457,-3.135,-4.995
2749.0,-6.049,-7.277,5.664,1.493,-3.078,-4.995
2753.0,-6.049,-7.277,5.664,1.493,-3.078,-4.995
2757.0,-6.049,-7.277,5.664,1.493,-3.078,-4.995
2761.0,-5.413,-6.564,5.037,1.465,-2.985,-4.995
2765.0,-5.413,-6.564,5.037,1.465,-2.985,-4.995
2769.0,-5.034,-5.776,4.387,1.39,-2.865,-4.995
2773.0,-5.034,-5.776,4.387,1.39,-2.865,-4.995
2777.0,-5.034,-5.776,4.387,1.39,-2.865,-4.995
2781.0,-4.719,-4.93,3.826,1.281,-2.706,-4.995
2785.0,-4.719,-4.93,3.826,1.281,-2.706,-4.995
2789.0,-4.403,-4.21,3.322,1.149,-2.502,-4.893
2793.0,-4.403,-4.21,3.322,1.149,-2.502,-4.893
2797.0,-4.403,-4.21,3.322,1.149,-2.502,-4.893
2801.0,-4.154,-3.635,3.062,1.009,-2.258,-4.485
2805.0,-4.154,-3.635,3.062,1.009,-2.258,-4.485
2809.0,-4.046,-3.177,2.931,0.877,-1.999,-4.014
2813.0,-4.046,-3.177,2.931,0.877,-1.999,-4.014
2817.0,-4.046,-3.177,2.931,0.877,-1.999,-4.014
2821.0,-3.953,-2.752,2.823,0.768,-1.731,-3.562
2825.0,-3.953,-2.752,2.823,0.768,-1.731,-3.562
2829.0,-3.97,-2.399,2.605,0.694,-1.459,-3.148
2833.0,-3.97,-2.399,2.605,0.694,-1.459,-3.148
2837.0,-3.97,-2.399,2.377,0.694,-1.459,-3.148
2841.0,-4.098,-1.897,2.377,0.623,-1.189,-2.775
2845.0,-4.098,-1.897,2.377,0.623,-1.189,-2.775
2849.0,-3.874,-1.459,2.256,0.562,-0.924,-2.458
2853.0,-3.874,-1.459,2.256,0.562,-0.924,-2.458
2857.0,-3.874,-0.855,2.146,0.562,-0.924,-2.458
2861.0,-3.832,-0.855,2.146,0.525,-0.657,-2.167
2865.0,-3.832,-0.855,2.146,0.525,-0.657,-2.167
2869.0,-3.852,-0.307,2.146,0.507,-0.403,-1.875
2873.0,-3.852,-0.307,2.146,0.507,-0.403,-1.875
2877.0,-3.78,0.13,2.149,0.507,-0.403,-1.875
2881.0,-3.78,0.13,2.149,0.536,-0.174,-1.581
2885.0,-3.78,0.13,2.149,0.536,-0.174,-1.581
2889.0,-3.634,0.534,2.07,0.61,0.025,-1.283
2893.0,-3.634,0.534,2.07,0.61,0.025,-1.283
2896.0,-3.634,0.534,1.959,0.61,0.025,-1.283
2900.0,-3.456,0.955,1.959,0.712,0.192,-0.976
2904.0,-3.456,0.955,1.959,0.712,0.192,-0.976
2908.0,-3.196,1.303,1.787,0.822,0.337,-0.658
2912.0,-3.196,1.303,1.787,0.822,0.337,-0.658
2916.0,-3.196,1.303,1.787,0.822,0.337,-0.658
2919.0,-2.88,1.551,1.597,0.926,0.479,-0.332
2923.0,-2.88,1.551,1.597,0.926,0.479,-0.332
2927.0,-2.617,1.813,1.384,1.004,0.621,0.001
2931.0,-2.617,1.813,1.384,1.004,0.621,0.001
2934.0,-2.617,1.813,1.384,1.004,0.621,0.001
2938.0,-2.413,2.029,1.217,1.037,0.767,0.338
2942.0,-2.413,2.029,1.217,1.037,0.767,0.338
2946.0,-2.413,2.029,1.217,1.037,0.767,0.338
2949.0,-2.249,2.164,1.141,1.016,0.915,0.671
2953.0,-2.249,2.164,1.141,1.016,0.915,0.671
2957.0,-2.257,2.27,1.186,0.948,1.058,0.997
2961.0,-2.257,2.27,1.186,0.948,1.058,0.997
2964.0,-2.257,2.27,1.186,0.948,1.058,0.997
2968.0,-2.393,2.325,1.286,0.837,1.179,1.316
2972.0,-2.393,2.325,1.286,0.837,1.179,1.316
2976.0,-2.393,2.325,1.394,0.837,1.179,1.316
2979.0,-2.468,2.312,1.394,0.689,1.28,1.63
2983.0,-2.468,2.312,1.394,0.689,1.28,1.63
2987.0,-2.512,2.195,1.602,0.513,1.377,1.937
2990.0,-2.512,2.195,1.602,0.513,1.377,1.937
2994.0,-2.512,2.195,1.602,0.513,1.377,1.937
2998.0,-2.653,2.024,1.88,0.314,1.468,2.233
