deltaTime,Acc_X,Acc_Y,Acc_Z,Gyro_X,Gyro_Y,Gyro_Z
0.0,-9.672,0.936,0.602,-0.367,-0.712,0.568
3.0,-9.672,0.936,0.602,-0.367,-0.712,0.568
6.0,-9.672,0.936,0.602,-0.367,-0.712,0.568
9.0,-9.527,1.443,0.477,-0.437,-0.701,0.546
12.0,-9.527,1.443,0.477,-0.437,-0.701,0.546
15.0,-9.527,1.443,0.477,-0.437,-0.701,0.546
18.0,-9.459,1.554,0.479,-0.556,-0.672,0.528
21.0,-9.459,1.554,0.479,-0.556,-0.672,0.528
24.0,-9.459,1.554,0.479,-0.556,-0.672,0.528
27.0,-9.454,1.426,0.565,-0.556,-0.672,0.531
30.0,-9.454,1.426,0.565,-0.647,-0.648,0.531
33.0,-9.454,1.426,0.565,-0.647,-0.648,0.531
36.0,-9.454,1.426,0.565,-0.647,-0.648,0.531
39.0,-9.322,1.352,0.568,-0.661,-0.646,0.563
43.0,-9.322,1.352,0.568,-0.661,-0.646,0.563
47.0,-9.063,1.475,0.475,-0.63,-0.652,0.604
51.0,-9.063,1.475,0.475,-0.63,-0.652,0.604
54.0,-9.063,1.475,0.475,-0.63,-0.652,0.604
58.0,-8.892,1.606,0.433,-0.611,-0.647,0.643
62.0,-8.892,1.606,0.433,-0.611,-0.647,0.643
65.0,-8.892,1.606,0.452,-0.611,-0.647,0.643
69.0,-8.67,1.72,0.452,-0.632,-0.627,0.68
73.0,-8.67,1.72,0.452,-0.632,-0.627,0.68
77.0,-8.161,1.911,0.527,-0.701,-0.602,0.71
80.0,-8.161,1.911,0.527,-0.701,-0.602,0.71
84.0,-8.161,1.911,0.527,-0.701,-0.602,0.71
88.0,-7.802,1.947,0.616,-0.823,-0.568,0.731
92.0,-7.802,1.947,0.616,-0.823,-0.568,0.731
95.0,-7.802,1.734,0.733,-0.823,-0.568,0.731
99.0,-7.657,1.734,0.733,-0.962,-0.528,0.755
103.0,-7.657,1.734,0.733,-0.962,-0.528,0.755
107.0,-7.653,1.461,0.767,-1.078,-0.487,0.787
110.0,-7.653,1.461,0.767,-1.078,-0.487,0.787
114.0,-7.653,1.461,0.767,-1.078,-0.487,0.787
118.0,-7.813,1.251,0.702,-1.157,-0.433,0.83
122.0,-7.813,1.251,0.702,-1.157,-0.433,0.83
126.0,-7.925,1.28,0.703,-1.216,-0.365,0.876
130.0,-7.925,1.28,0.703,-1.216,-0.365,0.876
133.0,-7.925,1.28,0.703,-1.216,-0.365,0.876
137.0,-8.216,1.454,0.833,-1.281,-0.276,0.918
141.0,-8.216,1.454,0.833,-1.281,-0.276,0.918
145.0,-8.428,1.542,0.975,-1.281,-0.276,0.918
149.0,-8.428,1.542,0.975,-1.348,-0.187,0.962
152.0,-8.428,1.542,0.975,-1.348,-0.187,0.962
156.0,-8.917,1.554,1.267,-1.391,-0.108,1.021
160.0,-8.917,1.554,1.267,-1.391,-0.108,1.021
164.0,-8.917,1.554,1.267,-1.391,-0.108,1.021
168.0,-9.099,1.713,1.59,-1.416,-0.017,1.053
172.0,-9.099,1.713,1.59,-1.416,-0.017,1.053
175.0,-9.313,1.613,2.06,-1.415,0.064,1.095
179.0,-9.313,1.613,2.06,-1.415,0.064,1.095
183.0,-9.313,1.613,2.06,-1.415,0.064,1.095
187.0,-9.165,1.473,2.469,-1.351,0.1,1.143
190.0,-9.165,1.473,2.469,-1.351,0.1,1.143
194.0,-9.165,1.472,2.648,-1.351,0.1,1.143
198.0,-9.236,1.472,2.648,-1.234,0.109,1.158
201.0,-9.236,1.472,2.648,-1.234,0.109,1.158
205.0,-9.252,1.63,2.82,-1.073,0.072,1.126
209.0,-9.252,1.63,2.82,-1.073,0.072,1.126
213.0,-9.252,1.63,2.82,-1.073,0.072,1.126
216.0,-9.397,2.215,2.681,-0.874,0.023,1.081
220.0,-9.397,2.215,2.681,-0.874,0.023,1.081
224.0,-9.38,3.371,2.26,-0.874,0.023,1.081
228.0,-9.38,3.371,2.26,-0.698,-0.036,1.031
231.0,-9.38,3.371,2.26,-0.698,-0.036,1.031
235.0,-9.176,4.9,1.501,-0.666,-0.077,0.971
239.0,-9.176,4.9,1.501,-0.666,-0.077,0.971
243.0,-9.176,4.9,1.501,-0.666,-0.077,0.971
247.0,-9.013,5.902,0.486,-0.821,-0.105,0.923
251.0,-9.013,5.902,0.486,-0.821,-0.105,0.923
254.0,-9.156,5.968,-0.233,-1.046,-0.17,0.924
258.0,-9.156,5.968,-0.233,-1.046,-0.17,0.924
262.0,-9.156,5.968,-0.233,-1.046,-0.17,0.924
266.0,-9.389,5.806,-0.807,-1.256,-0.203,0.963
270.0,-9.389,5.806,-0.807,-1.256,-0.203,0.963
274.0,-9.818,5.758,-1.226,-1.443,-0.153,0.993
278.0,-9.818,5.758,-1.226,-1.443,-0.153,0.993
282.0,-9.818,5.758,-1.226,-1.443,-0.153,0.993
286.0,-10.506,5.888,-1.463,-1.603,-0.036,1.02
290.0,-10.506,5.888,-1.463,-1.603,-0.036,1.02
294.0,-11.468,5.973,-1.2,-1.733,0.125,1.065
297.0,-11.468,5.973,-1.2,-1.733,0.125,1.065
301.0,-11.468,5.973,-1.2,-1.733,0.125,1.065
305.0,-12.63,6.063,-0.48,-1.804,0.304,1.105
309.0,-12.63,6.063,-0.48,-1.804,0.304,1.105
313.0,-13.885,6.32,0.8,-1.804,0.485,1.104
317.0,-13.885,6.32,0.8,-1.769,0.485,1.104
321.0,-13.885,6.32,0.8,-1.769,0.485,1.104
325.0,-14.996,6.657,2.527,-1.588,0.643,1.073
328.0,-14.996,6.657,2.527,-1.588,0.643,1.073
332.0,-14.996,6.936,4.211,-1.588,0.643,1.073
336.0,-15.96,6.936,4.211,-1.254,0.751,1.083
340.0,-15.96,6.936,4.211,-1.254,0.751,1.083
344.0,-16.537,6.887,5.323,-0.806,0.809,1.191
347.0,-16.537,6.887,5.323,-0.806,0.809,1.191
351.0,-16.537,6.887,5.323,-0.806,0.809,1.191
355.0,-16.998,6.708,5.828,-0.325,0.864,1.371
359.0,-16.998,6.708,5.828,-0.325,0.864,1.371
363.0,-17.369,6.339,5.648,0.151,0.986,1.592
366.0,-17.369,6.339,5.648,0.151,0.986,1.592
370.0,-17.369,6.339,5.648,0.151,0.986,1.592
374.0,-17.51,6.111,5.527,0.551,1.217,1.825
378.0,-17.51,6.111,5.527,0.551,1.217,1.825
381.0,-17.51,6.111,5.744,0.551,1.217,1.825
385.0,-17.634,5.984,5.744,0.83,1.503,2.071
389.0,-17.634,5.984,5.744,0.83,1.503,2.071
393.0,-17.885,5.618,6.472,0.962,1.748,2.326
396.0,-17.885,5.618,6.472,0.962,1.748,2.326
400.0,-17.885,5.618,6.472,0.962,1.748,2.326
404.0,-18.261,5.414,7.593,0.992,1.875,2.545
408.0,-18.261,5.414,7.593,0.992,1.875,2.545
411.0,-18.27,5.286,8.908,0.992,1.875,2.545
415.0,-18.27,5.286,8.908,0.931,1.852,2.718
419.0,-18.27,5.286,8.908,0.931,1.852,2.718
422.0,-17.764,4.948,9.828,0.766,1.698,2.814
426.0,-17.764,4.948,9.828,0.766,1.698,2.814
430.0,-17.764,4.948,9.828,0.766,1.698,2.814
434.0,-17.092,4.528,10.003,0.486,1.446,2.817
437.0,-17.092,4.528,10.003,0.486,1.446,2.817
441.0,-16.295,3.824,9.456,0.486,1.131,2.757
445.0,-16.295,3.824,9.456,0.104,1.131,2.757
449.0,-16.295,3.824,9.456,0.104,1.131,2.757
453.0,-15.106,2.469,8.387,-0.366,0.8,2.649
456.0,-15.106,2.469,8.387,-0.366,0.8,2.649
460.0,-15.106,2.469,8.387,-0.366,0.8,2.649
464.0,-13.567,0.634,7.359,-0.909,0.517,2.475
468.0,-13.567,0.634,7.359,-0.909,0.517,2.475
472.0,-11.776,-1.451,6.773,-1.487,0.317,2.235
476.0,-11.776,-1.451,6.773,-1.487,0.317,2.235
479.0,-11.776,-1.451,6.773,-1.487,0.317,2.235
483.0,-10.134,-3.568,7.038,-2.053,0.192,1.97
487.0,-10.134,-3.568,7.038,-2.053,0.192,1.97
491.0,-8.688,-5.768,8.244,-2.557,0.075,1.755
495.0,-8.688,-5.768,8.244,-2.557,0.075,1.755
499.0,-8.688,-5.768,8.244,-2.557,0.075,1.755
503.0,-7.069,-8.434,9.553,-2.886,-0.179,1.567
507.0,-7.069,-8.434,9.553,-2.886,-0.179,1.567
510.0,-4.718,-11.029,9.422,-2.886,-0.634,1.295
514.0,-4.718,-11.029,9.422,-2.932,-0.634,1.295
518.0,-4.718,-11.029,9.422,-2.932,-0.634,1.295
522.0,-2.595,-13.485,8.059,-2.684,-1.02,0.924
526.0,-2.595,-13.485,8.059,-2.684,-1.02,0.924
530.0,-1.403,-15.889,6.59,-2.21,-1.23,0.537
534.0,-1.403,-15.889,6.59,-2.21,-1.23,0.537
538.0,-1.403,-15.889,6.59,-2.21,-1.23,0.537
542.0,-1.422,-17.702,5.827,-1.555,-1.36,0.194
546.0,-1.422,-17.702,5.827,-1.555,-1.36,0.194
550.0,-2.565,-18.753,5.942,-0.771,-1.47,-0.117
554.0,-2.565,-18.753,5.942,-0.771,-1.47,-0.117
559.0,-2.565,-18.753,5.942,-0.771,-1.47,-0.117
563.0,-4.293,-19.094,6.129,0.069,-1.65,-0.41
567.0,-4.293,-19.094,6.129,0.069,-1.65,-0.41
571.0,-5.924,-18.605,5.786,0.81,-1.93,-0.707
575.0,-5.924,-18.605,5.786,0.81,-1.93,-0.707
579.0,-5.924,-18.605,5.786,0.81,-1.93,-0.707
583.0,-7.038,-17.313,5.124,1.312,-2.24,-1.053
587.0,-7.038,-17.313,5.124,1.312,-2.24,-1.053
591.0,-7.611,-15.717,4.57,1.509,-2.512,-1.453
595.0,-7.611,-15.717,4.57,1.509,-2.512,-1.453
599.0,-7.611,-15.717,4.175,1.509,-2.512,-1.453
603.0,-7.941,-14.204,4.175,1.43,-2.729,-1.889
607.0,-7.941,-14.204,4.175,1.43,-2.729,-1.889
610.0,-8.285,-12.943,3.836,1.153,-2.884,-2.339
614.0,-8.285,-12.943,3.836,1.153,-2.884,-2.339
618.0,-8.585,-11.944,3.797,1.153,-2.884,-2.339
622.0,-8.585,-11.944,3.797,0.739,-2.977,-2.79
626.0,-8.585,-11.944,3.797,0.739,-2.977,-2.79
630.0,-8.838,-11.426,4.057,0.276,-3.026,-3.224
634.0,-8.838,-11.426,4.057,0.276,-3.026,-3.224
638.0,-9.448,-11.517,4.522,0.276,-3.026,-3.224
642.0,-9.448,-11.517,4.522,-0.146,-3.049,-3.634
647.0,-9.448,-11.517,4.522,-0.146,-3.049,-3.634
651.0,-10.443,-12.017,4.88,-0.437,-3.07,-4.011
655.0,-10.443,-12.017,4.88,-0.437,-3.07,-4.011
659.0,-11.323,-12.692,4.792,-0.543,-3.089,-4.342
663.0,-11.323,-12.692,4.792,-0.543,-3.089,-4.342
667.0,-11.323,-12.692,4.792,-0.543,-3.089,-4.342
671.0,-11.894,-13.415,4.58,-0.478,-3.104,-4.614
676.0,-11.894,-13.415,4.58,-0.478,-3.104,-4.614
680.0,-12.469,-14.086,4.485,-0.287,-3.128,-4.845
684.0,-12.469,-14.086,4.485,-0.287,-3.128,-4.845
688.0,-13.268,-14.438,4.619,-0.287,-3.184,-4.985
692.0,-13.268,-14.438,4.619,-0.019,-3.184,-4.985
696.0,-13.268,-14.438,4.619,-0.019,-3.184,-4.985
701.0,-14.12,-14.572,5.069,0.269,-3.29,-4.995
705.0,-14.12,-14.572,5.069,0.269,-3.29,-4.995
709.0,-15.208,-14.823,5.916,0.542,-3.462,-4.995
713.0,-15.208,-14.823,5.916,0.542,-3.462,-4.995
717.0,-15.208,-14.823,6.746,0.542,-3.462,-4.995
721.0,-16.548,-14.955,6.746,0.781,-3.7,-4.995
725.0,-16.548,-14.955,6.746,0.781,-3.7,-4.995
729.0,-17.605,-14.664,7.22,0.946,-3.988,-4.995
733.0,-17.605,-14.664,7.22,0.946,-3.988,-4.995
737.0,-18.334,-14.26,7.913,0.946,-3.988,-4.995
741.0,-18.334,-14.26,7.913,0.978,-4.285,-4.995
745.0,-18.334,-14.26,7.913,0.978,-4.285,-4.995
750.0,-19.134,-14.082,8.759,0.853,-4.58,-4.995
754.0,-19.134,-14.082,8.759,0.853,-4.58,-4.995
758.0,-19.592,-14.499,9.73,0.594,-4.854,-4.995
762.0,-19.592,-14.499,9.73,0.594,-4.854,-4.995
766.0,-19.592,-14.499,9.73,0.594,-4.854,-4.995
770.0,-19.6,-15.354,10.624,0.273,-4.987,-4.995
774.0,-19.6,-15.354,10.624,0.273,-4.987,-4.995
778.0,-19.6,-16.595,11.648,-0.057,-4.992,-4.995
783.0,-19.6,-16.595,11.648,-0.057,-4.992,-4.995
787.0,-19.376,-17.606,12.341,-0.057,-4.992,-4.995
791.0,-19.376,-17.606,12.341,-0.329,-4.992,-4.995
795.0,-19.376,-17.606,12.341,-0.329,-4.992,-4.995
800.0,-17.898,-18.246,13.019,-0.514,-4.992,-4.995
804.0,-17.898,-18.246,13.019,-0.514,-4.992,-4.995
808.0,-16.71,-18.586,13.516,-0.565,-4.992,-4.995
812.0,-16.71,-18.586,13.516,-0.565,-4.992,-4.995
817.0,-15.843,-18.26,13.288,-0.468,-4.992,-4.995
821.0,-15.843,-18.26,13.288,-0.468,-4.992,-4.995
825.0,-15.843,-18.26,13.288,-0.468,-4.992,-4.995
829.0,-14.41,-17.234,12.482,-0.243,-4.992,-4.995
834.0,-14.41,-17.234,12.482,-0.243,-4.992,-4.995
838.0,-12.765,-16.053,11.531,0.067,-4.992,-4.995
842.0,-12.765,-16.053,11.531,0.067,-4.992,-4.995
846.0,-11.372,-14.589,10.423,0.422,-4.992,-4.995
850.0,-11.372,-14.589,10.423,0.422,-4.992,-4.995
855.0,-11.372,-14.589,10.423,0.422,-4.992,-4.995
859.0,-10.277,-13.084,9.249,0.751,-4.992,-4.995
863.0,-10.277,-13.084,9.249,0.751,-4.992,-4.995
867.0,-9.61,-11.57,7.848,0.985,-4.991,-4.995
871.0,-9.61,-11.57,7.848,0.985,-4.991,-4.995
875.0,-9.61,-11.57,6.643,0.985,-4.991,-4.995
879.0,-9.367,-9.935,6.643,1.097,-4.897,-4.995
883.0,-9.367,-9.935,6.643,1.097,-4.897,-4.995
887.0,-9.21,-7.936,5.824,1.099,-4.612,-4.994
891.0,-9.21,-7.936,5.824,1.099,-4.612,-4.994
894.0,-9.21,-7.936,5.824,1.099,-4.612,-4.994
898.0,-8.895,-6.355,5.402,1.012,-4.269,-4.823
902.0,-8.895,-6.355,5.402,1.012,-4.269,-4.823
906.0,-8.935,-4.963,4.83,0.858,-3.898,-4.264
910.0,-8.935,-4.963,4.83,0.858,-3.898,-4.264
914.0,-8.935,-4.963,4.83,0.858,-3.898,-4.264
918.0,-9.157,-3.494,4.331,0.629,-3.489,-3.692
922.0,-9.157,-3.494,4.331,0.629,-3.489,-3.692
926.0,-9.355,-2.097,4.229,0.34,-3.035,-3.14
930.0,-9.355,-2.097,4.229,0.34,-3.035,-3.14
933.0,-9.355,-2.097,4.229,0.34,-3.035,-3.14
937.0,-9.726,-1.083,4.427,0.013,-2.511,-2.59
941.0,-9.726,-1.083,4.427,0.013,-2.511,-2.59
945.0,-10.308,-0.524,4.911,-0.26,-1.912,-2.087
949.0,-10.308,-0.524,4.911,-0.26,-1.912,-2.087
953.0,-10.308,-0.524,4.911,-0.26,-1.912,-2.087
957.0,-11.015,-0.151,5.593,-0.419,-1.304,-1.686
962.0,-11.015,-0.151,5.593,-0.419,-1.304,-1.686
966.0,-12.081,0.458,5.825,-0.418,-0.764,-1.395
970.0,-12.081,0.458,5.825,-0.418,-0.764,-1.395
974.0,-12.081,0.458,5.408,-0.418,-0.764,-1.395
978.0,-13.23,1.307,5.408,-0.29,-0.293,-1.133
982.0,-13.23,1.307,5.408,-0.29,-0.293,-1.133
986.0,-13.684,2.152,4.67,-0.109,0.151,-0.79
989.0,-13.684,2.152,4.67,-0.109,0.151,-0.79
993.0,-13.684,2.745,3.853,-0.109,0.151,-0.79
997.0,-13.523,2.745,3.853,0.071,0.598,-0.323
1001.0,-13.523,2.745,3.853,0.071,0.598,-0.323
1005.0,-13.172,2.966,3.08,0.222,1.052,0.231
1009.0,-13.172,2.966,3.08,0.222,1.052,0.231
1013.0,-13.172,2.966,3.08,0.222,1.052,0.231
1016.0,-12.954,3.104,2.512,0.334,1.501,0.804
1020.0,-12.954,3.104,2.512,0.334,1.501,0.804
1024.0,-12.575,3.229,2.118,0.408,1.929,1.371
1028.0,-12.575,3.229,2.118,0.408,1.929,1.371
1032.0,-12.575,3.229,2.118,0.408,1.929,1.371
1036.0,-11.815,3.299,1.874,0.437,2.336,1.932
1039.0,-11.815,3.299,1.874,0.437,2.336,1.932
1043.0,-10.942,3.34,1.677,0.437,2.336,2.498
1047.0,-10.942,3.34,1.677,0.415,2.723,2.498
1051.0,-10.942,3.34,1.677,0.415,2.723,2.498
1055.0,-10.287,3.318,1.467,0.339,3.098,3.062
1058.0,-10.287,3.318,1.467,0.339,3.098,3.062
1062.0,-10.287,3.318,1.217,0.339,3.098,3.062
1066.0,-9.897,3.17,1.217,0.212,3.472,3.61
1070.0,-9.897,3.17,1.217,0.212,3.472,3.61
1074.0,-9.821,2.875,1.088,0.038,3.856,4.125
1077.0,-9.821,2.875,1.088,0.038,3.856,4.125
1081.0,-9.821,2.875,1.088,0.038,3.856,4.125
1085.0,-10.14,2.471,1.207,-0.168,4.24,4.594
1089.0,-10.14,2.471,1.207,-0.168,4.24,4.594
1093.0,-10.89,2.054,1.81,-0.168,4.24,4.947
1097.0,-10.89,2.054,1.81,-0.383,4.603,4.947
1100.0,-10.89,2.054,1.81,-0.383,4.603,4.947
1104.0,-12.028,1.603,2.733,-0.586,4.901,5.013
1108.0,-12.028,1.603,2.733,-0.586,4.901,5.013
1112.0,-13.297,1.148,3.729,-0.586,4.901,5.013
1116.0,-13.297,1.148,3.729,-0.758,5.013,5.013
1120.0,-13.297,1.148,3.729,-0.758,5.013,5.013
1124.0,-14.401,0.703,4.591,-0.897,5.015,5.013
1128.0,-14.401,0.703,4.591,-0.897,5.015,5.013
1132.0,-14.401,0.29,5.321,-0.897,5.015,5.013
1136.0,-15.298,0.29,5.321,-1.011,5.015,5.013
1139.0,-15.298,0.29,5.321,-1.011,5.015,5.013
1143.0,-16.013,-0.076,6.141,-1.101,5.015,5.013
1147.0,-16.013,-0.076,6.141,-1.101,5.015,5.013
1151.0,-16.013,-0.921,7.509,-1.101,5.015,5.013
1155.0,-16.944,-0.921,7.509,-1.161,5.015,5.013
1159.0,-16.944,-0.921,7.509,-1.161,5.015,5.013
1163.0,-18.056,-2.13,8.821,-1.188,5.015,5.013
1167.0,-18.056,-2.13,8.821,-1.188,5.015,5.013
1171.0,-18.909,-3.21,9.977,-1.188,5.015,5.013
1175.0,-18.909,-3.21,9.977,-1.177,5.015,5.013
1179.0,-18.909,-3.21,9.977,-1.177,5.015,5.013
1183.0,-19.53,-3.916,10.973,-1.13,5.015,5.013
1187.0,-19.53,-3.916,10.973,-1.13,5.015,5.013
1191.0,-19.6,-4.18,11.896,-1.13,5.015,5.013
1196.0,-19.6,-4.18,11.896,-1.052,5.015,5.013
1200.0,-19.6,-4.18,11.896,-1.052,5.015,5.013
1204.0,-19.6,-4.448,13.4,-0.934,5.015,5.013
1208.0,-19.6,-4.448,13.4,-0.934,5.015,5.013
1212.0,-19.6,-4.757,14.195,-0.77,4.993,5.013
1216.0,-19.6,-4.757,14.195,-0.77,4.993,5.013
1220.0,-19.6,-4.757,14.195,-0.77,4.993,5.013
1224.0,-19.6,-4.4,15.08,-0.612,4.851,5.013
1228.0,-19.6,-4.4,15.08,-0.612,4.851,5.013
1232.0,-19.425,-6.173,16.164,-0.514,4.66,5.013
1236.0,-19.425,-6.173,16.164,-0.514,4.66,5.013
1240.0,-18.924,-6.576,16.309,-0.514,4.66,5.013
1245.0,-18.924,-6.576,16.309,-0.205,4.489,5.013
1249.0,-18.924,-6.576,16.309,-0.205,4.489,5.013
1253.0,-15.204,-6.726,11.541,0.256,4.214,5.013
1257.0,-15.204,-6.726,11.541,0.256,4.214,5.013
1261.0,-19.586,-3.881,17.605,0.886,3.95,5.013
1265.0,-19.586,-3.881,17.605,0.886,3.95,5.013
1269.0,-19.586,-3.881,17.605,0.886,3.95,5.013
1273.0,-19.588,-3.958,17.514,1.069,3.878,5.013
1277.0,-19.588,-3.958,17.514,1.069,3.878,5.013
1281.0,-19.6,-2.978,17.856,1.216,3.89,5.013
1285.0,-19.6,-2.978,17.856,1.216,3.89,5.013
1289.0,-19.6,-2.978,17.856,1.216,3.89,5.013
1293.0,-19.6,-2.475,18.636,1.294,3.937,5.013
1297.0,-19.6,-2.475,18.636,1.294,3.937,5.013
1301.0,-17.756,-2.56,13.974,1.33,3.98,5.012
1305.0,-17.756,-2.56,13.974,1.33,3.98,5.012
1309.0,-17.756,-2.56,13.974,1.33,3.98,5.012
1313.0,-19.455,-2.323,17.73,1.397,3.834,5.011
1317.0,-19.455,-2.323,17.73,1.397,3.834,5.011
1321.0,-19.6,-2.66,18.27,1.311,3.823,5.013
1325.0,-19.6,-2.66,18.27,1.311,3.823,5.013
1329.0,-19.6,-2.66,18.27,1.311,3.823,5.013
1333.0,-19.6,-3.07,16.411,1.172,3.696,5.013
1337.0,-19.6,-3.07,16.411,1.172,3.696,5.013
1341.0,-19.6,-2.26,14.685,0.986,3.353,5.013
1345.0,-19.6,-2.26,14.685,0.986,3.353,5.013
1349.0,-19.6,-2.26,13.833,0.986,3.353,5.013
1353.0,-19.6,-1.43,13.833,0.718,3.079,4.999
1356.0,-19.6,-1.43,13.833,0.718,3.079,4.999
1360.0,-19.6,-0.666,12.625,0.448,2.916,4.895
1364.0,-19.6,-0.666,12.625,0.448,2.916,4.895
1368.0,-19.6,0.035,11.862,0.448,2.916,4.895
1372.0,-19.475,0.035,11.862,0.089,2.58,4.692
1376.0,-19.475,0.035,11.862,0.089,2.58,4.692
1380.0,-17.848,-0.373,11.383,-0.369,2.094,4.325
1384.0,-17.848,-0.373,11.383,-0.369,2.094,4.325
1388.0,-15.666,-1.145,10.529,-0.369,2.094,4.325
1392.0,-15.666,-1.145,10.529,-0.79,1.6,3.851
1397.0,-15.666,-1.145,10.529,-0.79,1.6,3.851
1401.0,-13.515,-2.584,9.818,-1.121,1.159,3.44
1405.0,-13.515,-2.584,9.818,-1.121,1.159,3.44
1409.0,-12.13,-3.364,9.097,-1.121,0.781,3.066
1413.0,-12.13,-3.364,9.097,-1.333,0.781,3.066
1417.0,-12.13,-3.364,9.097,-1.333,0.781,3.066
1421.0,-11.012,-3.766,8.281,-1.529,0.376,2.738
1425.0,-11.012,-3.766,8.281,-1.529,0.376,2.738
1429.0,-9.821,-4.218,7.214,-1.734,-0.046,2.412
1433.0,-9.821,-4.218,7.214,-1.734,-0.046,2.412
1437.0,-9.821,-4.218,7.214,-1.734,-0.046,2.412
1441.0,-8.435,-4.468,5.882,-1.908,-0.453,2.095
1445.0,-8.435,-4.468,5.882,-1.908,-0.453,2.095
1449.0,-6.452,-4.571,4.586,-2.061,-0.817,1.789
1453.0,-6.452,-4.571,4.586,-2.061,-0.817,1.789
1456.0,-6.452,-4.571,4.586,-2.061,-0.817,1.789
1460.0,-4.338,-4.513,3.714,-2.176,-1.076,1.493
1464.0,-4.338,-4.513,3.714,-2.176,-1.076,1.493
1468.0,-2.151,-4.63,3.538,-2.236,-1.242,1.188
1472.0,-2.151,-4.63,3.538,-2.236,-1.242,1.188
1476.0,-2.151,-4.63,3.538,-2.236,-1.242,1.188
1480.0,-0.324,-4.841,3.402,-2.19,-1.343,0.879
1484.0,-0.324,-4.841,3.402,-2.19,-1.343,0.879
1488.0,1.103,-5.262,3.157,-2.033,-1.367,0.609
1492.0,1.103,-5.262,3.157,-2.033,-1.367,0.609
1496.0,1.103,-5.262,3.157,-2.033,-1.367,0.609
1500.0,1.976,-5.81,3.093,-1.771,-1.295,0.4
1504.0,1.976,-5.81,3.093,-1.771,-1.295,0.4
1508.0,2.198,-6.374,3.168,-1.435,-1.173,0.234
1512.0,2.198,-6.374,3.168,-1.435,-1.173,0.234
1516.0,2.198,-6.374,3.168,-1.435,-1.173,0.234
1520.0,1.853,-6.896,3.23,-1.055,-1.06,0.061
1524.0,1.853,-6.896,3.23,-1.055,-1.06,0.061
1528.0,1.142,-7.231,3.054,-0.652,-1.0,-0.165
1531.0,1.142,-7.231,3.054,-0.652,-1.0,-0.165
1535.0,1.142,-7.231,3.054,-0.652,-1.0,-0.165
1539.0,0.257,-7.199,2.568,-0.247,-0.993,-0.438
1543.0,0.257,-7.199,2.568,-0.247,-0.993,-0.438
1547.0,-0.575,-6.911,1.9,0.121,-1.006,-0.711
1551.0,-0.575,-6.911,1.9,0.121,-1.006,-0.711
1555.0,-0.575,-6.911,1.9,0.121,-1.006,-0.711
1559.0,-1.431,-6.649,1.248,0.417,-1.017,-0.957
1563.0,-1.431,-6.649,1.248,0.417,-1.017,-0.957
1567.0,-2.419,-6.398,0.759,0.627,-1.029,-1.19
1571.0,-2.419,-6.398,0.759,0.627,-1.029,-1.19
1575.0,-2.419,-6.398,0.759,0.627,-1.029,-1.19
1579.0,-3.513,-6.243,0.529,0.754,-1.051,-1.42
1583.0,-3.513,-6.243,0.529,0.754,-1.051,-1.42
1587.0,-4.588,-6.278,0.377,0.801,-1.088,-1.654
1591.0,-4.588,-6.278,0.377,0.801,-1.088,-1.654
1595.0,-4.588,-6.278,0.312,0.801,-1.088,-1.654
1599.0,-5.441,-6.288,0.312,0.781,-1.121,-1.895
1603.0,-5.441,-6.288,0.312,0.781,-1.121,-1.895
1607.0,-5.882,-6.223,0.294,0.705,-1.137,-2.13
1611.0,-5.882,-6.223,0.294,0.705,-1.137,-2.13
1615.0,-5.852,-6.2,0.33,0.705,-1.137,-2.13
1619.0,-5.852,-6.2,0.33,0.589,-1.122,-2.347
1623.0,-5.852,-6.2,0.33,0.589,-1.122,-2.347
1627.0,-5.608,-6.303,0.358,0.442,-1.07,-2.547
1631.0,-5.608,-6.303,0.358,0.442,-1.07,-2.547
1635.0,-5.471,-6.383,0.348,0.442,-1.07,-2.743
1639.0,-5.471,-6.383,0.348,0.264,-0.992,-2.743
1643.0,-5.471,-6.383,0.348,0.264,-0.992,-2.743
1647.0,-5.451,-6.468,0.199,0.062,-0.903,-2.945
1651.0,-5.451,-6.468,0.199,0.062,-0.903,-2.945
1655.0,-5.364,-6.669,0.036,0.062,-0.808,-3.153
1659.0,-5.364,-6.669,0.036,-0.155,-0.808,-3.153
1663.0,-5.364,-6.669,0.036,-0.155,-0.808,-3.153
1667.0,-5.336,-6.958,0.062,-0.363,-0.703,-3.361
1672.0,-5.336,-6.958,0.062,-0.363,-0.703,-3.361
1676.0,-5.579,-7.359,0.19,-0.53,-0.598,-3.565
1680.0,-5.579,-7.359,0.19,-0.53,-0.598,-3.565
1684.0,-5.579,-7.359,0.19,-0.53,-0.598,-3.565
1688.0,-6.106,-7.92,0.418,-0.621,-0.496,-3.767
1692.0,-6.106,-7.92,0.418,-0.621,-0.496,-3.767
1696.0,-6.901,-8.515,0.681,-0.624,-0.402,-3.971
1700.0,-6.901,-8.515,0.681,-0.624,-0.402,-3.971
1704.0,-7.832,-8.982,1.021,-0.624,-0.402,-3.971
1708.0,-7.832,-8.982,1.021,-0.555,-0.316,-4.175
1712.0,-7.832,-8.982,1.021,-0.555,-0.316,-4.175
1716.0,-8.726,-9.251,1.418,-0.452,-0.254,-4.369
1720.0,-8.726,-9.251,1.418,-0.452,-0.254,-4.369
1725.0,-9.543,-9.319,1.897,-0.352,-0.219,-4.547
1729.0,-9.543,-9.319,1.897,-0.352,-0.219,-4.547
1733.0,-9.543,-9.319,1.897,-0.352,-0.219,-4.547
1737.0,-10.281,-9.342,2.398,-0.284,-0.209,-4.71
1741.0,-10.281,-9.342,2.398,-0.284,-0.209,-4.71
1745.0,-10.983,-9.379,2.878,-0.261,-0.228,-4.858
1749.0,-10.983,-9.379,2.878,-0.261,-0.228,-4.858
1753.0,-10.983,-9.474,3.498,-0.261,-0.228,-4.858
1758.0,-11.754,-9.474,3.498,-0.282,-0.27,-4.971
1762.0,-11.754,-9.474,3.498,-0.282,-0.27,-4.971
1766.0,-12.798,-9.782,4.504,-0.34,-0.342,-4.995
1770.0,-12.798,-9.782,4.504,-0.34,-0.342,-4.995
1774.0,-14.185,-10.244,5.704,-0.433,-0.468,-4.995
1779.0,-14.185,-10.244,5.704,-0.433,-0.468,-4.995
1783.0,-14.185,-10.244,6.959,-0.433,-0.468,-4.995
1787.0,-15.557,-10.743,6.959,-0.542,-0.66,-4.995
1791.0,-15.557,-10.743,6.959,-0.542,-0.66,-4.995
1796.0,-16.43,-11.448,8.341,-0.645,-0.917,-4.995
1800.0,-16.43,-11.448,8.341,-0.645,-0.917,-4.995
1804.0,-16.869,-12.477,9.734,-0.721,-1.225,-4.995
1808.0,-16.869,-12.477,9.734,-0.721,-1.225,-4.995
1813.0,-16.869,-13.898,11.215,-0.721,-1.225,-4.995
1817.0,-17.754,-13.898,11.215,-0.751,-1.54,-4.995
1821.0,-17.754,-13.898,11.215,-0.751,-1.54,-4.995
1826.0,-19.241,-15.902,12.657,-0.697,-1.842,-4.995
1830.0,-19.241,-15.902,12.657,-0.697,-1.842,-4.995
1834.0,-19.6,-18.389,14.299,-0.516,-2.148,-4.995
1839.0,-19.6,-18.389,14.299,-0.516,-2.148,-4.995
1843.0,-19.6,-19.594,16.024,-0.165,-2.469,-4.995
1847.0,-19.6,-19.594,16.024,-0.165,-2.469,-4.995
1852.0,-19.6,-19.594,16.024,-0.165,-2.469,-4.995
1856.0,-19.6,-19.6,17.922,0.322,-2.808,-4.995
1860.0,-19.6,-19.6,17.922,0.322,-2.808,-4.995
1864.0,-19.6,-19.6,19.449,0.841,-3.172,-4.995
1869.0,-19.6,-19.6,19.449,0.841,-3.172,-4.995
1873.0,-19.6,-19.6,19.6,1.254,-3.587,-4.995
1877.0,-19.6,-19.6,19.6,1.254,-3.587,-4.995
1881.0,-19.6,-19.6,19.6,1.254,-3.587,-4.995
1886.0,-19.6,-19.275,19.6,1.409,-4.038,-4.995
1890.0,-19.6,-19.275,19.6,1.409,-4.038,-4.995
1894.0,-19.6,-17.727,19.6,1.242,-4.448,-4.995
1899.0,-19.6,-17.727,19.6,1.242,-4.448,-4.995
1903.0,-19.6,-16.135,19.6,0.863,-4.784,-4.995
1907.0,-19.6,-16.135,19.6,0.863,-4.784,-4.995
1911.0,-19.6,-14.937,19.6,0.863,-4.784,-4.995
1916.0,-19.6,-14.937,19.6,0.373,-4.97,-4.995
1920.0,-19.6,-14.937,19.6,0.373,-4.97,-4.995
1924.0,-19.368,-13.972,19.301,-0.076,-4.992,-4.995
1928.0,-19.368,-13.972,19.301,-0.076,-4.992,-4.995
1933.0,-17.403,-12.926,17.883,-0.349,-4.991,-4.995
1937.0,-17.403,-12.926,17.883,-0.349,-4.991,-4.995
1941.0,-15.333,-11.834,16.05,-0.349,-4.991,-4.995
1946.0,-15.333,-11.834,16.05,-0.396,-4.954,-4.995
1950.0,-15.333,-11.834,16.05,-0.396,-4.954,-4.995
1954.0,-13.603,-10.645,14.049,-0.242,-4.839,-4.995
1959.0,-13.603,-10.645,14.049,-0.242,-4.839,-4.995
1963.0,-12.599,-9.368,11.928,0.044,-4.699,-4.995
1967.0,-12.599,-9.368,11.928,0.044,-4.699,-4.995
1971.0,-12.5,-8.23,10.001,0.374,-4.538,-4.995
1976.0,-12.5,-8.23,10.001,0.374,-4.538,-4.995
1980.0,-12.5,-8.23,10.001,0.374,-4.538,-4.995
1984.0,-12.88,-7.382,8.34,0.679,-4.373,-4.995
1988.0,-12.88,-7.382,8.34,0.679,-4.373,-4.995
1992.0,-13.362,-6.397,6.977,0.917,-4.222,-4.995
1996.0,-13.362,-6.397,6.977,0.917,-4.222,-4.995
2000.0,-13.488,-5.542,5.928,0.917,-4.222,-4.995
2004.0,-13.488,-5.542,5.928,1.061,-4.08,-4.995
2008.0,-13.488,-5.542,5.928,1.061,-4.08,-4.995
2012.0,-13.225,-4.828,4.942,1.12,-3.913,-4.991
2017.0,-13.225,-4.828,4.942,1.12,-3.913,-4.991
2021.0,-12.77,-4.115,4.222,1.099,-3.696,-4.782
2025.0,-12.77,-4.115,4.222,1.099,-3.696,-4.782
2029.0,-12.77,-4.115,4.222,1.099,-3.696,-4.782
2033.0,-12.326,-3.525,3.447,1.011,-3.435,-4.273
2037.0,-12.326,-3.525,3.447,1.011,-3.435,-4.273
2041.0,-11.763,-2.997,2.701,0.867,-3.139,-3.765
2045.0,-11.763,-2.997,2.701,0.867,-3.139,-3.765
2049.0,-11.763,-2.997,2.701,0.867,-3.139,-3.765
2053.0,-11.361,-2.456,2.107,0.711,-2.824,-3.298
2057.0,-11.361,-2.456,2.107,0.711,-2.824,-3.298
2061.0,-11.192,-1.917,1.485,0.585,-2.514,-2.868
2066.0,-11.192,-1.917,1.485,0.585,-2.514,-2.868
2070.0,-11.267,-1.234,0.984,0.585,-2.514,-2.461
2074.0,-11.267,-1.234,0.984,0.536,-2.218,-2.461
2078.0,-11.267,-1.234,0.984,0.536,-2.218,-2.461
2082.0,-11.259,-0.522,0.462,0.594,-1.935,-2.04
2086.0,-11.259,-0.522,0.462,0.594,-1.935,-2.04
2090.0,-10.869,0.275,-0.284,0.749,-1.642,-1.575
2094.0,-10.869,0.275,-0.284,0.749,-1.642,-1.575
2098.0,-10.869,0.275,-0.284,0.749,-1.642,-1.575
2102.0,-10.311,1.24,-1.017,0.951,-1.306,-1.061
2106.0,-10.311,1.24,-1.017,0.951,-1.306,-1.061
2110.0,-9.827,2.157,-1.455,1.144,-0.92,-0.513
2114.0,-9.827,2.157,-1.455,1.144,-0.92,-0.513
2118.0,-9.827,2.157,-1.589,1.144,-0.92,-0.513
2122.0,-9.349,2.984,-1.589,1.285,-0.514,0.023
2126.0,-9.349,2.984,-1.589,1.285,-0.514,0.023
2130.0,-8.749,3.704,-1.603,1.355,-0.095,0.521
2134.0,-8.749,3.704,-1.603,1.355,-0.095,0.521
2138.0,-8.749,3.704,-1.603,1.355,-0.095,0.521
2142.0,-7.937,4.265,-1.47,1.34,0.35,0.992
2146.0,-7.937,4.265,-1.47,1.34,0.35,0.992
2150.0,-7.057,4.64,-1.097,1.237,0.83,1.457
2153.0,-7.057,4.64,-1.097,1.237,0.83,1.457
2157.0,-7.057,4.64,-1.097,1.237,0.83,1.457
2161.0,-6.277,4.783,-0.516,1.062,1.326,1.922
2165.0,-6.277,4.783,-0.516,1.062,1.326,1.922
2169.0,-5.705,4.723,-0.032,0.836,1.82,2.378
2172.0,-5.705,4.723,-0.032,0.836,1.82,2.378
2176.0,-5.705,4.723,-0.032,0.836,1.82,2.378
2180.0,-5.381,4.539,0.4,0.578,2.307,2.812
2184.0,-5.381,4.539,0.4,0.578,2.307,2.812
2188.0,-5.381,4.539,0.734,0.578,2.307,2.812
2191.0,-5.361,4.251,0.734,0.303,2.777,3.223
2195.0,-5.361,4.251,0.734,0.303,2.777,3.223
2199.0,-5.635,3.986,1.098,0.029,3.232,3.61
2202.0,-5.635,3.986,1.098,0.029,3.232,3.61
2206.0,-5.635,3.986,1.098,0.029,3.232,3.61
2210.0,-6.143,3.683,1.564,-0.23,3.658,3.977
2214.0,-6.143,3.683,1.564,-0.23,3.658,3.977
2218.0,-6.799,3.396,2.181,-0.23,3.658,3.977
2221.0,-6.799,3.396,2.181,-0.465,4.051,4.323
2225.0,-6.799,3.396,2.181,-0.465,4.051,4.323
2229.0,-7.777,3.06,3.047,-0.676,4.403,4.657
2233.0,-7.777,3.06,3.047,-0.676,4.403,4.657
2237.0,-7.777,3.06,3.047,-0.676,4.403,4.657
2241.0,-9.13,2.583,4.067,-0.87,4.688,4.943
2244.0,-9.13,2.583,4.067,-0.87,4.688,4.943
2248.0,-10.731,1.789,5.066,-1.057,4.878,5.013
2252.0,-10.731,1.789,5.066,-1.057,4.878,5.013
2256.0,-10.731,1.789,5.066,-1.057,4.878,5.013
2260.0,-12.236,0.876,5.693,-1.242,4.975,5.013
2264.0,-12.236,0.876,5.693,-1.242,4.975,5.013
2268.0,-13.575,-0.04,6.057,-1.41,5.008,5.013
2272.0,-13.575,-0.04,6.057,-1.41,5.008,5.013
2276.0,-13.575,-0.04,6.057,-1.41,5.008,5.013
2280.0,-14.629,-1.112,6.324,-1.536,5.011,5.013
2284.0,-14.629,-1.112,6.324,-1.536,5.011,5.013
2288.0,-15.305,-2.049,7.115,-1.608,4.981,5.013
2292.0,-15.305,-2.049,7.115,-1.608,4.981,5.013
2296.0,-15.305,-2.049,7.115,-1.608,4.981,5.013
2300.0,-15.964,-2.372,7.102,-1.73,4.875,5.013
2304.0,-15.964,-2.372,7.102,-1.73,4.875,5.013
2308.0,-17.391,-3.891,8.299,-1.746,4.804,5.013
2312.0,-17.391,-3.891,8.299,-1.746,4.804,5.013
2316.0,-17.391,-3.891,8.299,-1.746,4.804,5.013
2320.0,-19.241,-5.115,9.531,-1.599,4.656,5.013
2324.0,-19.241,-5.115,9.531,-1.599,4.656,5.013
2328.0,-19.6,-6.166,10.548,-1.418,4.427,5.013
2332.0,-19.6,-6.166,10.548,-1.418,4.427,5.013
2336.0,-19.6,-7.233,11.555,-1.418,4.427,5.013
2340.0,-19.6,-7.233,11.555,-1.224,4.168,5.013
2344.0,-19.6,-7.233,11.555,-1.224,4.168,5.013
2348.0,-19.6,-7.759,11.932,-1.009,3.914,5.013
2352.0,-19.6,-7.759,11.932,-1.009,3.914,5.013
2356.0,-19.6,-7.381,11.73,-1.009,3.719,5.013
2360.0,-19.6,-7.381,11.73,-0.787,3.719,5.013
2364.0,-19.6,-7.381,11.73,-0.787,3.719,5.013
2368.0,-19.6,-6.932,11.737,-0.595,3.624,5.013
2372.0,-19.6,-6.932,11.737,-0.595,3.624,5.013
2377.0,-19.6,-6.666,12.014,-0.442,3.599,5.013
2381.0,-19.6,-6.666,12.014,-0.442,3.599,5.013
2385.0,-19.6,-6.666,12.014,-0.442,3.599,5.013
2389.0,-19.6,-6.368,12.644,-0.333,3.616,5.013
2393.0,-19.6,-6.368,12.644,-0.333,3.616,5.013
2397.0,-19.6,-6.263,13.81,-0.254,3.642,5.013
2401.0,-19.6,-6.263,13.81,-0.254,3.642,5.013
2405.0,-19.6,-6.41,14.789,-0.254,3.642,5.013
2409.0,-19.6,-6.41,14.789,-0.184,3.626,5.013
2413.0,-19.6,-6.41,14.789,-0.184,3.626,5.013
2417.0,-19.6,-6.696,15.817,-0.085,3.57,5.013
2421.0,-19.6,-6.696,15.817,-0.085,3.57,5.013
2425.0,-19.6,-7.179,16.534,0.062,3.438,5.013
2429.0,-19.6,-7.179,16.534,0.062,3.438,5.013
2433.0,-19.6,-7.179,16.534,0.062,3.438,5.013
2437.0,-19.6,-7.216,16.726,0.258,3.233,5.013
2441.0,-19.6,-7.216,16.726,0.258,3.233,5.013
2445.0,-19.6,-6.699,16.631,0.48,2.983,5.013
2449.0,-19.6,-6.699,16.631,0.48,2.983,5.013
2453.0,-19.6,-6.699,16.631,0.48,2.983,5.013
2457.0,-19.6,-5.783,16.122,0.699,2.739,5.013
2461.0,-19.6,-5.783,16.122,0.699,2.739,5.013
2465.0,-19.6,-4.803,15.611,0.876,2.533,5.013
2469.0,-19.6,-4.803,15.611,0.876,2.533,5.013
2473.0,-19.6,-4.803,15.611,0.876,2.533,5.013
2477.0,-19.6,-4.039,15.365,0.965,2.354,5.013
2481.0,-19.6,-4.039,15.365,0.965,2.354,5.013
2485.0,-19.6,-3.542,15.245,0.95,2.152,5.013
2489.0,-19.6,-3.542,15.245,0.95,2.152,5.013
2493.0,-19.6,-3.542,14.811,0.95,2.152,5.013
2497.0,-19.6,-3.022,14.811,0.839,1.909,5.013
2501.0,-19.6,-3.022,14.811,0.839,1.909,5.013
2505.0,-19.6,-2.432,13.898,0.651,1.647,5.013
2509.0,-19.6,-2.432,13.898,0.651,1.647,5.013
2513.0,-19.6,-2.24,12.622,0.651,1.647,5.013
2517.0,-19.6,-2.24,12.622,0.402,1.399,5.013
2521.0,-19.6,-2.24,12.622,0.402,1.399,5.013
2525.0,-19.379,-2.258,11.387,0.091,1.164,5.013
2529.0,-19.379,-2.258,11.387,0.091,1.164,5.013
2533.0,-18.671,-2.587,9.913,0.091,1.164,5.013
2537.0,-18.671,-2.587,9.913,-0.303,0.929,5.013
2541.0,-18.671,-2.587,9.913,-0.303,0.929,5.013
2545.0,-16.469,-3.61,9.032,-0.726,0.737,5.013
2549.0,-16.469,-3.61,9.032,-0.726,0.737,5.013
2553.0,-14.006,-3.964,8.158,-0.726,0.737,5.008
2557.0,-14.006,-3.964,8.158,-1.06,0.542,5.008
2561.0,-14.006,-3.964,8.158,-1.06,0.542,5.008
2565.0,-11.858,-4.34,7.542,-1.315,0.246,4.818
2569.0,-11.858,-4.34,7.542,-1.315,0.246,4.818
2573.0,-9.832,-4.99,7.151,-1.315,-0.131,4.341
2577.0,-9.832,-4.99,7.151,-1.415,-0.131,4.341
2581.0,-9.832,-4.99,7.151,-1.415,-0.131,4.341
2585.0,-8.228,-5.579,6.004,-1.299,-0.516,3.811
2589.0,-8.228,-5.579,6.004,-1.299,-0.516,3.811
2593.0,-7.121,-6.465,4.687,-1.014,-0.778,3.372
2597.0,-7.121,-6.465,4.687,-1.014,-0.778,3.372
2601.0,-7.121,-6.465,4.687,-1.014,-0.778,3.372
2605.0,-6.52,-7.504,3.787,-0.64,-0.85,3.041
2609.0,-6.52,-7.504,3.787,-0.64,-0.85,3.041
2613.0,-6.173,-8.286,3.444,-0.234,-0.815,2.724
2617.0,-6.173,-8.286,3.444,-0.234,-0.815,2.724
2621.0,-6.173,-8.286,3.444,-0.234,-0.815,2.724
2625.0,-5.794,-8.777,3.432,0.153,-0.794,2.39
2629.0,-5.794,-8.777,3.432,0.153,-0.794,2.39
2633.0,-5.253,-8.984,3.215,0.491,-0.82,2.034
2637.0,-5.253,-8.984,3.215,0.491,-0.82,2.034
2641.0,-5.253,-8.984,3.215,0.491,-0.82,2.034
2645.0,-4.865,-8.855,2.602,0.769,-0.856,1.651
2648.0,-4.865,-8.855,2.602,0.769,-0.856,1.651
2652.0,-4.72,-8.408,1.769,0.971,-0.877,1.24
2656.0,-4.72,-8.408,1.769,0.971,-0.877,1.24
2660.0,-4.72,-8.408,1.769,0.971,-0.877,1.24
2664.0,-4.695,-7.75,1.078,1.077,-0.885,0.805
2668.0,-4.695,-7.75,1.078,1.077,-0.885,0.805
2672.0,-4.617,-6.933,0.607,1.077,-0.895,0.344
2676.0,-4.617,-6.933,0.607,1.079,-0.895,0.344
2680.0,-4.617,-6.933,0.607,1.079,-0.895,0.344
2684.0,-4.512,-6.155,0.34,0.981,-0.912,-0.126
2688.0,-4.512,-6.155,0.34,0.981,-0.912,-0.126
2692.0,-4.42,-5.503,0.087,0.981,-0.936,-0.589
2696.0,-4.42,-5.503,0.087,0.804,-0.936,-0.589
2700.0,-4.42,-5.503,0.087,0.804,-0.936,-0.589
2704.0,-4.35,-5.064,-0.102,0.575,-0.954,-1.034
2708.0,-4.35,-5.064,-0.102,0.575,-0.954,-1.034
2712.0,-4.31,-4.841,-0.017,0.335,-0.961,-1.454
2716.0,-4.31,-4.841,-0.017,0.335,-0.961,-1.454
2720.0,-4.31,-4.841,-0.017,0.335,-0.961,-1.454
2724.0,-4.286,-4.781,0.196,0.113,-0.966,-1.843
2728.0,-4.286,-4.781,0.196,0.113,-0.966,-1.843
2732.0,-4.266,-4.871,0.266,-0.061,-0.962,-2.193
2736.0,-4.266,-4.871,0.266,-0.061,-0.962,-2.193
2740.0,-4.266,-4.871,0.236,-0.061,-0.962,-2.193
2744.0,-4.18,-5.148,0.236,-0.171,-0.933,-2.492
2748.0,-4.18,-5.148,0.236,-0.171,-0.933,-2.492
2752.0,-4.061,-5.469,0.157,-0.211,-0.88,-2.743
2756.0,-4.061,-5.469,0.157,-0.211,-0.88,-2.743
2761.0,-3.927,-5.767,0.058,-0.211,-0.88,-2.951
2765.0,-3.927,-5.767,0.058,-0.184,-0.813,-2.951
2769.0,-3.927,-5.767,0.058,-0.184,-0.813,-2.951
2773.0,-3.863,-5.988,-0.048,-0.101,-0.742,-3.123
2777.0,-3.863,-5.988,-0.048,-0.101,-0.742,-3.123
2781.0,-3.98,-6.175,-0.172,0.02,-0.683,-3.265
2785.0,-3.98,-6.175,-0.172,0.02,-0.683,-3.265
2789.0,-3.98,-6.175,-0.172,0.02,-0.683,-3.265
2793.0,-4.289,-6.33,-0.34,0.154,-0.637,-3.393
2797.0,-4.289,-6.33,-0.34,0.154,-0.637,-3.393
2802.0,-4.855,-6.444,-0.446,0.29,-0.597,-3.523
2806.0,-4.855,-6.444,-0.446,0.29,-0.597,-3.523
2810.0,-5.626,-6.483,-0.443,0.29,-0.597,-3.523
2814.0,-5.626,-6.483,-0.443,0.42,-0.566,-3.658
2818.0,-5.626,-6.483,-0.443,0.42,-0.566,-3.658
2822.0,-6.479,-6.443,-0.361,0.531,-0.546,-3.794
2826.0,-6.479,-6.443,-0.361,0.531,-0.546,-3.794
2830.0,-7.26,-6.306,-0.218,0.6,-0.539,-3.937
2834.0,-7.26,-6.306,-0.218,0.6,-0.539,-3.937
2838.0,-7.26,-6.306,-0.218,0.6,-0.539,-3.937
2842.0,-7.922,-6.191,-0.001,0.606,-0.535,-4.097
2846.0,-7.922,-6.191,-0.001,0.606,-0.535,-4.097
2850.0,-8.552,-6.129,0.339,0.543,-0.543,-4.287
2854.0,-8.552,-6.129,0.339,0.543,-0.543,-4.287
2858.0,-8.552,-6.129,0.339,0.543,-0.543,-4.287
2862.0,-9.22,-6.108,0.683,0.416,-0.571,-4.512
2866.0,-9.22,-6.108,0.683,0.416,-0.571,-4.512
2870.0,-9.937,-6.107,0.966,0.242,-0.623,-4.769
2874.0,-9.937,-6.107,0.966,0.242,-0.623,-4.769
2878.0,-9.937,-6.107,1.205,0.242,-0.623,-4.769
2882.0,-10.58,-6.103,1.205,0.04,-0.7,-4.969
2887.0,-10.58,-6.103,1.205,0.04,-0.7,-4.969
2891.0,-11.236,-6.199,1.594,-0.17,-0.784,-4.995
2895.0,-11.236,-6.199,1.594,-0.17,-0.784,-4.995
2899.0,-12.033,-6.558,2.273,-0.17,-0.876,-4.995
2903.0,-12.033,-6.558,2.273,-0.374,-0.876,-4.995
2907.0,-12.033,-6.558,2.273,-0.374,-0.876,-4.995
2911.0,-13.089,-6.941,3.098,-0.578,-0.992,-4.995
2916.0,-13.089,-6.941,3.098,-0.578,-0.992,-4.995
2920.0,-14.206,-7.377,3.944,-0.799,-1.139,-4.995
2924.0,-14.206,-7.377,3.944,-0.799,-1.139,-4.995
2928.0,-14.994,-7.97,4.878,-0.799,-1.139,-4.995
2932.0,-14.994,-7.97,4.878,-1.038,-1.309,-4.995
2936.0,-14.994,-7.97,4.878,-1.038,-1.309,-4.995
2941.0,-15.577,-8.649,6.011,-1.285,-1.469,-4.995
2945.0,-15.577,-8.649,6.011,-1.285,-1.469,-4.995
2949.0,-16.317,-9.59,7.402,-1.528,-1.598,-4.995
2953.0,-16.317,-9.59,7.402,-1.528,-1.598,-4.995
2957.0,-16.317,-9.59,8.84,-1.528,-1.598,-4.995
2961.0,-17.407,-10.856,8.84,-1.743,-1.711,-4.995
2966.0,-17.407,-10.856,8.84,-1.743,-1.711,-4.995
2970.0,-18.65,-12.178,10.095,-1.916,-1.833,-4.995
2974.0,-18.65,-12.178,10.095,-1.916,-1.833,-4.995
2979.0,-19.551,-13.328,11.407,-2.053,-1.965,-4.995
2983.0,-19.551,-13.328,11.407,-2.053,-1.965,-4.995
2987.0,-19.6,-14.423,12.645,-2.053,-1.965,-4.995
2992.0,-19.6,-14.423,12.645,-2.198,-2.114,-4.995
2996.0,-19.6,-14.423,12.645,-2.198,-2.114,-4.995
3000.0,-19.6,-15.483,13.63,-2.382,-2.274,-4.995
