deltaTime,Acc_X,Acc_Y,Acc_Z,Gyro_X,Gyro_Y,Gyro_Z
0.0,-8.767,-6.666,9.117,-0.616,-1.458,0.61
3.0,-8.767,-6.666,9.117,-0.46,-1.384,0.704
6.0,-8.767,-6.666,9.117,-0.46,-1.384,0.704
9.0,-8.767,-6.666,9.117,-0.46,-1.384,0.704
12.0,-8.998,-7.09,8.57,-0.274,-1.279,0.856
15.0,-8.998,-7.09,8.57,-0.274,-1.279,0.856
18.0,-8.998,-7.09,8.57,-0.274,-1.279,0.856
21.0,-9.435,-7.46,8.141,-0.102,-1.166,0.997
24.0,-9.435,-7.46,8.141,-0.102,-1.166,0.997
27.0,-9.435,-7.46,8.141,-0.102,-1.166,0.997
30.0,-9.477,-7.56,7.774,-0.102,-1.166,1.096
33.0,-9.477,-7.56,7.774,0.007,-1.059,1.096
37.0,-9.477,-7.56,7.774,0.007,-1.059,1.096
41.0,-9.433,-7.585,7.223,0.038,-0.946,1.151
45.0,-9.433,-7.585,7.223,0.038,-0.946,1.151
48.0,-9.433,-7.585,7.223,0.038,-0.946,1.151
52.0,-9.51,-7.813,6.27,-0.002,-0.828,1.189
56.0,-9.51,-7.813,6.27,-0.002,-0.828,1.189
60.0,-9.468,-8.119,5.192,-0.002,-0.828,1.211
64.0,-9.468,-8.119,5.192,-0.076,-0.661,1.211
67.0,-9.468,-8.119,5.192,-0.076,-0.661,1.211
71.0,-9.166,-8.235,4.288,-0.15,-0.444,1.215
75.0,-9.166,-8.235,4.288,-0.15,-0.444,1.215
79.0,-9.166,-8.235,4.288,-0.15,-0.444,1.215
83.0,-9.126,-7.634,3.658,-0.24,-0.198,1.185
86.0,-9.126,-7.634,3.658,-0.24,-0.198,1.185
90.0,-9.431,-7.674,3.836,-0.385,0.047,1.088
94.0,-9.431,-7.674,3.836,-0.385,0.047,1.088
98.0,-9.431,-7.674,3.836,-0.385,0.047,1.088
101.0,-9.663,-7.158,4.127,-0.487,0.231,0.969
105.0,-9.663,-7.158,4.127,-0.487,0.231,0.969
109.0,-9.986,-6.307,3.727,-0.487,0.231,0.838
113.0,-9.986,-6.307,3.727,-0.592,0.282,0.838
117.0,-9.986,-6.307,3.727,-0.592,0.282,0.838
121.0,-10.536,-5.802,2.742,-0.767,0.292,0.769
124.0,-10.536,-5.802,2.742,-0.767,0.292,0.769
128.0,-10.536,-5.802,1.711,-0.767,0.292,0.769
132.0,-10.994,-5.583,1.711,-1.017,0.34,0.799
136.0,-10.994,-5.583,1.711,-1.017,0.34,0.799
140.0,-11.986,-5.238,1.311,-1.332,0.411,0.841
144.0,-11.986,-5.238,1.311,-1.332,0.411,0.841
148.0,-11.986,-5.238,1.311,-1.332,0.411,0.841
152.0,-12.33,-5.0,1.599,-1.734,0.492,0.883
156.0,-12.33,-5.0,1.599,-1.734,0.492,0.883
160.0,-12.313,-5.74,2.21,-2.124,0.578,0.984
164.0,-12.313,-5.74,2.21,-2.124,0.578,0.984
167.0,-12.313,-5.74,2.21,-2.124,0.578,0.984
171.0,-11.595,-6.937,2.703,-2.29,0.587,1.153
175.0,-11.595,-6.937,2.703,-2.29,0.587,1.153
179.0,-12.381,-8.002,2.469,-2.152,0.555,1.376
183.0,-12.381,-8.002,2.469,-2.152,0.555,1.376
187.0,-12.381,-8.002,2.469,-2.152,0.555,1.376
191.0,-11.365,-7.824,1.603,-1.736,0.319,1.549
195.0,-11.365,-7.824,1.603,-1.736,0.319,1.549
199.0,-10.065,-7.716,0.98,-1.265,0.173,1.642
203.0,-10.065,-7.716,0.98,-1.265,0.173,1.642
207.0,-10.065,-7.716,0.98,-1.265,0.173,1.642
210.0,-8.692,-7.597,0.351,-0.734,0.111,1.709
214.0,-8.692,-7.597,0.351,-0.734,0.111,1.709
218.0,-7.433,-7.251,-0.431,-0.177,0.109,1.785
222.0,-7.433,-7.251,-0.431,-0.177,0.109,1.785
226.0,-7.433,-7.251,-0.431,-0.177,0.109,1.785
230.0,-6.156,-6.706,-1.553,0.342,0.167,1.879
234.0,-6.156,-6.706,-1.553,0.342,0.167,1.879
237.0,-4.719,-6.058,-2.757,0.342,0.167,1.971
241.0,-4.719,-6.058,-2.757,0.742,0.28,1.971
245.0,-4.719,-6.058,-2.757,0.742,0.28,1.971
249.0,-3.125,-5.627,-3.421,0.962,0.446,2.057
253.0,-3.125,-5.627,-3.421,0.962,0.446,2.057
257.0,-3.125,-5.627,-3.123,0.962,0.446,2.057
260.0,-1.28,-5.451,-3.123,1.058,0.65,2.127
264.0,-1.28,-5.451,-3.123,1.058,0.65,2.127
268.0,0.823,-6.147,-2.426,1.07,0.892,2.189
272.0,0.823,-6.147,-2.426,1.07,0.892,2.189
275.0,0.823,-6.147,-2.426,1.07,0.892,2.189
279.0,3.084,-7.067,-0.654,0.985,1.193,2.21
283.0,3.084,-7.067,-0.654,0.985,1.193,2.21
287.0,4.896,-8.212,1.964,0.985,1.193,2.21
290.0,4.896,-8.212,1.964,0.832,1.499,2.195
294.0,4.896,-8.212,1.964,0.832,1.499,2.195
298.0,5.041,-9.444,4.135,0.615,1.602,2.157
301.0,5.041,-9.444,4.135,0.615,1.602,2.157
305.0,5.041,-9.444,4.135,0.615,1.602,2.157
308.0,4.397,-11.358,5.105,0.266,1.421,2.021
312.0,4.397,-11.358,5.105,0.266,1.421,2.021
316.0,4.397,-13.386,5.049,0.266,1.421,2.021
320.0,3.026,-13.386,5.049,-0.237,1.126,1.674
324.0,3.026,-13.386,5.049,-0.237,1.126,1.674
327.0,1.464,-15.528,4.951,-0.832,0.824,1.148
331.0,1.464,-15.528,4.951,-0.832,0.824,1.148
335.0,1.464,-15.528,4.951,-0.832,0.824,1.148
339.0,-0.01,-17.902,5.288,-1.435,0.541,0.494
343.0,-0.01,-17.902,5.288,-1.435,0.541,0.494
347.0,-0.879,-19.541,6.266,-1.912,0.242,-0.257
351.0,-0.879,-19.541,6.266,-1.912,0.242,-0.257
355.0,-0.879,-19.541,6.266,-1.912,0.242,-0.257
359.0,-0.778,-19.6,7.694,-2.143,-0.076,-1.058
363.0,-0.778,-19.6,7.694,-2.143,-0.076,-1.058
367.0,-0.321,-19.6,9.194,-2.11,-0.378,-1.871
371.0,-0.321,-19.6,9.194,-2.11,-0.378,-1.871
375.0,-0.321,-19.6,9.194,-2.11,-0.378,-1.871
379.0,0.339,-19.6,10.216,-1.856,-0.666,-2.651
383.0,0.339,-19.6,10.216,-1.856,-0.666,-2.651
387.0,0.869,-19.6,10.695,-1.447,-0.934,-3.381
391.0,0.869,-19.6,10.695,-1.447,-0.934,-3.381
395.0,1.226,-19.6,10.698,-1.447,-0.934,-4.103
399.0,1.226,-19.6,10.698,-0.93,-1.173,-4.103
403.0,1.226,-19.6,10.698,-0.93,-1.173,-4.103
408.0,1.03,-19.6,10.488,-0.356,-1.377,-4.772
412.0,1.03,-19.6,10.488,-0.356,-1.377,-4.772
416.0,0.043,-19.6,10.226,0.205,-1.568,-4.993
420.0,0.043,-19.6,10.226,0.205,-1.568,-4.993
424.0,0.043,-19.6,10.226,0.205,-1.568,-4.993
428.0,-1.665,-19.6,9.872,0.669,-1.783,-4.995
432.0,-1.665,-19.6,9.872,0.669,-1.783,-4.995
436.0,-3.834,-19.6,9.136,0.945,-2.044,-4.995
440.0,-3.834,-19.6,9.136,0.945,-2.044,-4.995
444.0,-3.834,-19.6,9.136,0.945,-2.044,-4.995
448.0,-6.071,-19.6,8.444,1.001,-2.303,-4.995
452.0,-6.071,-19.6,8.444,1.001,-2.303,-4.995
456.0,-7.852,-19.6,8.288,0.873,-2.542,-4.995
460.0,-7.852,-19.6,8.288,0.873,-2.542,-4.995
464.0,-7.852,-19.6,8.288,0.873,-2.542,-4.995
468.0,-8.999,-19.6,8.256,0.629,-2.762,-4.995
472.0,-8.999,-19.6,8.256,0.629,-2.762,-4.995
476.0,-9.778,-19.6,8.094,0.337,-2.918,-4.995
480.0,-9.778,-19.6,8.094,0.337,-2.918,-4.995
484.0,-9.778,-19.6,7.693,0.337,-2.918,-4.995
488.0,-9.968,-19.6,7.693,0.036,-2.985,-4.995
492.0,-9.968,-19.6,7.693,0.036,-2.985,-4.995
496.0,-9.614,-19.6,7.194,-0.222,-2.938,-4.995
500.0,-9.614,-19.6,7.194,-0.222,-2.938,-4.995
504.0,-9.378,-19.6,6.539,-0.222,-2.938,-4.995
508.0,-9.378,-19.6,6.539,-0.38,-2.769,-4.995
512.0,-9.378,-19.6,6.539,-0.38,-2.769,-4.995
516.0,-9.458,-19.6,5.824,-0.393,-2.498,-4.995
520.0,-9.458,-19.6,5.824,-0.393,-2.498,-4.995
524.0,-9.607,-19.6,5.233,-0.248,-2.15,-4.995
528.0,-9.607,-19.6,5.233,-0.248,-2.15,-4.995
532.0,-9.607,-19.6,5.233,-0.248,-2.15,-4.995
536.0,-9.818,-19.6,4.615,0.048,-1.761,-4.995
540.0,-9.818,-19.6,4.615,0.048,-1.761,-4.995
544.0,-9.663,-19.6,3.937,0.484,-1.361,-4.995
548.0,-9.663,-19.6,3.937,0.484,-1.361,-4.995
552.0,-9.663,-19.6,3.937,0.484,-1.361,-4.995
556.0,-9.361,-19.6,3.524,1.031,-0.978,-4.995
560.0,-9.361,-19.6,3.524,1.031,-0.978,-4.995
564.0,-9.147,-18.045,3.31,1.639,-0.665,-4.995
568.0,-9.147,-18.045,3.31,1.639,-0.665,-4.995
572.0,-9.147,-18.045,3.31,1.639,-0.665,-4.995
576.0,-9.182,-14.704,3.001,2.236,-0.448,-4.995
580.0,-9.182,-14.704,3.001,2.236,-0.448,-4.995
584.0,-9.534,-11.246,2.312,2.754,-0.342,-4.995
588.0,-9.534,-11.246,2.312,2.754,-0.342,-4.995
592.0,-9.534,-11.246,1.317,2.754,-0.342,-4.995
596.0,-9.986,-7.603,1.317,3.134,-0.313,-4.995
600.0,-9.986,-7.603,1.317,3.134,-0.313,-4.995
604.0,-10.254,-4.366,0.094,3.352,-0.317,-4.883
608.0,-10.254,-4.366,0.094,3.352,-0.317,-4.883
612.0,-10.254,-1.731,-0.696,3.352,-0.317,-4.883
616.0,-10.278,-1.731,-0.696,3.422,-0.286,-4.33
620.0,-10.278,-1.731,-0.696,3.422,-0.286,-4.33
624.0,-10.349,0.757,-0.657,3.357,-0.185,-3.646
628.0,-10.349,0.757,-0.657,3.357,-0.185,-3.646
632.0,-10.92,2.97,-0.211,3.357,-0.185,-2.928
636.0,-10.92,2.97,-0.211,3.203,-0.034,-2.928
640.0,-10.92,2.97,-0.211,3.203,-0.034,-2.928
644.0,-11.83,4.732,0.099,2.977,0.123,-2.183
648.0,-11.83,4.732,0.099,2.977,0.123,-2.183
652.0,-12.107,6.045,0.157,2.977,0.123,-1.457
656.0,-12.107,6.045,0.157,2.714,0.266,-1.457
660.0,-12.107,6.045,0.157,2.714,0.266,-1.457
663.0,-11.693,6.811,0.279,2.432,0.412,-0.782
667.0,-11.693,6.811,0.279,2.432,0.412,-0.782
671.0,-11.693,6.811,0.279,2.432,0.412,-0.782
675.0,-11.274,7.274,0.444,2.135,0.579,-0.155
679.0,-11.274,7.274,0.444,2.135,0.579,-0.155
682.0,-11.262,7.487,0.44,1.826,0.777,0.469
686.0,-11.262,7.487,0.44,1.826,0.777,0.469
690.0,-11.262,7.487,0.44,1.826,0.777,0.469
694.0,-11.495,7.22,0.182,1.508,1.036,1.125
697.0,-11.495,7.22,0.182,1.508,1.036,1.125
701.0,-11.691,6.423,0.148,1.508,1.036,1.125
705.0,-11.691,6.423,0.148,1.188,1.375,1.801
709.0,-11.691,6.423,0.148,1.188,1.375,1.801
712.0,-11.91,5.247,0.463,0.88,1.766,2.445
716.0,-11.91,5.247,0.463,0.88,1.766,2.445
720.0,-11.91,5.247,0.463,0.88,1.766,2.445
724.0,-12.24,4.091,1.04,0.603,2.171,3.011
727.0,-12.24,4.091,1.04,0.603,2.171,3.011
731.0,-12.729,3.323,1.811,0.603,2.171,3.492
735.0,-12.729,3.323,1.811,0.374,2.557,3.492
738.0,-12.729,3.323,1.811,0.374,2.557,3.492
742.0,-13.143,2.864,2.614,0.189,2.907,3.918
746.0,-13.143,2.864,2.614,0.189,2.907,3.918
750.0,-13.143,2.864,2.614,0.189,2.907,3.918
753.0,-13.531,2.461,3.333,0.041,3.206,4.315
757.0,-13.531,2.461,3.333,0.041,3.206,4.315
761.0,-13.883,1.798,3.826,-0.072,3.455,4.695
765.0,-13.883,1.798,3.826,-0.072,3.455,4.695
768.0,-13.883,1.798,3.826,-0.072,3.455,4.695
772.0,-14.185,1.116,3.945,-0.146,3.675,4.973
776.0,-14.185,1.116,3.945,-0.146,3.675,4.973
780.0,-14.185,0.401,3.873,-0.146,3.675,4.973
784.0,-14.486,0.401,3.873,-0.17,3.892,5.013
788.0,-14.486,0.401,3.873,-0.17,3.892,5.013
791.0,-14.828,-0.206,3.861,-0.143,4.095,5.013
795.0,-14.828,-0.206,3.861,-0.143,4.095,5.013
799.0,-14.828,-0.206,3.861,-0.143,4.095,5.013
803.0,-15.311,-0.871,4.137,-0.088,4.242,5.013
807.0,-15.311,-0.871,4.137,-0.088,4.242,5.013
811.0,-15.788,-1.267,4.479,-0.035,4.31,5.013
815.0,-15.788,-1.267,4.479,-0.035,4.31,5.013
819.0,-15.788,-1.267,4.479,-0.035,4.31,5.013
823.0,-16.168,-1.633,4.869,-0.026,4.328,5.013
827.0,-16.168,-1.633,4.869,-0.026,4.328,5.013
830.0,-16.763,-2.273,5.496,-0.08,4.319,5.013
834.0,-16.763,-2.273,5.496,-0.08,4.319,5.013
838.0,-16.763,-2.273,5.496,-0.08,4.319,5.013
842.0,-17.621,-2.886,5.913,-0.189,4.293,5.013
846.0,-17.621,-2.886,5.913,-0.189,4.293,5.013
850.0,-18.462,-3.086,5.993,-0.336,4.269,5.013
854.0,-18.462,-3.086,5.993,-0.336,4.269,5.013
858.0,-18.462,-3.086,5.993,-0.336,4.269,5.013
862.0,-19.225,-3.112,5.851,-0.511,4.266,5.013
866.0,-19.225,-3.112,5.851,-0.511,4.266,5.013
870.0,-19.6,-2.998,5.425,-0.703,4.284,5.013
873.0,-19.6,-2.998,5.425,-0.703,4.284,5.013
877.0,-19.6,-2.998,5.425,-0.703,4.284,5.013
881.0,-19.6,-2.818,4.887,-0.9,4.317,5.013
885.0,-19.6,-2.818,4.887,-0.9,4.317,5.013
889.0,-19.6,-2.837,4.554,-0.9,4.361,5.013
893.0,-19.6,-2.837,4.554,-1.094,4.361,5.013
897.0,-19.6,-2.837,4.554,-1.094,4.361,5.013
901.0,-19.6,-3.118,4.994,-1.268,4.39,5.013
905.0,-19.6,-3.118,4.994,-1.268,4.39,5.013
909.0,-19.6,-3.775,5.78,-1.268,4.39,5.013
912.0,-19.6,-3.775,5.78,-1.435,4.34,5.013
916.0,-19.6,-3.775,5.78,-1.435,4.34,5.013
920.0,-19.6,-3.958,5.962,-1.544,4.238,5.013
924.0,-19.6,-3.958,5.962,-1.544,4.238,5.013
928.0,-19.6,-4.08,5.696,-1.544,4.238,5.013
932.0,-19.6,-4.08,5.696,-1.615,4.13,5.013
936.0,-19.6,-4.08,5.696,-1.615,4.13,5.013
940.0,-19.6,-3.901,5.124,-1.665,4.01,5.013
944.0,-19.6,-3.901,5.124,-1.665,4.01,5.013
948.0,-19.6,-3.417,4.637,-1.665,4.01,5.013
952.0,-19.6,-3.417,4.637,-1.695,3.874,5.013
955.0,-19.6,-3.417,4.637,-1.695,3.874,5.013
959.0,-19.6,-3.16,4.508,-1.713,3.711,5.013
963.0,-19.6,-3.16,4.508,-1.713,3.711,5.013
967.0,-19.6,-3.16,4.5,-1.713,3.711,5.013
971.0,-19.6,-2.828,4.5,-1.719,3.514,5.013
975.0,-19.6,-2.828,4.5,-1.719,3.514,5.013
979.0,-19.6,-2.633,4.674,-1.739,3.293,5.013
983.0,-19.6,-2.633,4.674,-1.739,3.293,5.013
987.0,-19.6,-2.633,4.674,-1.739,3.293,5.013
991.0,-19.6,-2.787,5.053,-1.778,3.077,5.013
995.0,-19.6,-2.787,5.053,-1.778,3.077,5.013
998.0,-19.6,-3.229,5.6,-1.816,2.871,5.013
1002.0,-19.6,-3.229,5.6,-1.816,2.871,5.013
1006.0,-19.6,-3.229,5.6,-1.816,2.871,5.013
1010.0,-19.6,-3.502,6.187,-1.835,2.684,5.013
1014.0,-19.6,-3.502,6.187,-1.835,2.684,5.013
1018.0,-19.6,-3.561,6.773,-1.81,2.523,5.013
1022.0,-19.6,-3.561,6.773,-1.81,2.523,5.013
1026.0,-19.6,-3.561,6.773,-1.81,2.523,5.013
1030.0,-19.6,-3.457,7.245,-1.715,2.382,5.013
1034.0,-19.6,-3.457,7.245,-1.715,2.382,5.013
1038.0,-19.6,-3.158,7.497,-1.548,2.263,5.013
1042.0,-19.6,-3.158,7.497,-1.548,2.263,5.013
1046.0,-19.6,-3.158,7.747,-1.548,2.263,5.013
1050.0,-19.6,-2.678,7.747,-1.335,2.198,5.013
1054.0,-19.6,-2.678,7.747,-1.335,2.198,5.013
1058.0,-19.6,-2.389,8.328,-1.089,2.214,5.013
1062.0,-19.6,-2.389,8.328,-1.089,2.214,5.013
1066.0,-19.6,-2.386,9.328,-1.089,2.214,5.013
1070.0,-19.6,-2.386,9.328,-0.808,2.266,5.013
1074.0,-19.6,-2.386,9.328,-0.808,2.266,5.013
1078.0,-19.6,-2.432,10.628,-0.484,2.282,5.013
1082.0,-19.6,-2.432,10.628,-0.484,2.282,5.013
1086.0,-19.6,-2.347,11.826,-0.484,2.231,5.013
1090.0,-19.6,-2.347,11.826,-0.127,2.231,5.013
1095.0,-19.6,-2.347,11.826,-0.127,2.231,5.013
1099.0,-19.6,-1.967,12.833,0.228,2.127,5.013
1103.0,-19.6,-1.967,12.833,0.228,2.127,5.013
1107.0,-19.451,-1.275,13.076,0.549,1.999,5.013
1111.0,-19.451,-1.275,13.076,0.549,1.999,5.013
1115.0,-19.451,-1.275,13.076,0.549,1.999,5.013
1119.0,-17.536,-0.523,12.699,0.797,1.904,5.013
1123.0,-17.536,-0.523,12.699,0.797,1.904,5.013
1127.0,-15.207,0.298,12.52,0.961,1.869,5.013
1130.0,-15.207,0.298,12.52,0.961,1.869,5.013
1134.0,-15.207,0.298,12.52,0.961,1.869,5.013
1138.0,-13.318,1.065,12.249,1.045,1.861,5.013
1142.0,-13.318,1.065,12.249,1.045,1.861,5.013
1146.0,-11.748,1.648,11.994,1.033,1.853,5.008
1150.0,-11.748,1.648,11.994,1.033,1.853,5.008
1154.0,-11.748,1.648,11.994,1.033,1.853,5.008
1158.0,-10.245,2.073,11.895,0.912,1.828,4.895
1162.0,-10.245,2.073,11.895,0.912,1.828,4.895
1166.0,-8.653,2.192,11.847,0.689,1.772,4.67
1169.0,-8.653,2.192,11.847,0.689,1.772,4.67
1173.0,-8.653,2.192,11.847,0.689,1.772,4.67
1177.0,-7.214,2.037,11.81,0.379,1.67,4.445
1181.0,-7.214,2.037,11.81,0.379,1.67,4.445
1185.0,-6.05,1.226,11.49,0.379,1.67,4.445
1189.0,-6.05,1.226,11.49,0.021,1.494,4.259
1192.0,-6.05,1.226,11.49,0.021,1.494,4.259
1196.0,-5.007,-0.273,10.183,-0.327,1.273,4.073
1200.0,-5.007,-0.273,10.183,-0.327,1.273,4.073
1204.0,-5.007,-0.273,8.2,-0.327,1.273,4.073
1208.0,-3.842,-1.989,8.2,-0.644,1.09,3.787
1212.0,-3.842,-1.989,8.2,-0.644,1.09,3.787
1216.0,-2.448,-3.042,6.189,-0.966,0.982,3.338
1220.0,-2.448,-3.042,6.189,-0.966,0.982,3.338
1224.0,-2.448,-3.042,6.189,-0.966,0.982,3.338
1228.0,-1.435,-2.969,4.991,-1.329,0.961,2.76
1231.0,-1.435,-2.969,4.991,-1.329,0.961,2.76
1235.0,-1.176,-2.536,4.998,-1.75,0.958,2.153
1239.0,-1.176,-2.536,4.998,-1.75,0.958,2.153
1243.0,-1.176,-2.536,4.998,-1.75,0.958,2.153
1247.0,-1.411,-2.362,5.861,-2.211,0.87,1.58
1251.0,-1.411,-2.362,5.861,-2.211,0.87,1.58
1255.0,-1.665,-2.7,6.968,-2.653,0.667,1.064
1259.0,-1.665,-2.7,6.968,-2.653,0.667,1.064
1263.0,-1.665,-2.7,6.968,-2.653,0.667,1.064
1267.0,-1.101,-4.027,7.561,-2.992,0.388,0.617
1271.0,-1.101,-4.027,7.561,-2.992,0.388,0.617
1274.0,0.319,-6.163,7.37,-3.172,0.124,0.218
1278.0,0.319,-6.163,7.37,-3.172,0.124,0.218
1282.0,0.319,-6.163,7.37,-3.172,0.124,0.218
1286.0,2.063,-8.482,6.584,-3.184,-0.067,-0.179
1290.0,2.063,-8.482,6.584,-3.184,-0.067,-0.179
1294.0,3.507,-10.149,5.575,-3.061,-0.174,-0.61
1298.0,3.507,-10.149,5.575,-3.061,-0.174,-0.61
1302.0,3.507,-10.149,5.575,-3.061,-0.174,-0.61
1306.0,4.148,-10.749,4.805,-2.813,-0.207,-1.076
1310.0,4.148,-10.749,4.805,-2.813,-0.207,-1.076
1314.0,3.628,-10.567,4.54,-2.474,-0.221,-1.53
1318.0,3.628,-10.567,4.54,-2.474,-0.221,-1.53
1322.0,3.628,-10.567,4.325,-2.474,-0.221,-1.53
1327.0,2.032,-10.098,4.325,-2.088,-0.268,-1.921
1331.0,2.032,-10.098,4.325,-2.088,-0.268,-1.921
1335.0,-0.036,-9.665,3.72,-1.722,-0.353,-2.256
1339.0,-0.036,-9.665,3.72,-1.722,-0.353,-2.256
1343.0,-2.138,-9.813,3.152,-1.722,-0.353,-2.565
1347.0,-2.138,-9.813,3.152,-1.389,-0.428,-2.565
1351.0,-2.138,-9.813,3.152,-1.389,-0.428,-2.565
1355.0,-4.156,-10.192,2.771,-1.049,-0.471,-2.88
1359.0,-4.156,-10.192,2.771,-1.049,-0.471,-2.88
1363.0,-5.742,-10.536,2.395,-0.672,-0.496,-3.182
1368.0,-5.742,-10.536,2.395,-0.672,-0.496,-3.182
1372.0,-5.742,-10.536,1.942,-0.672,-0.496,-3.182
1376.0,-6.73,-10.781,1.942,-0.269,-0.498,-3.448
1380.0,-6.73,-10.781,1.942,-0.269,-0.498,-3.448
1384.0,-7.147,-10.78,1.442,0.123,-0.483,-3.67
1388.0,-7.147,-10.78,1.442,0.123,-0.483,-3.67
1392.0,-7.275,-10.524,0.818,0.123,-0.47,-3.839
1397.0,-7.275,-10.524,0.818,0.454,-0.47,-3.839
1401.0,-7.275,-10.524,0.818,0.454,-0.47,-3.839
1405.0,-7.412,-10.208,0.096,0.685,-0.455,-3.956
1409.0,-7.412,-10.208,0.096,0.685,-0.455,-3.956
1413.0,-7.731,-10.13,-0.697,0.809,-0.423,-4.026
1417.0,-7.731,-10.13,-0.697,0.809,-0.423,-4.026
1421.0,-7.731,-10.13,-1.375,0.809,-0.423,-4.026
1425.0,-8.161,-10.217,-1.375,0.859,-0.37,-4.056
1429.0,-8.161,-10.217,-1.375,0.859,-0.37,-4.056
1434.0,-8.605,-10.699,-1.903,0.865,-0.317,-4.067
1438.0,-8.605,-10.699,-1.903,0.865,-0.317,-4.067
1442.0,-9.295,-11.3,-2.17,0.841,-0.283,-4.142
1446.0,-9.295,-11.3,-2.17,0.841,-0.283,-4.142
1450.0,-9.295,-11.3,-2.17,0.841,-0.283,-4.142
1454.0,-10.429,-11.575,-2.305,0.793,-0.272,-4.35
1459.0,-10.429,-11.575,-2.305,0.793,-0.272,-4.35
1463.0,-12.21,-11.377,-2.084,0.72,-0.258,-4.709
1467.0,-12.21,-11.377,-2.084,0.72,-0.258,-4.709
1472.0,-14.673,-10.582,-1.47,0.626,-0.239,-4.976
1476.0,-14.673,-10.582,-1.47,0.626,-0.239,-4.976
1480.0,-14.673,-10.582,-1.47,0.626,-0.239,-4.976
1484.0,-17.325,-9.562,-0.721,0.527,-0.247,-4.995
1488.0,-17.325,-9.562,-0.721,0.527,-0.247,-4.995
1493.0,-19.331,-8.734,-0.046,0.446,-0.311,-4.995
1497.0,-19.331,-8.734,-0.046,0.446,-0.311,-4.995
1501.0,-19.6,-8.291,0.377,0.446,-0.404,-4.995
1505.0,-19.6,-8.291,0.377,0.394,-0.404,-4.995
1509.0,-19.6,-8.291,0.377,0.394,-0.404,-4.995
1513.0,-19.6,-8.286,0.699,0.362,-0.475,-4.995
1517.0,-19.6,-8.286,0.699,0.362,-0.475,-4.995
1521.0,-19.6,-8.691,1.1,0.337,-0.493,-4.995
1525.0,-19.6,-8.691,1.1,0.337,-0.493,-4.995
1529.0,-19.6,-8.691,1.1,0.337,-0.493,-4.995
1534.0,-19.6,-9.237,1.577,0.307,-0.483,-4.995
1538.0,-19.6,-9.237,1.577,0.307,-0.483,-4.995
1542.0,-19.6,-9.696,2.105,0.249,-0.489,-4.995
1546.0,-19.6,-9.696,2.105,0.249,-0.489,-4.995
1550.0,-19.6,-10.076,2.758,0.249,-0.489,-4.995
1554.0,-19.6,-10.076,2.758,0.144,-0.518,-4.995
1558.0,-19.6,-10.076,2.758,0.144,-0.518,-4.995
1562.0,-19.6,-10.283,3.555,-0.009,-0.574,-4.995
1567.0,-19.6,-10.283,3.555,-0.009,-0.574,-4.995
1571.0,-19.6,-10.868,4.527,-0.198,-0.688,-4.995
1575.0,-19.6,-10.868,4.527,-0.198,-0.688,-4.995
1579.0,-19.6,-11.979,5.595,-0.198,-0.688,-4.995
1584.0,-19.6,-11.979,5.595,-0.4,-0.859,-4.995
1588.0,-19.6,-11.979,5.595,-0.4,-0.859,-4.995
1592.0,-19.6,-13.078,6.406,-0.603,-1.059,-4.995
1596.0,-19.6,-13.078,6.406,-0.603,-1.059,-4.995
1601.0,-19.6,-14.338,7.009,-0.849,-1.24,-4.995
1605.0,-19.6,-14.338,7.009,-0.849,-1.24,-4.995
1609.0,-19.6,-15.942,7.543,-0.849,-1.24,-4.995
1613.0,-19.6,-15.942,7.543,-1.176,-1.339,-4.995
1618.0,-19.6,-15.942,7.543,-1.176,-1.339,-4.995
1622.0,-19.6,-18.095,8.402,-1.615,-1.348,-4.995
1626.0,-19.6,-18.095,8.402,-1.615,-1.348,-4.995
1630.0,-19.6,-19.564,9.398,-2.129,-1.294,-4.995
1635.0,-19.6,-19.564,9.398,-2.129,-1.294,-4.995
1639.0,-19.6,-19.6,10.22,-2.129,-1.294,-4.995
1643.0,-19.6,-19.6,10.22,-2.611,-1.207,-4.995
1648.0,-19.6,-19.6,10.22,-2.611,-1.207,-4.995
1652.0,-19.6,-19.6,10.76,-2.949,-1.066,-4.995
1656.0,-19.6,-19.6,10.76,-2.949,-1.066,-4.995
1661.0,-19.6,-19.6,11.231,-3.017,-0.879,-4.995
1665.0,-19.6,-19.6,11.231,-3.017,-0.879,-4.995
1669.0,-19.6,-19.6,11.553,-2.649,-0.697,-4.995
1674.0,-19.6,-19.6,11.553,-2.649,-0.697,-4.995
1678.0,-19.6,-19.6,11.423,-2.649,-0.697,-4.995
1682.0,-19.6,-19.6,11.423,-1.835,-0.554,-4.995
1687.0,-19.6,-19.6,11.423,-1.835,-0.554,-4.995
1691.0,-19.6,-19.6,10.67,-0.695,-0.482,-4.995
1695.0,-19.6,-19.6,10.67,-0.695,-0.482,-4.995
1700.0,-19.6,-19.6,9.662,0.599,-0.496,-4.995
1704.0,-19.6,-19.6,9.662,0.599,-0.496,-4.995
1708.0,-19.6,-19.6,8.801,0.599,-0.496,-4.995
1712.0,-19.6,-19.6,8.801,1.82,-0.58,-4.995
1716.0,-19.6,-19.6,8.801,1.82,-0.58,-4.995
1721.0,-19.6,-18.355,8.048,2.767,-0.726,-4.995
1725.0,-19.6,-18.355,8.048,2.767,-0.726,-4.995
1729.0,-18.227,-14.264,7.501,3.385,-0.903,-4.995
1733.0,-18.227,-14.264,7.501,3.385,-0.903,-4.995
1737.0,-18.227,-10.6,6.92,3.385,-0.903,-4.995
1741.0,-15.572,-10.6,6.92,3.724,-1.062,-4.995
1746.0,-15.572,-10.6,6.92,3.724,-1.062,-4.995
1750.0,-13.885,-7.54,6.247,3.85,-1.184,-4.995
1754.0,-13.885,-7.54,6.247,3.85,-1.184,-4.995
1758.0,-13.544,-5.107,5.754,3.813,-1.294,-4.995
1762.0,-13.544,-5.107,5.754,3.813,-1.294,-4.995
1766.0,-13.544,-5.107,5.754,3.813,-1.294,-4.995
1770.0,-14.384,-3.886,5.14,3.627,-1.415,-4.995
1774.0,-14.384,-3.886,5.14,3.627,-1.415,-4.995
1778.0,-15.394,-3.148,3.833,3.315,-1.509,-4.995
1782.0,-15.394,-3.148,3.833,3.315,-1.509,-4.995
1786.0,-15.394,-3.148,2.356,3.315,-1.509,-4.995
1791.0,-15.474,-2.609,2.356,2.909,-1.498,-4.995
1795.0,-15.474,-2.609,2.356,2.909,-1.498,-4.995
1799.0,-15.267,-2.37,1.323,2.432,-1.325,-4.995
1803.0,-15.267,-2.37,1.323,2.432,-1.325,-4.995
1807.0,-15.557,-2.207,0.666,2.432,-1.017,-4.942
1811.0,-15.557,-2.207,0.666,1.938,-1.017,-4.942
1815.0,-15.557,-2.207,0.666,1.938,-1.017,-4.942
1819.0,-16.363,-2.234,0.427,1.454,-0.681,-4.513
1823.0,-16.363,-2.234,0.427,1.454,-0.681,-4.513
1827.0,-17.081,-2.151,0.331,1.071,-0.412,-3.943
1831.0,-17.081,-2.151,0.331,1.071,-0.412,-3.943
1835.0,-17.081,-2.151,0.331,1.071,-0.412,-3.943
1839.0,-17.175,-1.718,0.523,0.824,-0.256,-3.384
1844.0,-17.175,-1.718,0.523,0.824,-0.256,-3.384
1848.0,-16.428,-1.216,0.457,0.741,-0.2,-2.814
1852.0,-16.428,-1.216,0.457,0.741,-0.2,-2.814
1856.0,-14.981,-0.684,-0.022,0.741,-0.2,-2.814
1860.0,-14.981,-0.684,-0.022,0.82,-0.177,-2.233
1864.0,-14.981,-0.684,-0.022,0.82,-0.177,-2.233
1868.0,-13.199,0.168,-0.799,1.024,-0.111,-1.659
1872.0,-13.199,0.168,-0.799,1.024,-0.111,-1.659
1876.0,-11.377,1.167,-1.512,1.285,0.038,-1.094
1880.0,-11.377,1.167,-1.512,1.285,0.038,-1.094
1884.0,-11.377,1.167,-1.512,1.285,0.038,-1.094
1888.0,-9.801,2.284,-1.694,1.54,0.265,-0.556
1892.0,-9.801,2.284,-1.694,1.54,0.265,-0.556
1896.0,-8.461,3.288,-1.612,1.734,0.516,-0.053
1900.0,-8.461,3.288,-1.612,1.734,0.516,-0.053
1904.0,-8.461,3.288,-1.612,1.734,0.516,-0.053
1908.0,-7.214,4.065,-1.231,1.828,0.751,0.409
1912.0,-7.214,4.065,-1.231,1.828,0.751,0.409
1916.0,-6.013,4.506,-0.583,1.819,0.957,0.833
1919.0,-6.013,4.506,-0.583,1.819,0.957,0.833
1923.0,-6.013,4.506,-0.583,1.819,0.957,0.833
1927.0,-5.18,4.728,-0.037,1.733,1.148,1.248
1931.0,-5.18,4.728,-0.037,1.733,1.148,1.248
1935.0,-4.758,4.793,0.315,1.733,1.148,1.248
1938.0,-4.758,4.793,0.315,1.594,1.347,1.69
1942.0,-4.758,4.793,0.315,1.594,1.347,1.69
1946.0,-4.649,4.848,0.492,1.416,1.563,2.156
1950.0,-4.649,4.848,0.492,1.416,1.563,2.156
1953.0,-4.649,4.848,0.492,1.416,1.563,2.156
1957.0,-4.709,4.86,0.541,1.208,1.797,2.62
1961.0,-4.709,4.86,0.541,1.208,1.797,2.62
1965.0,-4.73,4.839,0.55,1.208,1.797,3.062
1968.0,-4.73,4.839,0.55,0.967,2.042,3.062
1972.0,-4.73,4.839,0.55,0.967,2.042,3.062
1976.0,-4.88,4.726,0.595,0.69,2.294,3.471
1979.0,-4.88,4.726,0.595,0.69,2.294,3.471
1983.0,-4.88,4.726,0.595,0.69,2.294,3.471
1987.0,-5.321,4.476,0.706,0.378,2.551,3.855
1991.0,-5.321,4.476,0.706,0.378,2.551,3.855
1994.0,-5.974,4.126,0.926,0.378,2.801,4.222
1998.0,-5.974,4.126,0.926,0.043,2.801,4.222
2002.0,-5.974,4.126,0.926,0.043,2.801,4.222
2006.0,-6.491,3.654,1.65,-0.287,3.036,4.573
2009.0,-6.491,3.654,1.65,-0.287,3.036,4.573
2013.0,-6.491,3.654,1.65,-0.287,3.036,4.573
2017.0,-7.702,3.101,2.066,-0.58,3.228,4.893
2021.0,-7.702,3.101,2.066,-0.58,3.228,4.893
2025.0,-9.014,2.431,2.582,-0.834,3.359,5.011
2029.0,-9.014,2.431,2.582,-0.834,3.359,5.011
2032.0,-9.014,2.431,2.582,-0.834,3.359,5.011
2036.0,-9.622,1.272,3.325,-1.045,3.436,5.013
2040.0,-9.622,1.272,3.325,-1.045,3.436,5.013
2044.0,-9.199,0.211,3.498,-1.045,3.481,5.013
2048.0,-9.199,0.211,3.498,-1.095,3.481,5.013
2051.0,-9.199,0.211,3.498,-1.095,3.481,5.013
2055.0,-11.456,-1.241,4.658,-1.012,3.495,5.013
2059.0,-11.456,-1.241,4.658,-1.012,3.495,5.013
2063.0,-13.168,-1.667,5.29,-1.012,3.495,5.013
2067.0,-13.168,-1.667,5.29,-1.064,3.448,5.013
2071.0,-13.168,-1.667,5.29,-1.064,3.448,5.013
2075.0,-13.363,-1.595,6.117,-1.122,3.434,5.013
2079.0,-13.363,-1.595,6.117,-1.122,3.434,5.013
2083.0,-13.692,-1.907,7.013,-1.122,3.446,5.013
2087.0,-13.692,-1.907,7.013,-1.141,3.446,5.013
2091.0,-13.692,-1.907,7.013,-1.141,3.446,5.013
2095.0,-14.491,-3.161,8.133,-1.129,3.445,5.013
2099.0,-14.491,-3.161,8.133,-1.129,3.445,5.013
2103.0,-15.759,-4.225,8.63,-1.133,3.401,5.013
2107.0,-15.759,-4.225,8.63,-1.133,3.401,5.013
2111.0,-15.759,-4.225,8.63,-1.133,3.401,5.013
2115.0,-16.959,-4.417,8.836,-1.154,3.344,5.013
2119.0,-16.959,-4.417,8.836,-1.154,3.344,5.013
2123.0,-17.843,-4.448,9.237,-1.166,3.273,5.013
2127.0,-17.843,-4.448,9.237,-1.166,3.273,5.013
2131.0,-17.843,-4.448,9.237,-1.166,3.273,5.013
2135.0,-18.529,-4.079,9.69,-1.135,3.185,5.013
2139.0,-18.529,-4.079,9.69,-1.135,3.185,5.013
2143.0,-19.187,-3.524,10.096,-1.078,3.123,5.013
2147.0,-19.187,-3.524,10.096,-1.078,3.123,5.013
2151.0,-19.187,-3.524,10.096,-1.078,3.123,5.013
2155.0,-19.595,-3.002,10.831,-1.036,3.132,5.013
2159.0,-19.595,-3.002,10.831,-1.036,3.132,5.013
2164.0,-19.6,-2.678,11.936,-1.027,3.213,5.013
2168.0,-19.6,-2.678,11.936,-1.027,3.213,5.013
2172.0,-19.6,-2.793,13.129,-1.027,3.213,5.013
2176.0,-19.6,-2.793,13.129,-1.027,3.322,5.013
2180.0,-19.6,-2.793,13.129,-1.027,3.322,5.013
2184.0,-19.6,-3.297,14.285,-0.982,3.406,5.013
2188.0,-19.6,-3.297,14.285,-0.982,3.406,5.013
2192.0,-19.6,-4.48,15.255,-0.85,3.413,5.013
2196.0,-19.6,-4.48,15.255,-0.85,3.413,5.013
2200.0,-19.6,-4.48,15.255,-0.85,3.413,5.013
2204.0,-19.6,-5.255,15.142,-0.613,3.322,5.013
2208.0,-19.6,-5.255,15.142,-0.613,3.322,5.013
2212.0,-19.6,-4.985,14.328,-0.278,3.19,5.013
2217.0,-19.6,-4.985,14.328,-0.278,3.19,5.013
2221.0,-19.6,-4.985,13.842,-0.278,3.19,5.013
2225.0,-19.6,-4.251,13.842,0.102,3.037,5.013
2229.0,-19.6,-4.251,13.842,0.102,3.037,5.013
2233.0,-19.6,-3.498,14.161,0.487,2.846,5.013
2237.0,-19.6,-3.498,14.161,0.487,2.846,5.013
2241.0,-19.6,-2.562,14.766,0.487,2.846,5.013
2245.0,-19.6,-2.562,14.766,0.85,2.606,5.013
2249.0,-19.6,-2.562,14.766,0.85,2.606,5.013
2253.0,-19.6,-1.55,15.232,1.145,2.329,5.013
2257.0,-19.6,-1.55,15.232,1.145,2.329,5.013
2261.0,-19.6,-0.623,15.329,1.145,2.329,5.013
2265.0,-19.6,-0.623,15.329,1.331,2.06,5.013
2269.0,-19.6,-0.623,15.329,1.331,2.06,5.013
2273.0,-19.6,0.294,15.063,1.402,1.848,5.013
2277.0,-19.6,0.294,15.063,1.402,1.848,5.013
2280.0,-19.6,1.229,14.575,1.402,1.848,5.013
2284.0,-19.6,1.229,14.575,1.373,1.707,5.013
2288.0,-19.6,1.229,14.575,1.373,1.707,5.013
2292.0,-19.6,2.023,14.02,1.261,1.616,5.013
2296.0,-19.6,2.023,14.02,1.261,1.616,5.013
2300.0,-19.6,2.7,13.259,1.261,1.616,5.013
2304.0,-19.6,2.7,13.259,1.085,1.537,5.013
2308.0,-19.6,2.7,13.259,1.085,1.537,5.013
2312.0,-19.6,3.18,12.27,0.852,1.456,5.013
2316.0,-19.6,3.18,12.27,0.852,1.456,5.013
2320.0,-19.6,3.523,11.173,0.852,1.456,5.013
2323.0,-19.588,3.523,11.173,0.569,1.376,5.013
2327.0,-19.588,3.523,11.173,0.569,1.376,5.013
2331.0,-18.54,3.48,10.325,0.251,1.309,5.013
2335.0,-18.54,3.48,10.325,0.251,1.309,5.013
2339.0,-18.54,3.48,9.791,0.251,1.309,5.013
2343.0,-16.951,2.999,9.791,-0.083,1.25,5.013
2347.0,-16.951,2.999,9.791,-0.083,1.25,5.013
2351.0,-15.491,2.247,9.43,-0.409,1.191,5.013
2355.0,-15.491,2.247,9.43,-0.409,1.191,5.013
2358.0,-15.491,2.247,9.43,-0.409,1.191,5.013
2362.0,-13.912,1.39,9.176,-0.706,1.12,4.987
2366.0,-13.912,1.39,9.176,-0.706,1.12,4.987
2370.0,-12.17,0.36,8.953,-0.956,1.016,4.818
2374.0,-12.17,0.36,8.953,-0.956,1.016,4.818
2378.0,-12.17,0.36,8.953,-0.956,1.016,4.818
2382.0,-10.564,-0.794,8.578,-1.157,0.846,4.608
2386.0,-10.564,-0.794,8.578,-1.157,0.846,4.608
2390.0,-9.256,-1.875,7.677,-1.317,0.617,4.394
2394.0,-9.256,-1.875,7.677,-1.317,0.617,4.394
2398.0,-9.256,-1.875,7.677,-1.317,0.617,4.394
2402.0,-8.252,-2.857,6.088,-1.438,0.382,4.159
2406.0,-8.252,-2.857,6.088,-1.438,0.382,4.159
2409.0,-7.141,-3.815,4.309,-1.53,0.212,3.884
2413.0,-7.141,-3.815,4.309,-1.53,0.212,3.884
2417.0,-7.141,-3.815,4.309,-1.53,0.212,3.884
2421.0,-5.486,-4.461,3.044,-1.606,0.133,3.546
2425.0,-5.486,-4.461,3.044,-1.606,0.133,3.546
2429.0,-3.888,-4.461,3.07,-1.671,0.117,3.135
2433.0,-3.888,-4.461,3.07,-1.671,0.117,3.135
2437.0,-3.888,-4.461,3.07,-1.671,0.117,3.135
2441.0,-2.907,-4.097,3.549,-1.708,0.078,2.721
2445.0,-2.907,-4.097,3.549,-1.708,0.078,2.721
2448.0,-2.442,-4.232,3.68,-1.708,-0.018,2.376
2452.0,-2.442,-4.232,3.68,-1.703,-0.018,2.376
2456.0,-2.442,-4.232,3.68,-1.703,-0.018,2.376
2460.0,-2.383,-4.99,3.334,-1.655,-0.132,2.053
2464.0,-2.383,-4.99,3.334,-1.655,-0.132,2.053
2468.0,-2.563,-5.889,2.907,-1.57,-0.22,1.691
2472.0,-2.563,-5.889,2.907,-1.57,-0.22,1.691
2476.0,-2.563,-5.889,2.907,-1.57,-0.22,1.691
2480.0,-2.714,-6.507,2.539,-1.457,-0.298,1.281
2484.0,-2.714,-6.507,2.539,-1.457,-0.298,1.281
2488.0,-2.6,-7.053,2.171,-1.314,-0.399,0.845
2492.0,-2.6,-7.053,2.171,-1.314,-0.399,0.845
2496.0,-2.6,-7.053,2.171,-1.314,-0.399,0.845
2500.0,-2.209,-7.501,1.704,-1.131,-0.506,0.382
2504.0,-2.209,-7.501,1.704,-1.131,-0.506,0.382
2508.0,-1.871,-7.552,1.208,-0.915,-0.568,-0.1
2512.0,-1.871,-7.552,1.208,-0.915,-0.568,-0.1
2517.0,-1.871,-7.552,1.208,-0.915,-0.568,-0.1
2521.0,-1.951,-7.303,0.923,-0.683,-0.57,-0.583
2525.0,-1.951,-7.303,0.923,-0.683,-0.57,-0.583
2529.0,-2.411,-6.879,0.816,-0.447,-0.55,-1.051
2533.0,-2.411,-6.879,0.816,-0.447,-0.55,-1.051
2537.0,-2.933,-6.538,0.765,-0.447,-0.55,-1.051
2541.0,-2.933,-6.538,0.765,-0.201,-0.534,-1.481
2545.0,-2.933,-6.538,0.765,-0.201,-0.534,-1.481
2549.0,-3.264,-6.29,0.759,0.058,-0.522,-1.862
2553.0,-3.264,-6.29,0.759,0.058,-0.522,-1.862
2557.0,-3.424,-6.086,0.681,0.315,-0.506,-2.2
2561.0,-3.424,-6.086,0.681,0.315,-0.506,-2.2
2565.0,-3.424,-6.086,0.681,0.315,-0.506,-2.2
2569.0,-3.559,-5.867,0.566,0.549,-0.48,-2.507
2573.0,-3.559,-5.867,0.566,0.549,-0.48,-2.507
2577.0,-3.828,-5.629,0.46,0.739,-0.441,-2.788
2581.0,-3.828,-5.629,0.46,0.739,-0.441,-2.788
2585.0,-3.828,-5.629,0.46,0.739,-0.441,-2.788
2589.0,-4.257,-5.421,0.38,0.872,-0.4,-3.047
2593.0,-4.257,-5.421,0.38,0.872,-0.4,-3.047
2597.0,-4.841,-5.308,0.308,0.949,-0.365,-3.29
2601.0,-4.841,-5.308,0.308,0.949,-0.365,-3.29
2605.0,-4.841,-5.308,0.308,0.949,-0.365,-3.29
2609.0,-5.47,-5.245,0.279,0.981,-0.34,-3.524
2613.0,-5.47,-5.245,0.279,0.981,-0.34,-3.524
2617.0,-6.133,-5.135,0.283,0.988,-0.325,-3.745
2621.0,-6.133,-5.135,0.283,0.988,-0.325,-3.745
2625.0,-6.133,-5.135,0.283,0.988,-0.325,-3.745
2629.0,-6.763,-4.981,0.29,0.987,-0.311,-3.942
2633.0,-6.763,-4.981,0.29,0.987,-0.311,-3.942
2637.0,-7.36,-4.772,0.237,0.986,-0.297,-4.107
2641.0,-7.36,-4.772,0.237,0.986,-0.297,-4.107
2645.0,-7.36,-4.772,0.131,0.986,-0.297,-4.107
2649.0,-7.949,-4.662,0.131,0.981,-0.282,-4.238
2653.0,-7.949,-4.662,0.131,0.981,-0.282,-4.238
2657.0,-8.48,-4.652,0.06,0.969,-0.267,-4.358
2661.0,-8.48,-4.652,0.06,0.969,-0.267,-4.358
2665.0,-8.48,-4.723,0.067,0.969,-0.267,-4.358
2669.0,-9.038,-4.723,0.067,0.939,-0.255,-4.49
2673.0,-9.038,-4.723,0.067,0.939,-0.255,-4.49
2677.0,-9.712,-4.82,0.176,0.884,-0.25,-4.64
2681.0,-9.712,-4.82,0.176,0.884,-0.25,-4.64
2685.0,-10.488,-4.957,0.256,0.884,-0.25,-4.64
2689.0,-10.488,-4.957,0.256,0.804,-0.254,-4.809
2693.0,-10.488,-4.957,0.256,0.804,-0.254,-4.809
2697.0,-11.17,-5.126,0.261,0.714,-0.269,-4.96
2701.0,-11.17,-5.126,0.261,0.714,-0.269,-4.96
2705.0,-11.706,-5.331,0.372,0.624,-0.292,-4.995
2709.0,-11.706,-5.331,0.372,0.624,-0.292,-4.995
2714.0,-11.706,-5.331,0.372,0.624,-0.292,-4.995
2718.0,-12.229,-5.535,0.612,0.524,-0.32,-4.995
2722.0,-12.229,-5.535,0.612,0.524,-0.32,-4.995
2726.0,-12.908,-5.613,0.797,0.41,-0.353,-4.995
2730.0,-12.908,-5.613,0.797,0.41,-0.353,-4.995
2734.0,-12.908,-5.613,1.065,0.41,-0.353,-4.995
2738.0,-13.863,-5.707,1.065,0.291,-0.384,-4.995
2742.0,-13.863,-5.707,1.065,0.291,-0.384,-4.995
2746.0,-15.045,-5.911,1.545,0.176,-0.422,-4.995
2750.0,-15.045,-5.911,1.545,0.176,-0.422,-4.995
2754.0,-16.225,-6.255,2.063,0.176,-0.481,-4.995
2758.0,-16.225,-6.255,2.063,0.068,-0.481,-4.995
2762.0,-16.225,-6.255,2.063,0.068,-0.481,-4.995
2767.0,-17.338,-6.784,2.699,-0.04,-0.558,-4.995
2771.0,-17.338,-6.784,2.699,-0.04,-0.558,-4.995
2775.0,-18.41,-7.372,3.34,-0.158,-0.653,-4.995
2779.0,-18.41,-7.372,3.34,-0.158,-0.653,-4.995
2783.0,-18.41,-7.372,3.991,-0.158,-0.653,-4.995
2787.0,-19.302,-7.886,3.991,-0.295,-0.751,-4.995
2792.0,-19.302,-7.886,3.991,-0.295,-0.751,-4.995
2796.0,-19.6,-8.531,4.895,-0.457,-0.836,-4.995
2800.0,-19.6,-8.531,4.895,-0.457,-0.836,-4.995
2804.0,-19.6,-9.625,6.137,-0.638,-0.915,-4.995
2808.0,-19.6,-9.625,6.137,-0.638,-0.915,-4.995
2812.0,-19.6,-9.625,6.137,-0.638,-0.915,-4.995
2817.0,-19.6,-11.032,7.543,-0.814,-1.005,-4.995
2821.0,-19.6,-11.032,7.543,-0.814,-1.005,-4.995
2825.0,-19.6,-12.251,8.843,-0.965,-1.124,-4.995
2829.0,-19.6,-12.251,8.843,-0.965,-1.124,-4.995
2834.0,-19.6,-13.284,9.893,-1.082,-1.263,-4.995
2838.0,-19.6,-13.284,9.893,-1.082,-1.263,-4.995
2842.0,-19.6,-13.284,9.893,-1.082,-1.263,-4.995
2846.0,-19.6,-14.577,10.731,-1.157,-1.389,-4.995
2851.0,-19.6,-14.577,10.731,-1.157,-1.389,-4.995
2855.0,-19.6,-16.118,11.62,-1.168,-1.474,-4.995
2859.0,-19.6,-16.118,11.62,-1.168,-1.474,-4.995
2864.0,-19.6,-17.131,12.432,-1.085,-1.542,-4.995
2868.0,-19.6,-17.131,12.432,-1.085,-1.542,-4.995
2872.0,-19.6,-17.641,13.112,-1.085,-1.542,-4.995
2877.0,-19.6,-17.641,13.112,-0.897,-1.638,-4.995
2881.0,-19.6,-17.641,13.112,-0.897,-1.638,-4.995
2885.0,-19.6,-18.302,13.707,-0.606,-1.755,-4.995
2890.0,-19.6,-18.302,13.707,-0.606,-1.755,-4.995
2894.0,-19.6,-18.801,13.714,-0.231,-1.89,-4.995
2898.0,-19.6,-18.801,13.714,-0.231,-1.89,-4.995
2903.0,-19.6,-18.995,13.1,0.202,-2.029,-4.995
2907.0,-19.6,-18.995,13.1,0.202,-2.029,-4.995
2911.0,-19.6,-18.995,13.1,0.202,-2.029,-4.995
2916.0,-19.6,-19.218,12.279,0.637,-2.109,-4.995
2920.0,-19.6,-19.218,12.279,0.637,-2.109,-4.995
2924.0,-19.6,-18.695,11.335,0.963,-2.117,-4.995
2928.0,-19.6,-18.695,11.335,0.963,-2.117,-4.995
2933.0,-19.6,-17.09,10.569,1.097,-2.112,-4.995
2937.0,-19.6,-17.09,10.569,1.097,-2.112,-4.995
2941.0,-19.6,-17.09,10.569,1.097,-2.112,-4.995
2945.0,-19.6,-14.94,10.58,1.041,-2.138,-4.995
2950.0,-19.6,-14.94,10.58,1.041,-2.138,-4.995
2954.0,-19.561,-12.527,10.869,0.855,-2.219,-4.995
2958.0,-19.561,-12.527,10.869,0.855,-2.219,-4.995
2962.0,-17.736,-10.157,10.752,0.613,-2.356,-4.995
2967.0,-17.736,-10.157,10.752,0.613,-2.356,-4.995
2971.0,-17.736,-10.157,10.403,0.613,-2.356,-4.995
2975.0,-14.907,-8.355,10.403,0.381,-2.502,-4.995
2979.0,-14.907,-8.355,10.403,0.381,-2.502,-4.995
2983.0,-12.721,-7.073,9.747,0.206,-2.627,-4.995
2987.0,-12.721,-7.073,9.747,0.206,-2.627,-4.995
2992.0,-11.419,-5.865,8.885,0.077,-2.704,-4.995
2996.0,-11.419,-5.865,8.885,0.077,-2.704,-4.995
3000.0,-11.419,-5.865,8.885,0.077,-2.704,-4.995
