deltaTime,Acc_X,Acc_Y,Acc_Z,Gyro_X,Gyro_Y,Gyro_Z
0.0,-2.398,-4.971,1.451,0.908,0.563,0.101
3.0,-2.361,-4.778,1.649,0.908,0.563,0.009
6.0,-2.361,-4.778,1.649,0.698,0.648,0.009
9.0,-2.361,-4.778,1.649,0.698,0.648,0.009
12.0,-2.361,-4.778,1.649,0.698,0.648,0.009
15.0,-2.381,-5.041,1.842,0.532,0.727,-0.08
18.0,-2.381,-5.041,1.842,0.532,0.727,-0.08
21.0,-2.381,-5.041,1.842,0.532,0.727,-0.08
24.0,-2.018,-5.56,1.993,0.499,0.787,-0.154
27.0,-2.018,-5.56,1.993,0.499,0.787,-0.154
30.0,-2.018,-5.56,1.993,0.499,0.787,-0.154
33.0,-1.555,-5.958,1.989,0.499,0.831,-0.22
36.0,-1.555,-5.958,1.989,0.636,0.831,-0.22
39.0,-1.555,-5.958,1.989,0.636,0.831,-0.22
43.0,-1.094,-6.233,2.019,0.892,0.882,-0.288
47.0,-1.094,-6.233,2.019,0.892,0.882,-0.288
51.0,-1.094,-6.233,2.019,0.892,0.882,-0.288
54.0,-0.834,-6.07,2.137,1.186,0.942,-0.372
58.0,-0.834,-6.07,2.137,1.186,0.942,-0.372
62.0,-0.834,-6.07,2.31,1.186,0.942,-0.372
65.0,-0.866,-5.736,2.31,1.43,0.988,-0.476
69.0,-0.866,-5.736,2.31,1.43,0.988,-0.476
73.0,-0.992,-5.447,2.756,1.597,1.003,-0.58
77.0,-0.992,-5.447,2.756,1.597,1.003,-0.58
80.0,-0.992,-5.447,2.756,1.597,1.003,-0.58
84.0,-0.989,-5.303,3.293,1.713,0.989,-0.661
88.0,-0.989,-5.303,3.293,1.713,0.989,-0.661
92.0,-0.989,-5.08,3.91,1.713,0.989,-0.661
95.0,-0.996,-5.08,3.91,1.759,0.981,-0.734
99.0,-0.996,-5.08,3.91,1.759,0.981,-0.734
103.0,-1.149,-5.027,4.679,1.714,0.957,-0.823
107.0,-1.149,-5.027,4.679,1.714,0.957,-0.823
110.0,-1.149,-5.027,4.679,1.714,0.957,-0.823
114.0,-1.225,-5.24,5.347,1.589,0.9,-0.936
118.0,-1.225,-5.24,5.347,1.589,0.9,-0.936
122.0,-1.393,-5.793,5.867,1.423,0.811,-1.062
126.0,-1.393,-5.793,5.867,1.423,0.811,-1.062
130.0,-1.393,-5.793,5.867,1.423,0.811,-1.062
133.0,-1.674,-6.681,6.475,1.264,0.724,-1.184
137.0,-1.674,-6.681,6.475,1.264,0.724,-1.184
141.0,-1.994,-7.659,7.302,1.264,0.724,-1.184
145.0,-1.994,-7.659,7.302,1.161,0.656,-1.295
149.0,-1.994,-7.659,7.302,1.161,0.656,-1.295
152.0,-2.285,-9.169,8.728,1.157,0.573,-1.401
156.0,-2.285,-9.169,8.728,1.157,0.573,-1.401
160.0,-2.285,-9.169,8.728,1.157,0.573,-1.401
164.0,-2.451,-9.468,10.22,1.248,0.429,-1.541
168.0,-2.451,-9.468,10.22,1.248,0.429,-1.541
172.0,-3.036,-9.355,12.057,1.246,0.262,-1.778
176.0,-3.036,-9.355,12.057,1.246,0.262,-1.778
180.0,-3.036,-9.355,12.057,1.246,0.262,-1.778
183.0,-3.715,-9.77,14.283,1.073,0.02,-2.077
187.0,-3.715,-9.77,14.283,1.073,0.02,-2.077
191.0,-2.907,-11.215,16.149,0.879,-0.321,-2.314
195.0,-2.907,-11.215,16.149,0.879,-0.321,-2.314
199.0,-2.907,-11.215,16.149,0.879,-0.321,-2.314
204.0,-3.662,-13.255,17.618,0.804,-0.75,-2.469
208.0,-3.662,-13.255,17.618,0.804,-0.75,-2.469
212.0,-4.446,-15.775,19.027,0.887,-1.267,-2.596
216.0,-4.446,-15.775,19.027,0.887,-1.267,-2.596
220.0,-4.446,-18.185,19.6,0.887,-1.267,-2.596
224.0,-4.97,-18.185,19.6,1.076,-1.823,-2.69
228.0,-4.97,-18.185,19.6,1.076,-1.823,-2.69
232.0,-5.61,-19.573,19.6,1.291,-2.436,-2.786
236.0,-5.61,-19.573,19.6,1.291,-2.436,-2.786
240.0,-6.272,-19.6,19.6,1.291,-3.093,-2.961
244.0,-6.272,-19.6,19.6,1.437,-3.093,-2.961
248.0,-6.272,-19.6,19.6,1.437,-3.093,-2.961
252.0,-6.673,-19.6,19.6,1.443,-3.735,-3.28
257.0,-6.673,-19.6,19.6,1.443,-3.735,-3.28
261.0,-6.244,-19.6,19.6,1.282,-4.282,-3.688
265.0,-6.244,-19.6,19.6,1.282,-4.282,-3.688
269.0,-6.244,-19.6,19.6,1.282,-4.282,-3.688
273.0,-5.204,-19.6,19.6,0.99,-4.704,-4.096
277.0,-5.204,-19.6,19.6,0.99,-4.704,-4.096
281.0,-4.505,-19.6,19.6,0.697,-4.957,-4.516
285.0,-4.505,-19.6,19.6,0.697,-4.957,-4.516
289.0,-4.427,-19.6,19.598,0.697,-4.957,-4.516
293.0,-4.427,-19.6,19.598,0.519,-4.992,-4.905
297.0,-4.427,-19.6,19.598,0.519,-4.992,-4.905
301.0,-4.131,-19.6,17.975,0.494,-4.992,-4.995
306.0,-4.131,-19.6,17.975,0.494,-4.992,-4.995
310.0,-2.879,-19.6,14.78,0.66,-4.992,-4.995
314.0,-2.879,-19.6,14.78,0.66,-4.992,-4.995
318.0,-2.879,-19.6,14.78,0.66,-4.992,-4.995
322.0,-1.62,-19.6,11.782,1.011,-4.992,-4.995
326.0,-1.62,-19.6,11.782,1.011,-4.992,-4.995
330.0,-1.457,-19.6,8.908,1.482,-4.992,-4.995
334.0,-1.457,-19.6,8.908,1.482,-4.992,-4.995
338.0,-1.457,-19.6,8.908,1.482,-4.992,-4.995
342.0,-2.719,-19.088,6.54,2.018,-4.992,-4.995
346.0,-2.719,-19.088,6.54,2.018,-4.992,-4.995
350.0,-5.057,-16.554,4.287,2.553,-4.992,-4.995
354.0,-5.057,-16.554,4.287,2.553,-4.992,-4.995
358.0,-5.057,-16.554,1.761,2.553,-4.992,-4.995
362.0,-7.457,-13.705,1.761,3.005,-4.992,-4.995
366.0,-7.457,-13.705,1.761,3.005,-4.992,-4.995
370.0,-9.094,-10.583,-0.435,3.312,-4.992,-4.995
374.0,-9.094,-10.583,-0.435,3.312,-4.992,-4.995
378.0,-9.249,-7.437,-1.638,3.312,-4.992,-4.995
382.0,-9.249,-7.437,-1.638,3.435,-4.917,-4.992
386.0,-9.249,-7.437,-1.638,3.435,-4.917,-4.992
390.0,-8.663,-4.907,-1.249,3.348,-4.485,-4.723
394.0,-8.663,-4.907,-1.249,3.348,-4.485,-4.723
398.0,-9.236,-3.018,-0.465,3.348,-3.842,-3.96
402.0,-9.236,-3.018,-0.465,3.054,-3.842,-3.96
406.0,-9.236,-3.018,-0.465,3.054,-3.842,-3.96
410.0,-10.809,-1.455,-0.147,2.647,-3.242,-3.198
414.0,-10.809,-1.455,-0.147,2.647,-3.242,-3.198
418.0,-12.234,-0.26,-0.641,2.173,-2.68,-2.5
422.0,-12.234,-0.26,-0.641,2.173,-2.68,-2.5
426.0,-12.234,-0.26,-0.641,2.173,-2.68,-2.5
430.0,-12.519,0.812,-1.484,1.639,-2.119,-1.875
434.0,-12.519,0.812,-1.484,1.639,-2.119,-1.875
438.0,-11.914,1.735,-2.323,1.113,-1.584,-1.34
442.0,-11.914,1.735,-2.323,1.113,-1.584,-1.34
446.0,-11.914,1.735,-2.323,1.113,-1.584,-1.34
450.0,-11.429,2.518,-3.004,0.633,-1.078,-0.897
454.0,-11.429,2.518,-3.004,0.633,-1.078,-0.897
458.0,-11.221,3.204,-3.424,0.219,-0.584,-0.516
462.0,-11.221,3.204,-3.424,0.219,-0.584,-0.516
466.0,-11.221,3.204,-3.578,0.219,-0.584,-0.516
470.0,-11.131,3.837,-3.578,-0.131,-0.075,-0.156
474.0,-11.131,3.837,-3.578,-0.131,-0.075,-0.156
479.0,-10.89,4.181,-3.157,-0.414,0.457,0.226
482.0,-10.89,4.181,-3.157,-0.414,0.457,0.226
486.0,-10.89,4.108,-2.355,-0.414,0.457,0.226
490.0,-10.478,4.108,-2.355,-0.625,0.977,0.654
494.0,-10.478,4.108,-2.355,-0.625,0.977,0.654
498.0,-10.027,3.707,-1.444,-0.77,1.451,1.136
502.0,-10.027,3.707,-1.444,-0.77,1.451,1.136
506.0,-10.027,3.707,-0.531,-0.77,1.451,1.136
510.0,-9.575,3.01,-0.531,-0.852,1.882,1.654
514.0,-9.575,3.01,-0.531,-0.852,1.882,1.654
517.0,-9.348,2.341,0.239,-0.874,2.273,2.174
521.0,-9.348,2.341,0.239,-0.874,2.273,2.174
525.0,-9.348,2.341,0.239,-0.874,2.273,2.174
529.0,-9.336,1.743,0.782,-0.847,2.632,2.697
532.0,-9.336,1.743,0.782,-0.847,2.632,2.697
536.0,-9.377,1.345,1.11,-0.847,2.632,3.215
540.0,-9.377,1.345,1.11,-0.793,2.961,3.215
544.0,-9.377,1.345,1.11,-0.793,2.961,3.215
547.0,-9.446,1.138,1.329,-0.734,3.271,3.717
551.0,-9.446,1.138,1.329,-0.734,3.271,3.717
555.0,-9.446,1.138,1.329,-0.734,3.271,3.717
558.0,-9.717,0.879,1.551,-0.701,3.559,4.189
562.0,-9.717,0.879,1.551,-0.701,3.559,4.189
566.0,-10.347,0.488,1.886,-0.701,3.823,4.61
570.0,-10.347,0.488,1.886,-0.724,3.823,4.61
574.0,-10.347,0.488,1.886,-0.724,3.823,4.61
577.0,-11.445,-0.016,2.386,-0.812,4.055,4.934
581.0,-11.445,-0.016,2.386,-0.812,4.055,4.934
585.0,-12.773,-0.397,3.077,-0.812,4.055,4.934
589.0,-12.773,-0.397,3.077,-0.964,4.235,5.013
593.0,-12.773,-0.397,3.077,-0.964,4.235,5.013
597.0,-14.133,-1.107,4.046,-1.165,4.344,5.013
601.0,-14.133,-1.107,4.046,-1.165,4.344,5.013
605.0,-14.133,-1.107,4.802,-1.165,4.344,5.013
609.0,-15.381,-2.02,4.802,-1.385,4.373,5.013
613.0,-15.381,-2.02,4.802,-1.385,4.373,5.013
616.0,-16.257,-2.856,5.306,-1.593,4.342,5.013
620.0,-16.257,-2.856,5.306,-1.593,4.342,5.013
624.0,-16.257,-2.856,5.306,-1.593,4.342,5.013
628.0,-16.848,-3.743,5.753,-1.761,4.266,5.013
632.0,-16.848,-3.743,5.753,-1.761,4.266,5.013
636.0,-17.584,-4.98,6.584,-1.879,4.154,5.013
640.0,-17.584,-4.98,6.584,-1.879,4.154,5.013
644.0,-17.584,-4.98,6.584,-1.879,4.154,5.013
648.0,-19.069,-6.708,8.107,-1.964,3.975,5.013
652.0,-19.069,-6.708,8.107,-1.964,3.975,5.013
656.0,-17.351,-9.339,10.613,-2.027,3.678,5.013
660.0,-17.351,-9.339,10.613,-2.027,3.678,5.013
663.0,-17.351,-9.339,10.613,-2.027,3.678,5.013
667.0,-19.507,-11.166,12.156,-2.072,3.244,5.013
672.0,-19.507,-11.166,12.156,-2.072,3.244,5.013
676.0,-19.6,-13.36,13.239,-2.068,2.624,5.013
680.0,-19.6,-13.36,13.239,-2.068,2.624,5.013
684.0,-19.6,-14.426,13.507,-2.068,2.624,5.013
688.0,-19.594,-14.426,13.507,-2.034,1.836,5.013
692.0,-19.594,-14.426,13.507,-2.034,1.836,5.013
696.0,-19.554,-14.005,13.545,-1.878,1.132,5.013
700.0,-19.554,-14.005,13.545,-1.878,1.132,5.013
704.0,-17.499,-12.433,12.958,-1.677,0.554,5.013
708.0,-17.499,-12.433,12.958,-1.677,0.554,5.013
712.0,-17.499,-12.433,12.958,-1.677,0.554,5.013
716.0,-17.173,-11.621,13.785,-1.479,0.112,5.013
721.0,-17.173,-11.621,13.785,-1.479,0.112,5.013
725.0,-15.336,-12.198,14.316,-1.444,-0.119,5.013
729.0,-15.336,-12.198,14.316,-1.444,-0.119,5.013
733.0,-15.336,-12.198,15.652,-1.444,-0.119,5.013
737.0,-13.546,-13.391,15.652,-1.362,-0.218,5.013
741.0,-13.546,-13.391,15.652,-1.362,-0.218,5.013
745.0,-11.74,-12.689,15.877,-1.141,-0.145,5.013
750.0,-11.74,-12.689,15.877,-1.141,-0.145,5.013
754.0,-11.1,-11.284,16.514,-0.815,0.087,5.013
758.0,-11.1,-11.284,16.514,-0.815,0.087,5.013
762.0,-11.1,-11.284,16.514,-0.815,0.087,5.013
766.0,-11.589,-9.887,17.248,-0.404,0.378,5.013
770.0,-11.589,-9.887,17.248,-0.404,0.378,5.013
774.0,-13.074,-9.177,17.821,0.068,0.67,5.013
778.0,-13.074,-9.177,17.821,0.068,0.67,5.013
782.0,-13.074,-9.177,17.821,0.068,0.67,5.013
786.0,-14.655,-8.993,18.153,0.547,0.897,5.013
790.0,-14.655,-8.993,18.153,0.547,0.897,5.013
794.0,-15.019,-9.863,18.354,0.998,1.052,5.013
797.0,-15.019,-9.863,18.354,0.998,1.052,5.013
801.0,-15.019,-9.863,18.354,0.998,1.052,5.013
805.0,-15.235,-11.806,18.541,1.423,1.188,5.013
809.0,-15.235,-11.806,18.541,1.423,1.188,5.013
813.0,-15.823,-13.244,18.824,1.831,1.351,5.013
817.0,-15.823,-13.244,18.824,1.831,1.351,5.013
821.0,-15.823,-13.244,18.824,1.831,1.351,5.013
825.0,-16.05,-13.668,19.469,2.187,1.471,5.013
829.0,-16.05,-13.668,19.469,2.187,1.471,5.013
833.0,-16.38,-13.231,19.6,2.441,1.492,5.013
837.0,-16.38,-13.231,19.6,2.441,1.492,5.013
841.0,-16.38,-13.231,19.6,2.441,1.492,5.013
845.0,-16.278,-11.868,19.576,2.566,1.457,5.013
849.0,-16.278,-11.868,19.576,2.566,1.457,5.013
853.0,-14.878,-10.421,19.039,2.565,1.4,5.013
857.0,-14.878,-10.421,19.039,2.565,1.4,5.013
861.0,-14.878,-10.421,19.039,2.565,1.4,5.013
865.0,-13.028,-9.195,18.316,2.466,1.309,5.013
869.0,-13.028,-9.195,18.316,2.466,1.309,5.013
873.0,-10.939,-8.017,16.674,2.266,1.221,5.013
877.0,-10.939,-8.017,16.674,2.266,1.221,5.013
881.0,-10.939,-8.017,16.674,2.266,1.221,5.013
885.0,-9.454,-7.278,15.782,1.944,1.204,5.013
888.0,-9.454,-7.278,15.782,1.944,1.204,5.013
892.0,-8.94,-7.751,16.016,1.542,1.17,5.013
896.0,-8.94,-7.751,16.016,1.542,1.17,5.013
900.0,-8.94,-7.751,16.016,1.542,1.17,5.013
904.0,-9.138,-7.608,16.056,1.209,1.039,4.96
908.0,-9.138,-7.608,16.056,1.209,1.039,4.96
911.0,-8.584,-7.985,15.383,1.209,0.791,4.599
915.0,-8.584,-7.985,15.383,0.996,0.791,4.599
919.0,-8.584,-7.985,15.383,0.996,0.791,4.599
923.0,-7.212,-8.186,13.728,0.895,0.461,4.105
927.0,-7.212,-8.186,13.728,0.895,0.461,4.105
931.0,-7.212,-8.009,11.483,0.895,0.461,4.105
934.0,-5.464,-8.009,11.483,0.887,0.14,3.592
938.0,-5.464,-8.009,11.483,0.887,0.14,3.592
942.0,-3.784,-7.534,9.565,0.929,-0.122,3.104
946.0,-3.784,-7.534,9.565,0.929,-0.122,3.104
950.0,-3.784,-7.534,9.565,0.929,-0.122,3.104
953.0,-2.226,-7.102,7.905,0.946,-0.319,2.657
957.0,-2.226,-7.102,7.905,0.946,-0.319,2.657
961.0,-1.058,-6.91,6.753,0.954,-0.44,2.225
965.0,-1.058,-6.91,6.753,0.954,-0.44,2.225
969.0,-1.058,-6.91,6.753,0.954,-0.44,2.225
973.0,-0.078,-6.796,5.9,0.917,-0.529,1.782
976.0,-0.078,-6.796,5.9,0.917,-0.529,1.782
980.0,0.882,-6.842,4.905,0.917,-0.529,1.782
984.0,0.882,-6.842,4.905,0.837,-0.586,1.317
988.0,0.882,-6.842,4.905,0.837,-0.586,1.317
991.0,1.783,-6.985,3.927,0.724,-0.59,0.896
995.0,1.783,-6.985,3.927,0.724,-0.59,0.896
999.0,1.783,-6.985,3.927,0.724,-0.59,0.896
1003.0,2.62,-7.193,3.115,0.578,-0.545,0.562
1006.0,2.62,-7.193,3.115,0.578,-0.545,0.562
1010.0,3.237,-7.649,2.646,0.408,-0.468,0.258
1014.0,3.237,-7.649,2.646,0.408,-0.468,0.258
1018.0,3.237,-7.649,2.646,0.408,-0.468,0.258
1022.0,3.489,-8.225,2.426,0.253,-0.373,-0.102
1026.0,3.489,-8.225,2.426,0.253,-0.373,-0.102
1029.0,3.108,-8.62,2.228,0.253,-0.373,-0.102
1033.0,3.108,-8.62,2.228,0.166,-0.263,-0.546
1037.0,3.108,-8.62,2.228,0.166,-0.263,-0.546
1041.0,1.97,-8.867,2.006,0.164,-0.14,-1.018
1045.0,1.97,-8.867,2.006,0.164,-0.14,-1.018
1049.0,1.97,-9.034,1.847,0.164,-0.14,-1.018
1053.0,0.246,-9.034,1.847,0.232,-0.014,-1.457
1057.0,0.246,-9.034,1.847,0.232,-0.014,-1.457
1061.0,-1.797,-9.108,1.965,0.346,0.089,-1.835
1065.0,-1.797,-9.108,1.965,0.346,0.089,-1.835
1069.0,-1.797,-9.108,2.252,0.346,0.089,-1.835
1072.0,-3.741,-9.282,2.252,0.477,0.143,-2.151
1076.0,-3.741,-9.282,2.252,0.477,0.143,-2.151
1080.0,-5.251,-9.465,2.305,0.617,0.143,-2.425
1084.0,-5.251,-9.465,2.305,0.617,0.143,-2.425
1088.0,-5.251,-9.465,2.305,0.617,0.143,-2.425
1092.0,-6.165,-9.511,2.267,0.757,0.107,-2.675
1096.0,-6.165,-9.511,2.267,0.757,0.107,-2.675
1100.0,-6.617,-9.371,2.32,0.884,0.038,-2.908
1104.0,-6.617,-9.371,2.32,0.884,0.038,-2.908
1108.0,-6.617,-9.371,2.32,0.884,0.038,-2.908
1111.0,-6.829,-8.925,2.25,0.983,-0.06,-3.137
1115.0,-6.829,-8.925,2.25,0.983,-0.06,-3.137
1119.0,-6.989,-8.322,2.112,1.039,-0.162,-3.359
1123.0,-6.989,-8.322,2.112,1.039,-0.162,-3.359
1127.0,-6.989,-8.322,2.112,1.039,-0.162,-3.359
1131.0,-7.076,-7.677,1.925,1.038,-0.26,-3.566
1135.0,-7.076,-7.677,1.925,1.038,-0.26,-3.566
1139.0,-7.158,-7.179,1.786,0.977,-0.344,-3.757
1143.0,-7.158,-7.179,1.786,0.977,-0.344,-3.757
1147.0,-7.158,-7.179,1.683,0.977,-0.344,-3.757
1151.0,-7.138,-6.794,1.683,0.868,-0.411,-3.938
1155.0,-7.138,-6.794,1.683,0.868,-0.411,-3.938
1159.0,-7.11,-6.569,1.676,0.716,-0.462,-4.114
1163.0,-7.11,-6.569,1.676,0.716,-0.462,-4.114
1167.0,-7.11,-6.504,1.793,0.716,-0.462,-4.114
1171.0,-7.29,-6.504,1.793,0.53,-0.502,-4.286
1175.0,-7.29,-6.504,1.793,0.53,-0.502,-4.286
1179.0,-7.786,-6.644,2.006,0.326,-0.541,-4.448
1183.0,-7.786,-6.644,2.006,0.326,-0.541,-4.448
1187.0,-8.372,-6.981,2.27,0.326,-0.541,-4.448
1191.0,-8.372,-6.981,2.27,0.135,-0.584,-4.598
1195.0,-8.372,-6.981,2.27,0.135,-0.584,-4.598
1199.0,-9.209,-7.556,2.652,-0.021,-0.636,-4.733
1203.0,-9.209,-7.556,2.652,-0.021,-0.636,-4.733
1208.0,-9.944,-8.157,3.065,-0.021,-0.712,-4.856
1212.0,-9.944,-8.157,3.065,-0.125,-0.712,-4.856
1216.0,-9.944,-8.157,3.065,-0.125,-0.712,-4.856
1220.0,-10.896,-8.686,3.453,-0.198,-0.83,-4.972
1224.0,-10.896,-8.686,3.453,-0.198,-0.83,-4.972
1228.0,-11.935,-9.147,3.879,-0.268,-0.995,-4.995
1232.0,-11.935,-9.147,3.879,-0.268,-0.995,-4.995
1236.0,-11.935,-9.147,4.367,-0.268,-0.995,-4.995
1241.0,-12.924,-9.441,4.367,-0.349,-1.192,-4.995
1245.0,-12.924,-9.441,4.367,-0.349,-1.192,-4.995
1249.0,-13.787,-9.806,5.129,-0.463,-1.417,-4.995
1253.0,-13.787,-9.806,5.129,-0.463,-1.417,-4.995
1257.0,-14.737,-10.541,6.266,-0.628,-1.668,-4.995
1261.0,-14.737,-10.541,6.266,-0.628,-1.668,-4.995
1266.0,-14.737,-10.541,6.266,-0.628,-1.668,-4.995
1270.0,-15.84,-11.551,7.739,-0.824,-1.946,-4.995
1274.0,-15.84,-11.551,7.739,-0.824,-1.946,-4.995
1279.0,-16.856,-12.812,9.663,-1.037,-2.251,-4.995
1283.0,-16.856,-12.812,9.663,-1.037,-2.251,-4.995
1287.0,-17.955,-14.721,12.383,-1.292,-2.594,-4.995
1291.0,-17.955,-14.721,12.383,-1.292,-2.594,-4.995
1296.0,-17.955,-17.097,14.652,-1.292,-2.594,-4.995
1300.0,-19.409,-17.097,14.652,-1.519,-2.97,-4.995
1304.0,-19.409,-17.097,14.652,-1.519,-2.97,-4.995
1309.0,-19.6,-19.345,17.005,-1.829,-3.34,-4.995
1313.0,-19.6,-19.345,17.005,-1.829,-3.34,-4.995
1317.0,-19.6,-19.6,19.132,-2.179,-3.686,-4.995
1322.0,-19.6,-19.6,19.132,-2.179,-3.686,-4.995
1326.0,-19.6,-19.6,19.6,-2.558,-4.024,-4.995
1330.0,-19.6,-19.6,19.6,-2.558,-4.024,-4.995
1335.0,-19.6,-19.6,19.6,-2.558,-4.024,-4.995
1339.0,-19.6,-19.6,19.6,-2.91,-4.36,-4.995
1343.0,-19.6,-19.6,19.6,-2.91,-4.36,-4.995
1348.0,-19.6,-19.6,19.6,-3.146,-4.673,-4.995
1352.0,-19.6,-19.6,19.6,-3.146,-4.673,-4.995
1356.0,-19.6,-19.6,19.6,-3.166,-4.87,-4.995
1361.0,-19.6,-19.6,19.6,-3.166,-4.87,-4.995
1365.0,-18.695,-19.6,19.6,-3.166,-4.87,-4.995
1369.0,-18.695,-19.6,19.6,-2.897,-4.943,-4.995
1374.0,-18.695,-19.6,19.6,-2.897,-4.943,-4.995
1378.0,-15.979,-19.6,19.6,-2.347,-4.943,-4.995
1383.0,-15.979,-19.6,19.6,-2.347,-4.943,-4.995
1387.0,-13.45,-19.6,19.598,-1.587,-4.899,-4.995
1391.0,-13.45,-19.6,19.598,-1.587,-4.899,-4.995
1396.0,-12.096,-19.475,18.233,-0.753,-4.816,-4.995
1400.0,-12.096,-19.475,18.233,-0.753,-4.816,-4.995
1404.0,-12.096,-19.475,16.104,-0.753,-4.816,-4.995
1409.0,-10.724,-17.099,16.104,-0.008,-4.682,-4.995
1413.0,-10.724,-17.099,16.104,-0.008,-4.682,-4.995
1417.0,-9.303,-13.891,14.56,0.555,-4.491,-4.995
1421.0,-9.303,-13.891,14.56,0.555,-4.491,-4.995
1426.0,-8.996,-10.807,13.148,0.904,-4.272,-4.995
1430.0,-8.996,-10.807,13.148,0.904,-4.272,-4.995
1434.0,-8.996,-7.637,11.73,0.904,-4.272,-4.995
1438.0,-9.317,-7.637,11.73,1.055,-4.06,-4.995
1442.0,-9.317,-7.637,11.73,1.055,-4.06,-4.995
1446.0,-9.282,-4.989,10.472,1.038,-3.83,-4.995
1450.0,-9.282,-4.989,10.472,1.038,-3.83,-4.995
1454.0,-9.618,-3.537,9.129,1.038,-3.511,-4.995
1458.0,-9.618,-3.537,9.129,0.879,-3.511,-4.995
1462.0,-9.618,-3.537,9.129,0.879,-3.511,-4.995
1466.0,-10.043,-2.795,7.255,0.603,-3.109,-4.995
1470.0,-10.043,-2.795,7.255,0.603,-3.109,-4.995
1474.0,-10.435,-2.544,5.693,0.236,-2.614,-4.867
1479.0,-10.435,-2.544,5.693,0.236,-2.614,-4.867
1483.0,-10.435,-2.544,5.693,0.236,-2.614,-4.867
1487.0,-11.185,-2.562,4.784,-0.154,-2.046,-4.33
1491.0,-11.185,-2.562,4.784,-0.154,-2.046,-4.33
1495.0,-12.779,-2.483,4.478,-0.461,-1.494,-3.806
1499.0,-12.779,-2.483,4.478,-0.461,-1.494,-3.806
1503.0,-14.695,-2.209,3.915,-0.461,-1.494,-3.331
1507.0,-14.695,-2.209,3.915,-0.631,-1.081,-3.331
1512.0,-14.695,-2.209,3.915,-0.631,-1.081,-3.331
1516.0,-15.727,-1.994,2.974,-0.66,-0.782,-2.814
1520.0,-15.727,-1.994,2.974,-0.66,-0.782,-2.814
1524.0,-15.885,-1.753,2.105,-0.533,-0.525,-2.224
1528.0,-15.885,-1.753,2.105,-0.533,-0.525,-2.224
1532.0,-15.885,-1.753,1.54,-0.533,-0.525,-2.224
1537.0,-16.038,-1.367,1.54,-0.283,-0.28,-1.597
1541.0,-16.038,-1.367,1.54,-0.283,-0.28,-1.597
1545.0,-16.015,-0.529,1.012,0.041,-0.041,-0.992
1549.0,-16.015,-0.529,1.012,0.041,-0.041,-0.992
1553.0,-15.297,0.817,0.849,0.368,0.2,-0.442
1557.0,-15.297,0.817,0.849,0.368,0.2,-0.442
1561.0,-15.297,0.817,0.849,0.368,0.2,-0.442
1565.0,-14.043,2.455,0.977,0.639,0.454,0.047
1569.0,-14.043,2.455,0.977,0.639,0.454,0.047
1573.0,-12.677,3.904,1.237,0.639,0.454,0.51
1576.0,-12.677,3.904,1.237,0.846,0.73,0.51
1580.0,-12.677,3.904,1.237,0.846,0.73,0.51
1584.0,-11.478,5.077,1.463,0.999,1.025,0.985
1588.0,-11.478,5.077,1.463,0.999,1.025,0.985
1592.0,-11.478,5.077,1.606,0.999,1.025,0.985
1595.0,-10.12,5.799,1.606,1.099,1.339,1.493
1599.0,-10.12,5.799,1.606,1.099,1.339,1.493
1603.0,-8.73,6.038,1.844,1.138,1.678,2.029
1607.0,-8.73,6.038,1.844,1.138,1.678,2.029
1611.0,-8.73,6.038,1.844,1.138,1.678,2.029
1614.0,-7.627,5.774,2.171,1.124,2.047,2.573
1618.0,-7.627,5.774,2.171,1.124,2.047,2.573
1622.0,-6.864,5.193,2.504,1.124,2.047,2.573
1625.0,-6.864,5.193,2.504,1.078,2.441,3.117
1629.0,-6.864,5.193,2.504,1.078,2.441,3.117
1633.0,-6.522,4.588,2.828,1.01,2.839,3.646
1637.0,-6.522,4.588,2.828,1.01,2.839,3.646
1640.0,-6.522,4.588,2.828,1.01,2.839,3.646
1644.0,-6.623,3.986,3.161,0.913,3.225,4.145
1648.0,-6.623,3.986,3.161,0.913,3.225,4.145
1652.0,-7.112,3.354,3.67,0.913,3.583,4.607
1655.0,-7.112,3.354,3.67,0.766,3.583,4.607
1659.0,-7.112,3.354,3.67,0.766,3.583,4.607
1663.0,-7.863,2.591,4.339,0.562,3.906,4.95
1667.0,-7.863,2.591,4.339,0.562,3.906,4.95
1670.0,-7.863,2.591,4.339,0.562,3.906,4.95
1674.0,-8.973,1.754,5.083,0.302,4.187,5.013
1678.0,-8.973,1.754,5.083,0.302,4.187,5.013
1681.0,-10.4,0.947,5.535,0.009,4.408,5.013
1685.0,-10.4,0.947,5.535,0.009,4.408,5.013
1689.0,-10.4,0.947,5.535,0.009,4.408,5.013
1693.0,-11.834,-0.087,5.936,-0.285,4.559,5.013
1697.0,-11.834,-0.087,5.936,-0.285,4.559,5.013
1701.0,-12.883,-1.117,6.298,-0.285,4.559,5.013
1705.0,-12.883,-1.117,6.298,-0.556,4.666,5.013
1709.0,-12.883,-1.117,6.298,-0.556,4.666,5.013
1713.0,-14.798,-2.517,7.144,-0.797,4.727,5.013
1717.0,-14.798,-2.517,7.144,-0.797,4.727,5.013
1721.0,-16.35,-3.926,7.863,-1.018,4.743,5.013
1725.0,-16.35,-3.926,7.863,-1.018,4.743,5.013
1729.0,-16.35,-3.926,7.863,-1.018,4.743,5.013
1733.0,-17.581,-5.341,8.841,-1.15,4.678,5.013
1737.0,-17.581,-5.341,8.841,-1.15,4.678,5.013
1741.0,-18.628,-6.377,9.438,-1.173,4.539,5.013
1745.0,-18.628,-6.377,9.438,-1.173,4.539,5.013
1749.0,-18.628,-6.377,9.438,-1.173,4.539,5.013
1753.0,-19.388,-7.232,10.21,-1.108,4.356,5.013
1757.0,-19.388,-7.232,10.21,-1.108,4.356,5.013
1761.0,-19.6,-7.938,11.012,-0.958,4.113,5.013
1765.0,-19.6,-7.938,11.012,-0.958,4.113,5.013
1769.0,-19.6,-7.938,11.012,-0.958,4.113,5.013
1773.0,-19.6,-8.403,11.547,-0.741,3.782,5.013
1777.0,-19.6,-8.403,11.547,-0.741,3.782,5.013
1781.0,-19.6,-8.612,11.825,-0.483,3.38,5.013
1785.0,-19.6,-8.612,11.825,-0.483,3.38,5.013
1790.0,-19.6,-8.262,11.867,-0.483,3.38,5.013
1794.0,-19.6,-8.262,11.867,-0.218,2.97,5.013
1798.0,-19.6,-8.262,11.867,-0.218,2.97,5.013
1802.0,-19.491,-7.612,11.831,0.015,2.608,5.013
1806.0,-19.491,-7.612,11.831,0.015,2.608,5.013
1810.0,-19.137,-7.122,12.207,0.178,2.302,5.013
1814.0,-19.137,-7.122,12.207,0.178,2.302,5.013
1818.0,-19.137,-7.122,12.207,0.178,2.302,5.013
1822.0,-18.863,-6.607,12.696,0.25,2.035,5.013
1826.0,-18.863,-6.607,12.696,0.25,2.035,5.013
1830.0,-18.577,-6.106,13.177,0.233,1.809,5.013
1834.0,-18.577,-6.106,13.177,0.233,1.809,5.013
1838.0,-18.577,-6.106,13.177,0.233,1.809,5.013
1842.0,-18.279,-5.773,13.595,0.133,1.626,5.013
1846.0,-18.279,-5.773,13.595,0.133,1.626,5.013
1850.0,-18.111,-5.518,14.076,-0.011,1.487,5.013
1854.0,-18.111,-5.518,14.076,-0.011,1.487,5.013
1858.0,-18.111,-5.518,14.076,-0.011,1.487,5.013
1862.0,-18.243,-5.311,14.423,-0.155,1.379,5.013
1866.0,-18.243,-5.311,14.423,-0.155,1.379,5.013
1870.0,-18.339,-5.231,14.81,-0.266,1.292,5.013
1874.0,-18.339,-5.231,14.81,-0.266,1.292,5.013
1878.0,-18.535,-5.256,15.229,-0.266,1.292,5.013
1882.0,-18.535,-5.256,15.229,-0.322,1.216,5.013
1886.0,-18.535,-5.256,15.229,-0.322,1.216,5.013
1890.0,-18.804,-5.026,15.593,-0.334,1.154,5.013
1895.0,-18.804,-5.026,15.593,-0.334,1.154,5.013
1899.0,-19.085,-5.372,16.18,-0.308,1.098,5.013
1903.0,-19.085,-5.372,16.18,-0.308,1.098,5.013
1907.0,-19.085,-5.372,16.18,-0.308,1.098,5.013
1911.0,-19.484,-5.7,16.833,-0.211,1.038,5.013
1915.0,-19.484,-5.7,16.833,-0.211,1.038,5.013
1919.0,-19.6,-6.024,17.6,-0.057,0.939,5.013
1923.0,-19.6,-6.024,17.6,-0.057,0.939,5.013
1927.0,-19.6,-6.024,18.319,-0.057,0.939,5.013
1931.0,-19.6,-6.629,18.319,0.071,0.761,5.013
1935.0,-19.6,-6.629,18.319,0.071,0.761,5.013
1939.0,-19.6,-7.529,19.053,0.257,0.576,5.013
1943.0,-19.6,-7.529,19.053,0.257,0.576,5.013
1947.0,-19.194,-7.655,18.885,0.257,0.576,5.013
1951.0,-19.194,-7.655,18.885,0.522,0.347,5.013
1955.0,-19.194,-7.655,18.885,0.522,0.347,5.013
1959.0,-17.569,-7.386,18.379,0.752,0.101,5.013
1963.0,-17.569,-7.386,18.379,0.752,0.101,5.013
1967.0,-15.858,-6.886,17.767,0.752,0.101,5.013
1971.0,-15.858,-6.886,17.767,0.901,-0.117,5.013
1975.0,-15.858,-6.886,17.767,0.901,-0.117,5.013
1979.0,-14.652,-6.08,16.936,0.933,-0.318,5.013
1983.0,-14.652,-6.08,16.936,0.933,-0.318,5.013
1988.0,-13.363,-5.43,15.932,0.82,-0.505,5.013
1992.0,-13.363,-5.43,15.932,0.82,-0.505,5.013
1996.0,-13.363,-5.43,15.932,0.82,-0.505,5.013
2000.0,-12.019,-5.019,14.955,0.576,-0.682,4.964
2004.0,-12.019,-5.019,14.955,0.576,-0.682,4.964
2008.0,-10.476,-4.966,13.771,0.238,-0.871,4.689
2012.0,-10.476,-4.966,13.771,0.238,-0.871,4.689
2016.0,-10.476,-4.966,12.37,0.238,-0.871,4.689
2020.0,-8.652,-5.383,12.37,-0.128,-1.063,4.309
2024.0,-8.652,-5.383,12.37,-0.128,-1.063,4.309
2028.0,-6.687,-5.941,10.867,-0.461,-1.237,3.863
2032.0,-6.687,-5.941,10.867,-0.461,-1.237,3.863
2036.0,-4.743,-6.495,9.463,-0.461,-1.352,3.363
2040.0,-4.743,-6.495,9.463,-0.714,-1.352,3.363
2044.0,-4.743,-6.495,9.463,-0.714,-1.352,3.363
2048.0,-3.132,-6.873,8.093,-0.871,-1.386,2.857
2052.0,-3.132,-6.873,8.093,-0.871,-1.386,2.857
2056.0,-1.698,-7.14,7.079,-0.961,-1.348,2.367
2060.0,-1.698,-7.14,7.079,-0.961,-1.348,2.367
2064.0,-1.698,-7.14,7.079,-0.961,-1.348,2.367
2068.0,-0.456,-7.132,6.446,-0.989,-1.281,1.862
2072.0,-0.456,-7.132,6.446,-0.989,-1.281,1.862
2076.0,0.554,-6.96,5.962,-0.944,-1.238,1.345
2080.0,0.554,-6.96,5.962,-0.944,-1.238,1.345
2084.0,0.554,-6.96,5.962,-0.944,-1.238,1.345
2088.0,1.327,-6.986,5.316,-0.81,-1.237,0.842
2092.0,1.327,-6.986,5.316,-0.81,-1.237,0.842
2096.0,1.787,-7.316,4.392,-0.578,-1.264,0.404
2100.0,1.787,-7.316,4.392,-0.578,-1.264,0.404
2104.0,1.787,-7.316,4.392,-0.578,-1.264,0.404
2108.0,1.948,-7.851,3.265,-0.278,-1.278,0.075
2112.0,1.948,-7.851,3.265,-0.278,-1.278,0.075
2115.0,1.725,-8.332,2.225,-0.278,-1.246,-0.152
2119.0,1.725,-8.332,2.225,0.051,-1.246,-0.152
2123.0,1.725,-8.332,2.225,0.051,-1.246,-0.152
2127.0,1.299,-8.565,1.317,0.368,-1.182,-0.323
2131.0,1.299,-8.565,1.317,0.368,-1.182,-0.323
2135.0,0.793,-8.489,0.636,0.368,-1.182,-0.49
2139.0,0.793,-8.489,0.636,0.636,-1.117,-0.49
2143.0,0.793,-8.489,0.636,0.636,-1.117,-0.49
2147.0,0.243,-8.154,0.165,0.83,-1.063,-0.672
2151.0,0.243,-8.154,0.165,0.83,-1.063,-0.672
2155.0,-0.42,-7.787,-0.165,0.83,-1.063,-0.672
2159.0,-0.42,-7.787,-0.165,0.95,-1.006,-0.866
2163.0,-0.42,-7.787,-0.165,0.95,-1.006,-0.866
2167.0,-1.214,-7.376,-0.434,1.004,-0.93,-1.073
2171.0,-1.214,-7.376,-0.434,1.004,-0.93,-1.073
2175.0,-1.95,-6.908,-0.607,1.002,-0.838,-1.291
2179.0,-1.95,-6.908,-0.607,1.002,-0.838,-1.291
2183.0,-1.95,-6.908,-0.607,1.002,-0.838,-1.291
2187.0,-2.547,-6.619,-0.668,0.942,-0.725,-1.522
2191.0,-2.547,-6.619,-0.668,0.942,-0.725,-1.522
2195.0,-3.004,-6.497,-0.641,0.823,-0.601,-1.778
2200.0,-3.004,-6.497,-0.641,0.823,-0.601,-1.778
2204.0,-3.004,-6.497,-0.598,0.823,-0.601,-1.778
2208.0,-3.408,-6.494,-0.598,0.651,-0.477,-2.059
2212.0,-3.408,-6.494,-0.598,0.651,-0.477,-2.059
2216.0,-3.741,-6.558,-0.584,0.438,-0.36,-2.358
2220.0,-3.741,-6.558,-0.584,0.438,-0.36,-2.358
2224.0,-4.027,-6.66,-0.495,0.438,-0.36,-2.657
2228.0,-4.027,-6.66,-0.495,0.206,-0.25,-2.657
2232.0,-4.027,-6.66,-0.495,0.206,-0.25,-2.657
2236.0,-4.311,-6.796,-0.351,-0.019,-0.146,-2.943
2240.0,-4.311,-6.796,-0.351,-0.019,-0.146,-2.943
2245.0,-4.653,-7.035,-0.199,-0.21,-0.048,-3.198
2249.0,-4.653,-7.035,-0.199,-0.21,-0.048,-3.198
2253.0,-4.653,-7.035,-0.036,-0.21,-0.048,-3.198
2257.0,-5.081,-7.376,-0.036,-0.341,0.039,-3.422
2261.0,-5.081,-7.376,-0.036,-0.341,0.039,-3.422
2265.0,-5.576,-7.819,0.09,-0.408,0.113,-3.618
2269.0,-5.576,-7.819,0.09,-0.408,0.113,-3.618
2273.0,-6.169,-8.224,0.201,-0.408,0.113,-3.793
2277.0,-6.169,-8.224,0.201,-0.423,0.173,-3.793
2281.0,-6.169,-8.224,0.201,-0.423,0.173,-3.793
2285.0,-6.814,-8.542,0.38,-0.413,0.213,-3.955
2289.0,-6.814,-8.542,0.38,-0.413,0.213,-3.955
2293.0,-7.531,-8.84,0.564,-0.413,0.233,-4.111
2297.0,-7.531,-8.84,0.564,-0.395,0.233,-4.111
2301.0,-7.531,-8.84,0.564,-0.395,0.233,-4.111
2305.0,-8.329,-9.129,0.808,-0.375,0.24,-4.269
2309.0,-8.329,-9.129,0.808,-0.375,0.24,-4.269
2313.0,-9.216,-9.397,1.129,-0.351,0.234,-4.44
2317.0,-9.216,-9.397,1.129,-0.351,0.234,-4.44
2321.0,-9.216,-9.397,1.129,-0.351,0.234,-4.44
2325.0,-10.067,-9.519,1.477,-0.323,0.214,-4.622
2329.0,-10.067,-9.519,1.477,-0.323,0.214,-4.622
2333.0,-10.815,-9.619,1.922,-0.287,0.184,-4.8
2337.0,-10.815,-9.619,1.922,-0.287,0.184,-4.8
2341.0,-10.815,-9.619,1.922,-0.287,0.184,-4.8
2346.0,-11.464,-9.795,2.488,-0.256,0.153,-4.946
2350.0,-11.464,-9.795,2.488,-0.256,0.153,-4.946
2354.0,-12.258,-10.2,3.261,-0.255,0.128,-4.993
2358.0,-12.258,-10.2,3.261,-0.255,0.128,-4.993
2362.0,-13.381,-10.734,4.208,-0.255,0.128,-4.993
2366.0,-13.381,-10.734,4.208,-0.303,0.1,-4.995
2370.0,-13.381,-10.734,4.208,-0.303,0.1,-4.995
2375.0,-14.481,-11.188,5.432,-0.404,0.057,-4.995
2379.0,-14.481,-11.188,5.432,-0.404,0.057,-4.995
2383.0,-15.313,-11.502,6.816,-0.541,-0.025,-4.995
2387.0,-15.313,-11.502,6.816,-0.541,-0.025,-4.995
2391.0,-15.313,-11.655,8.114,-0.541,-0.025,-4.995
2396.0,-15.913,-11.655,8.114,-0.694,-0.155,-4.995
2400.0,-15.913,-11.655,8.114,-0.694,-0.155,-4.995
2404.0,-16.345,-11.806,9.645,-0.84,-0.322,-4.995
2408.0,-16.345,-11.806,9.645,-0.84,-0.322,-4.995
2413.0,-16.776,-12.25,11.315,-0.977,-0.523,-4.995
2417.0,-16.776,-12.25,11.315,-0.977,-0.523,-4.995
2421.0,-17.616,-13.122,12.997,-0.977,-0.523,-4.995
2426.0,-17.616,-13.122,12.997,-1.141,-0.733,-4.995
2430.0,-17.616,-13.122,12.997,-1.141,-0.733,-4.995
2434.0,-18.927,-14.232,14.743,-1.376,-0.936,-4.995
2439.0,-18.927,-14.232,14.743,-1.376,-0.936,-4.995
2443.0,-19.6,-15.318,16.049,-1.606,-1.149,-4.995
2447.0,-19.6,-15.318,16.049,-1.606,-1.149,-4.995
2452.0,-19.6,-16.333,17.378,-1.902,-1.367,-4.995
2456.0,-19.6,-16.333,17.378,-1.902,-1.367,-4.995
2460.0,-19.6,-17.14,18.564,-1.902,-1.367,-4.995
2465.0,-19.6,-17.14,18.564,-2.219,-1.578,-4.995
2469.0,-19.6,-17.14,18.564,-2.219,-1.578,-4.995
2473.0,-19.6,-17.629,19.33,-2.527,-1.802,-4.995
2478.0,-19.6,-17.629,19.33,-2.527,-1.802,-4.995
2482.0,-19.6,-18.23,19.6,-2.78,-2.02,-4.995
2486.0,-19.6,-18.23,19.6,-2.78,-2.02,-4.995
2491.0,-19.6,-18.639,19.6,-2.947,-2.181,-4.995
2495.0,-19.6,-18.639,19.6,-2.947,-2.181,-4.995
2499.0,-19.6,-18.639,19.6,-2.947,-2.181,-4.995
2504.0,-19.6,-18.843,19.6,-3.01,-2.306,-4.995
2508.0,-19.6,-18.843,19.6,-3.01,-2.306,-4.995
2512.0,-19.593,-18.797,19.542,-2.954,-2.394,-4.995
2517.0,-19.593,-18.797,19.542,-2.954,-2.394,-4.995
2521.0,-18.958,-18.557,19.046,-2.784,-2.447,-4.995
2525.0,-18.958,-18.557,19.046,-2.784,-2.447,-4.995
2530.0,-17.532,-17.935,18.278,-2.784,-2.447,-4.995
2534.0,-17.532,-17.935,18.278,-2.51,-2.473,-4.995
2538.0,-17.532,-17.935,18.278,-2.51,-2.473,-4.995
2543.0,-15.75,-16.853,17.516,-2.133,-2.472,-4.995
2547.0,-15.75,-16.853,17.516,-2.133,-2.472,-4.995
2551.0,-13.887,-15.331,16.588,-1.654,-2.454,-4.995
2556.0,-13.887,-15.331,16.588,-1.654,-2.454,-4.995
2560.0,-12.057,-13.528,15.422,-1.095,-2.427,-4.995
2565.0,-12.057,-13.528,15.422,-1.095,-2.427,-4.995
2569.0,-12.057,-13.528,13.962,-1.095,-2.427,-4.995
2573.0,-10.603,-11.608,13.962,-0.511,-2.404,-4.995
2578.0,-10.603,-11.608,13.962,-0.511,-2.404,-4.995
2582.0,-9.4,-9.403,12.362,0.047,-2.378,-4.995
2586.0,-9.4,-9.403,12.362,0.047,-2.378,-4.995
2590.0,-8.45,-7.021,11.239,0.529,-2.342,-4.995
2594.0,-8.45,-7.021,11.239,0.529,-2.342,-4.995
2598.0,-8.45,-7.021,11.239,0.529,-2.342,-4.995
2602.0,-8.017,-4.885,10.237,0.93,-2.308,-4.995
2606.0,-8.017,-4.885,10.237,0.93,-2.308,-4.995
2610.0,-7.924,-3.369,8.995,1.245,-2.288,-4.995
2614.0,-7.924,-3.369,8.995,1.245,-2.288,-4.995
2618.0,-7.995,-2.489,7.527,1.245,-2.288,-4.995
2622.0,-7.995,-2.489,7.527,1.489,-2.263,-4.995
2626.0,-7.995,-2.489,7.527,1.489,-2.263,-4.995
2630.0,-8.169,-2.12,5.908,1.657,-2.208,-4.944
2634.0,-8.169,-2.12,5.908,1.657,-2.208,-4.944
2638.0,-8.52,-1.864,4.407,1.657,-2.208,-4.58
2642.0,-8.52,-1.864,4.407,1.758,-2.108,-4.58
2646.0,-8.52,-1.864,4.407,1.758,-2.108,-4.58
2650.0,-9.121,-1.461,3.163,1.766,-1.968,-4.098
2654.0,-9.121,-1.461,3.163,1.766,-1.968,-4.098
2658.0,-9.769,-0.969,2.122,1.766,-1.785,-3.601
2662.0,-9.769,-0.969,2.122,1.668,-1.785,-3.601
2666.0,-9.769,-0.969,2.122,1.668,-1.785,-3.601
2670.0,-9.926,-0.535,1.253,1.452,-1.558,-3.056
2674.0,-9.926,-0.535,1.253,1.452,-1.558,-3.056
2678.0,-9.678,-0.215,0.607,1.135,-1.284,-2.464
2682.0,-9.678,-0.215,0.607,1.135,-1.284,-2.464
2686.0,-9.678,-0.215,0.607,1.135,-1.284,-2.464
2690.0,-9.522,-0.16,0.277,0.761,-0.966,-1.85
2694.0,-9.522,-0.16,0.277,0.761,-0.966,-1.85
2698.0,-9.544,-0.305,0.093,0.385,-0.632,-1.263
2702.0,-9.544,-0.305,0.093,0.385,-0.632,-1.263
2706.0,-9.544,-0.305,0.093,0.385,-0.632,-1.263
2710.0,-9.488,-0.452,-0.055,0.051,-0.31,-0.746
2714.0,-9.488,-0.452,-0.055,0.051,-0.31,-0.746
2718.0,-9.119,-0.375,-0.097,-0.214,-0.016,-0.306
2723.0,-9.119,-0.375,-0.097,-0.214,-0.016,-0.306
2727.0,-9.119,-0.375,-0.002,-0.214,-0.016,-0.306
2731.0,-8.538,-0.115,-0.002,-0.399,0.258,0.086
2735.0,-8.538,-0.115,-0.002,-0.399,0.258,0.086
2739.0,-7.824,0.09,0.313,-0.507,0.52,0.463
2743.0,-7.824,0.09,0.313,-0.507,0.52,0.463
2747.0,-7.824,0.09,0.754,-0.507,0.52,0.463
2750.0,-7.075,0.208,0.754,-0.541,0.765,0.841
2754.0,-7.075,0.208,0.754,-0.541,0.765,0.841
2758.0,-6.392,0.199,1.262,-0.506,0.994,1.222
2762.0,-6.392,0.199,1.262,-0.506,0.994,1.222
2766.0,-6.392,0.199,1.262,-0.506,0.994,1.222
2769.0,-5.817,0.15,1.74,-0.411,1.209,1.601
2773.0,-5.817,0.15,1.74,-0.411,1.209,1.601
2777.0,-5.35,0.091,2.151,-0.275,1.406,1.98
2781.0,-5.35,0.091,2.151,-0.275,1.406,1.98
2785.0,-5.35,0.091,2.151,-0.275,1.406,1.98
2789.0,-4.997,0.007,2.401,-0.124,1.591,2.362
2792.0,-4.997,0.007,2.401,-0.124,1.591,2.362
2796.0,-4.744,-0.046,2.563,-0.124,1.591,2.362
2800.0,-4.744,-0.046,2.563,0.021,1.773,2.752
2804.0,-4.744,-0.046,2.563,0.021,1.773,2.752
2808.0,-4.623,-0.149,2.693,0.148,1.965,3.147
2812.0,-4.623,-0.149,2.693,0.148,1.965,3.147
2815.0,-4.623,-0.149,2.693,0.148,1.965,3.147
2819.0,-4.618,-0.24,2.748,0.251,2.178,3.532
2823.0,-4.618,-0.24,2.748,0.251,2.178,3.532
2827.0,-4.723,-0.224,2.93,0.318,2.399,3.903
2831.0,-4.723,-0.224,2.93,0.318,2.399,3.903
2834.0,-4.723,-0.224,2.93,0.318,2.399,3.903
2838.0,-5.027,-0.177,3.318,0.336,2.615,4.251
2842.0,-5.027,-0.177,3.318,0.336,2.615,4.251
2846.0,-5.501,-0.222,3.747,0.336,2.821,4.565
2850.0,-5.501,-0.222,3.747,0.302,2.821,4.565
2854.0,-5.501,-0.222,3.747,0.302,2.821,4.565
2857.0,-6.064,-0.383,4.151,0.216,3.001,4.841
2861.0,-6.064,-0.383,4.151,0.216,3.001,4.841
2865.0,-6.064,-0.708,4.534,0.216,3.001,4.841
2869.0,-6.676,-0.708,4.534,0.087,3.151,5.0
2873.0,-6.676,-0.708,4.534,0.087,3.151,5.0
2876.0,-7.432,-1.247,4.996,-0.07,3.266,5.013
2880.0,-7.432,-1.247,4.996,-0.07,3.266,5.013
2884.0,-7.432,-1.247,4.996,-0.07,3.266,5.013
2888.0,-8.219,-1.752,5.402,-0.229,3.348,5.013
2892.0,-8.219,-1.752,5.402,-0.229,3.348,5.013
2896.0,-9.095,-2.504,6.261,-0.378,3.395,5.013
2900.0,-9.095,-2.504,6.261,-0.378,3.395,5.013
2904.0,-9.095,-2.504,6.261,-0.378,3.395,5.013
2908.0,-10.312,-3.194,7.005,-0.518,3.384,5.013
2912.0,-10.312,-3.194,7.005,-0.518,3.384,5.013
2916.0,-11.407,-3.762,7.543,-0.645,3.329,5.013
2920.0,-11.407,-3.762,7.543,-0.645,3.329,5.013
2924.0,-11.407,-3.762,7.543,-0.645,3.329,5.013
2928.0,-12.117,-4.272,8.24,-0.751,3.269,5.013
2932.0,-12.117,-4.272,8.24,-0.751,3.269,5.013
2936.0,-12.592,-4.533,8.927,-0.824,3.227,5.013
2940.0,-12.592,-4.533,8.927,-0.824,3.227,5.013
2944.0,-12.592,-4.533,8.927,-0.824,3.227,5.013
2948.0,-13.111,-4.798,9.58,-0.855,3.2,5.013
2952.0,-13.111,-4.798,9.58,-0.855,3.2,5.013
2956.0,-13.675,-4.954,10.323,-0.842,3.174,5.013
2960.0,-13.675,-4.954,10.323,-0.842,3.174,5.013
2964.0,-13.675,-5.096,11.052,-0.842,3.174,5.013
2968.0,-14.191,-5.096,11.052,-0.791,3.125,5.013
2972.0,-14.191,-5.096,11.052,-0.791,3.125,5.013
2976.0,-14.75,-5.372,11.566,-0.71,3.04,5.013
2980.0,-14.75,-5.372,11.566,-0.71,3.04,5.013
2984.0,-15.297,-5.376,11.466,-0.613,2.933,5.013
2988.0,-15.297,-5.376,11.466,-0.613,2.933,5.013
2992.0,-15.297,-5.376,11.466,-0.613,2.933,5.013
2996.0,-15.893,-5.277,11.501,-0.517,2.855,5.013
