deltaTime,Acc_X,Acc_Y,Acc_Z,Gyro_X,Gyro_Y,Gyro_Z
0.0,-3.468,-6.382,1.875,0.2,0.41,0.016
3.0,-3.468,-6.382,1.875,0.2,0.41,0.016
6.0,-3.468,-6.382,1.875,0.2,0.41,0.016
9.0,-3.601,-5.811,1.955,0.228,0.509,-0.058
12.0,-3.601,-5.811,1.955,0.228,0.509,-0.058
15.0,-3.601,-5.811,1.955,0.228,0.509,-0.058
18.0,-3.371,-5.498,1.883,0.197,0.59,-0.125
21.0,-3.371,-5.498,1.883,0.197,0.59,-0.125
24.0,-3.371,-5.498,1.883,0.197,0.59,-0.125
27.0,-3.371,-5.498,1.747,0.197,0.59,-0.125
30.0,-3.325,-5.694,1.747,0.184,0.653,-0.177
33.0,-3.325,-5.694,1.747,0.184,0.653,-0.177
36.0,-3.325,-5.694,1.747,0.184,0.653,-0.177
40.0,-3.388,-6.014,1.674,0.259,0.704,-0.216
43.0,-3.388,-6.014,1.674,0.259,0.704,-0.216
47.0,-3.255,-6.121,1.401,0.259,0.704,-0.216
51.0,-3.255,-6.121,1.401,0.413,0.738,-0.256
55.0,-3.255,-6.121,1.401,0.413,0.738,-0.256
58.0,-3.001,-5.758,1.095,0.589,0.755,-0.296
62.0,-3.001,-5.758,1.095,0.589,0.755,-0.296
66.0,-3.001,-5.758,1.095,0.589,0.755,-0.296
70.0,-3.091,-5.249,1.193,0.688,0.77,-0.343
73.0,-3.091,-5.249,1.193,0.688,0.77,-0.343
77.0,-2.95,-4.821,1.445,0.688,0.77,-0.387
81.0,-2.95,-4.821,1.445,0.689,0.775,-0.387
85.0,-2.95,-4.821,1.445,0.689,0.775,-0.387
88.0,-2.601,-4.574,1.792,0.623,0.774,-0.415
92.0,-2.601,-4.574,1.792,0.623,0.774,-0.415
96.0,-2.601,-4.574,1.792,0.623,0.774,-0.415
99.0,-2.548,-4.619,2.285,0.529,0.776,-0.419
103.0,-2.548,-4.619,2.285,0.529,0.776,-0.419
107.0,-2.733,-4.73,2.666,0.44,0.769,-0.404
111.0,-2.733,-4.73,2.666,0.44,0.769,-0.404
115.0,-2.733,-4.73,2.666,0.44,0.769,-0.404
118.0,-2.654,-4.988,3.044,0.379,0.751,-0.377
122.0,-2.654,-4.988,3.044,0.379,0.751,-0.377
126.0,-2.654,-5.384,3.494,0.379,0.751,-0.377
130.0,-2.686,-5.384,3.494,0.359,0.736,-0.348
134.0,-2.686,-5.384,3.494,0.359,0.736,-0.348
138.0,-2.889,-5.832,3.771,0.377,0.716,-0.338
141.0,-2.889,-5.832,3.771,0.377,0.716,-0.338
145.0,-2.889,-5.832,3.771,0.377,0.716,-0.338
149.0,-3.243,-6.363,4.156,0.42,0.692,-0.359
153.0,-3.243,-6.363,4.156,0.42,0.692,-0.359
157.0,-3.762,-7.29,4.817,0.462,0.676,-0.406
160.0,-3.762,-7.29,4.817,0.462,0.676,-0.406
164.0,-3.762,-7.29,4.817,0.462,0.676,-0.406
168.0,-4.414,-8.209,5.605,0.514,0.65,-0.467
172.0,-4.414,-8.209,5.605,0.514,0.65,-0.467
176.0,-4.997,-9.226,6.48,0.514,0.65,-0.551
180.0,-4.997,-9.226,6.48,0.574,0.608,-0.551
183.0,-4.997,-9.226,6.48,0.574,0.608,-0.551
187.0,-5.636,-9.868,7.325,0.66,0.534,-0.657
191.0,-5.636,-9.868,7.325,0.66,0.534,-0.657
195.0,-5.636,-9.868,8.342,0.66,0.534,-0.657
199.0,-6.644,-10.294,8.342,0.795,0.422,-0.759
203.0,-6.644,-10.294,8.342,0.795,0.422,-0.759
207.0,-7.577,-10.236,9.178,0.894,0.269,-0.867
210.0,-7.577,-10.236,9.178,0.894,0.269,-0.867
214.0,-7.577,-10.236,9.178,0.894,0.269,-0.867
218.0,-7.916,-10.547,9.711,0.933,0.075,-0.975
222.0,-7.916,-10.547,9.711,0.933,0.075,-0.975
226.0,-7.686,-10.613,9.986,0.97,-0.16,-1.08
230.0,-7.686,-10.613,9.986,0.97,-0.16,-1.08
234.0,-7.686,-10.613,9.986,0.97,-0.16,-1.08
238.0,-7.164,-10.972,10.062,0.979,-0.365,-1.135
242.0,-7.164,-10.972,10.062,0.979,-0.365,-1.135
246.0,-7.334,-11.322,9.827,1.012,-0.562,-1.144
250.0,-7.334,-11.322,9.827,1.012,-0.562,-1.144
254.0,-7.334,-11.322,9.581,1.012,-0.562,-1.144
258.0,-7.79,-11.57,9.581,1.021,-0.752,-1.155
262.0,-7.79,-11.57,9.581,1.021,-0.752,-1.155
266.0,-7.952,-12.281,9.659,1.01,-0.924,-1.16
270.0,-7.952,-12.281,9.659,1.01,-0.924,-1.16
274.0,-7.952,-12.992,9.963,1.01,-0.924,-1.16
278.0,-8.27,-12.992,9.963,1.021,-1.086,-1.152
282.0,-8.27,-12.992,9.963,1.021,-1.086,-1.152
286.0,-8.748,-13.617,10.29,1.052,-1.263,-1.142
290.0,-8.748,-13.617,10.29,1.052,-1.263,-1.142
294.0,-9.086,-13.969,10.528,1.052,-1.263,-1.148
298.0,-9.086,-13.969,10.528,1.092,-1.457,-1.148
302.0,-9.086,-13.969,10.528,1.092,-1.457,-1.148
307.0,-9.233,-14.31,10.829,1.119,-1.652,-1.15
311.0,-9.233,-14.31,10.829,1.119,-1.652,-1.15
315.0,-9.675,-14.89,11.216,1.102,-1.848,-1.127
319.0,-9.675,-14.89,11.216,1.102,-1.848,-1.127
323.0,-9.675,-14.89,11.216,1.102,-1.848,-1.127
327.0,-10.327,-15.698,11.326,1.019,-2.068,-1.086
331.0,-10.327,-15.698,11.326,1.019,-2.068,-1.086
335.0,-10.719,-17.027,11.331,0.859,-2.3,-1.062
339.0,-10.719,-17.027,11.331,0.859,-2.3,-1.062
344.0,-10.956,-18.581,11.469,0.859,-2.3,-1.132
348.0,-10.956,-18.581,11.469,0.621,-2.534,-1.132
352.0,-10.956,-18.581,11.469,0.621,-2.534,-1.132
356.0,-10.781,-19.442,11.453,0.342,-2.773,-1.355
360.0,-10.781,-19.442,11.453,0.342,-2.773,-1.355
364.0,-9.453,-19.286,11.428,0.083,-2.987,-1.724
368.0,-9.453,-19.286,11.428,0.083,-2.987,-1.724
373.0,-9.453,-19.286,11.52,0.083,-2.987,-1.724
377.0,-7.219,-18.569,11.52,-0.094,-3.153,-2.185
381.0,-7.219,-18.569,11.52,-0.094,-3.153,-2.185
385.0,-4.79,-17.915,11.286,-0.154,-3.295,-2.716
389.0,-4.79,-17.915,11.286,-0.154,-3.295,-2.716
393.0,-3.027,-17.358,10.52,-0.109,-3.416,-3.278
397.0,-3.027,-17.358,10.52,-0.109,-3.416,-3.278
402.0,-3.027,-17.358,10.52,-0.109,-3.416,-3.278
406.0,-2.219,-16.89,9.43,0.012,-3.53,-3.799
410.0,-2.219,-16.89,9.43,0.012,-3.53,-3.799
414.0,-2.228,-16.738,8.223,0.19,-3.637,-4.219
418.0,-2.228,-16.738,8.223,0.19,-3.637,-4.219
422.0,-2.228,-16.738,8.223,0.19,-3.637,-4.219
426.0,-2.76,-16.56,6.757,0.4,-3.745,-4.54
430.0,-2.76,-16.56,6.757,0.4,-3.745,-4.54
434.0,-3.27,-16.073,5.282,0.61,-3.833,-4.806
438.0,-3.27,-16.073,5.282,0.61,-3.833,-4.806
442.0,-3.27,-16.073,4.247,0.61,-3.833,-4.806
446.0,-3.717,-15.041,4.247,0.816,-3.887,-4.978
450.0,-3.717,-15.041,4.247,0.816,-3.887,-4.978
454.0,-4.418,-13.189,3.448,1.018,-3.935,-4.995
458.0,-4.418,-13.189,3.448,1.018,-3.935,-4.995
462.0,-5.107,-11.082,2.511,1.018,-3.935,-4.995
466.0,-5.107,-11.082,2.511,1.183,-3.992,-4.995
470.0,-5.107,-11.082,2.511,1.183,-3.992,-4.995
474.0,-5.452,-9.33,1.566,1.288,-4.011,-4.995
478.0,-5.452,-9.33,1.566,1.288,-4.011,-4.995
481.0,-5.378,-7.979,0.869,1.288,-4.011,-4.995
485.0,-5.378,-7.979,0.869,1.339,-3.951,-4.995
489.0,-5.378,-7.979,0.869,1.339,-3.951,-4.995
493.0,-5.191,-6.767,0.38,1.353,-3.807,-4.987
497.0,-5.191,-6.767,0.38,1.353,-3.807,-4.987
501.0,-5.191,-6.767,0.093,1.353,-3.807,-4.987
505.0,-5.046,-5.578,0.093,1.344,-3.599,-4.851
509.0,-5.046,-5.578,0.093,1.344,-3.599,-4.851
513.0,-5.118,-4.413,-0.161,1.325,-3.346,-4.579
517.0,-5.118,-4.413,-0.161,1.325,-3.346,-4.579
521.0,-5.118,-4.413,-0.464,1.325,-3.346,-4.579
525.0,-5.165,-3.329,-0.464,1.296,-3.034,-4.251
529.0,-5.165,-3.329,-0.464,1.296,-3.034,-4.251
533.0,-5.416,-2.422,-0.623,1.296,-2.703,-3.861
537.0,-5.416,-2.422,-0.623,1.296,-2.703,-3.861
541.0,-5.233,-1.596,-0.636,1.296,-2.703,-3.861
545.0,-5.233,-1.596,-0.636,1.342,-2.397,-3.41
549.0,-5.233,-1.596,-0.636,1.342,-2.397,-3.41
553.0,-5.297,-0.831,-0.714,1.427,-2.054,-2.941
557.0,-5.297,-0.831,-0.714,1.427,-2.054,-2.941
561.0,-5.743,0.079,-0.726,1.427,-2.054,-2.458
565.0,-5.743,0.079,-0.726,1.571,-1.69,-2.458
568.0,-5.743,0.079,-0.726,1.571,-1.69,-2.458
572.0,-6.382,1.128,-0.967,1.734,-1.332,-1.93
576.0,-6.382,1.128,-0.967,1.734,-1.332,-1.93
580.0,-7.073,2.365,-1.211,1.734,-1.332,-1.93
584.0,-7.073,2.365,-1.211,1.866,-0.981,-1.351
588.0,-7.073,2.365,-1.211,1.866,-0.981,-1.351
592.0,-7.676,3.531,-1.403,2.008,-0.632,-0.746
596.0,-7.676,3.531,-1.403,2.008,-0.632,-0.746
600.0,-7.676,3.531,-1.633,2.008,-0.632,-0.746
604.0,-8.061,4.445,-1.633,2.111,-0.297,-0.132
608.0,-8.061,4.445,-1.633,2.111,-0.297,-0.132
611.0,-8.157,5.086,-1.892,2.138,0.037,0.459
615.0,-8.157,5.086,-1.892,2.138,0.037,0.459
619.0,-8.157,5.086,-1.892,2.138,0.037,0.459
623.0,-8.167,5.496,-2.179,2.069,0.378,1.004
626.0,-8.167,5.496,-2.179,2.069,0.378,1.004
630.0,-8.308,5.783,-2.27,1.895,0.726,1.501
634.0,-8.308,5.783,-2.27,1.895,0.726,1.501
638.0,-8.308,5.783,-2.27,1.895,0.726,1.501
641.0,-8.457,5.786,-2.17,1.618,1.07,1.968
645.0,-8.457,5.786,-2.17,1.618,1.07,1.968
649.0,-8.457,5.786,-2.17,1.618,1.07,1.968
653.0,-8.567,5.477,-1.866,1.265,1.41,2.401
656.0,-8.567,5.477,-1.866,1.265,1.41,2.401
660.0,-8.827,4.97,-1.31,0.868,1.744,2.793
664.0,-8.827,4.97,-1.31,0.868,1.744,2.793
667.0,-8.827,4.97,-1.31,0.868,1.744,2.793
671.0,-9.242,4.339,-0.564,0.446,2.058,3.146
675.0,-9.242,4.339,-0.564,0.446,2.058,3.146
679.0,-9.242,4.339,0.336,0.446,2.058,3.146
682.0,-9.937,3.634,0.336,0.009,2.337,3.473
686.0,-9.937,3.634,0.336,0.009,2.337,3.473
690.0,-10.682,2.833,1.169,-0.43,2.558,3.793
693.0,-10.682,2.833,1.169,-0.43,2.558,3.793
697.0,-10.682,2.833,1.169,-0.43,2.558,3.793
701.0,-11.29,1.941,1.947,-0.851,2.721,4.117
705.0,-11.29,1.941,1.947,-0.851,2.721,4.117
709.0,-11.752,1.003,2.626,-0.851,2.721,4.117
712.0,-11.752,1.003,2.626,-1.229,2.835,4.443
716.0,-11.752,1.003,2.626,-1.229,2.835,4.443
720.0,-12.125,0.054,3.282,-1.545,2.906,4.77
724.0,-12.125,0.054,3.282,-1.545,2.906,4.77
728.0,-12.125,0.054,3.282,-1.545,2.906,4.77
732.0,-12.51,-0.792,3.797,-1.776,2.933,4.991
735.0,-12.51,-0.792,3.797,-1.776,2.933,4.991
739.0,-12.879,-1.67,4.277,-1.909,2.932,5.013
743.0,-12.879,-1.67,4.277,-1.909,2.932,5.013
747.0,-12.879,-1.67,4.277,-1.909,2.932,5.013
751.0,-13.257,-2.611,4.755,-1.943,2.914,5.013
755.0,-13.257,-2.611,4.755,-1.943,2.914,5.013
759.0,-13.616,-3.564,5.306,-1.872,2.883,5.013
763.0,-13.616,-3.564,5.306,-1.872,2.883,5.013
767.0,-13.616,-3.564,5.306,-1.872,2.883,5.013
771.0,-14.218,-4.961,6.287,-1.717,2.831,5.013
775.0,-14.218,-4.961,6.287,-1.717,2.831,5.013
778.0,-15.057,-6.133,7.065,-1.509,2.747,5.013
782.0,-15.057,-6.133,7.065,-1.509,2.747,5.013
786.0,-15.057,-6.133,7.065,-1.509,2.747,5.013
790.0,-15.665,-6.897,7.645,-1.273,2.644,5.013
794.0,-15.665,-6.897,7.645,-1.273,2.644,5.013
798.0,-15.854,-7.317,8.207,-1.032,2.535,5.013
802.0,-15.854,-7.317,8.207,-1.032,2.535,5.013
806.0,-15.854,-7.317,8.207,-1.032,2.535,5.013
810.0,-15.712,-7.576,8.562,-0.806,2.435,5.013
814.0,-15.712,-7.576,8.562,-0.806,2.435,5.013
818.0,-15.386,-7.622,8.817,-0.806,2.382,5.013
821.0,-15.386,-7.622,8.817,-0.599,2.382,5.013
825.0,-15.386,-7.622,8.817,-0.599,2.382,5.013
829.0,-15.092,-7.873,9.455,-0.418,2.399,5.013
833.0,-15.092,-7.873,9.455,-0.418,2.399,5.013
837.0,-15.138,-7.969,10.332,-0.418,2.399,5.013
841.0,-15.138,-7.969,10.332,-0.272,2.47,5.013
845.0,-15.138,-7.969,10.332,-0.272,2.47,5.013
849.0,-15.353,-7.984,10.936,-0.182,2.573,5.013
853.0,-15.353,-7.984,10.936,-0.182,2.573,5.013
857.0,-16.218,-7.658,12.157,-0.182,2.689,5.013
861.0,-16.218,-7.658,12.157,-0.224,2.689,5.013
865.0,-16.218,-7.658,12.157,-0.224,2.689,5.013
869.0,-17.359,-8.095,13.298,-0.252,2.773,5.013
873.0,-17.359,-8.095,13.298,-0.252,2.773,5.013
877.0,-18.836,-8.511,14.399,-0.247,2.85,5.013
881.0,-18.836,-8.511,14.399,-0.247,2.85,5.013
885.0,-18.836,-8.511,14.399,-0.247,2.85,5.013
889.0,-19.594,-9.069,16.013,-0.217,2.914,5.013
893.0,-19.594,-9.069,16.013,-0.217,2.914,5.013
897.0,-19.6,-9.573,17.445,-0.114,2.9,5.013
901.0,-19.6,-9.573,17.445,-0.114,2.9,5.013
905.0,-19.6,-9.573,17.445,-0.114,2.9,5.013
909.0,-19.6,-9.733,18.598,0.056,2.81,5.013
913.0,-19.6,-9.733,18.598,0.056,2.81,5.013
917.0,-19.6,-9.415,19.211,0.285,2.679,5.013
921.0,-19.6,-9.415,19.211,0.285,2.679,5.013
925.0,-19.6,-9.415,19.211,0.285,2.679,5.013
928.0,-19.6,-8.761,19.336,0.558,2.536,5.013
932.0,-19.6,-8.761,19.336,0.558,2.536,5.013
936.0,-19.6,-7.868,19.133,0.833,2.382,5.013
940.0,-19.6,-7.868,19.133,0.833,2.382,5.013
944.0,-19.6,-7.868,19.133,0.833,2.382,5.013
948.0,-19.6,-6.855,18.796,1.055,2.207,5.013
952.0,-19.6,-6.855,18.796,1.055,2.207,5.013
956.0,-19.6,-5.681,18.55,1.055,2.01,5.013
960.0,-19.6,-5.681,18.55,1.176,2.01,5.013
964.0,-19.6,-5.681,18.55,1.176,2.01,5.013
968.0,-19.6,-4.471,18.119,1.159,1.794,5.013
971.0,-19.6,-4.471,18.119,1.159,1.794,5.013
975.0,-19.323,-3.335,17.096,1.159,1.794,5.013
979.0,-19.323,-3.335,17.096,1.003,1.582,5.013
983.0,-19.323,-3.335,17.096,1.003,1.582,5.013
987.0,-19.259,-2.452,16.77,0.712,1.37,5.013
991.0,-19.259,-2.452,16.77,0.712,1.37,5.013
995.0,-19.569,-1.803,16.381,0.712,1.37,5.013
999.0,-19.569,-1.803,16.381,0.405,1.116,5.013
1003.0,-19.569,-1.803,16.381,0.405,1.116,5.013
1007.0,-19.154,-1.682,15.12,0.088,0.826,5.013
1011.0,-19.154,-1.682,15.12,0.088,0.826,5.013
1015.0,-17.992,-2.0,13.359,0.088,0.826,5.013
1019.0,-17.992,-2.0,13.359,-0.217,0.566,5.013
1023.0,-17.992,-2.0,13.359,-0.217,0.566,5.013
1027.0,-16.362,-2.52,11.217,-0.512,0.375,5.013
1031.0,-16.362,-2.52,11.217,-0.512,0.375,5.013
1035.0,-14.673,-3.26,9.526,-0.801,0.257,5.013
1039.0,-14.673,-3.26,9.526,-0.801,0.257,5.013
1043.0,-14.673,-3.26,9.526,-0.801,0.257,5.013
1047.0,-13.285,-4.193,8.44,-1.085,0.179,5.013
1051.0,-13.285,-4.193,8.44,-1.085,0.179,5.013
1055.0,-12.131,-4.947,7.837,-1.335,0.104,5.007
1059.0,-12.131,-4.947,7.837,-1.335,0.104,5.007
1063.0,-12.131,-4.947,7.837,-1.335,0.104,5.007
1067.0,-10.671,-5.662,7.74,-1.511,-0.02,4.771
1071.0,-10.671,-5.662,7.74,-1.511,-0.02,4.771
1075.0,-8.807,-6.148,7.503,-1.575,-0.219,4.179
1079.0,-8.807,-6.148,7.503,-1.575,-0.219,4.179
1083.0,-8.807,-6.148,7.503,-1.575,-0.219,4.179
1087.0,-7.065,-6.577,6.702,-1.511,-0.433,3.514
1091.0,-7.065,-6.577,6.702,-1.511,-0.433,3.514
1095.0,-6.254,-6.952,5.456,-1.349,-0.578,2.879
1099.0,-6.254,-6.952,5.456,-1.349,-0.578,2.879
1103.0,-6.254,-6.952,4.355,-1.349,-0.578,2.879
1107.0,-6.361,-7.315,4.355,-1.141,-0.608,2.348
1111.0,-6.361,-7.315,4.355,-1.141,-0.608,2.348
1115.0,-6.867,-7.661,3.86,-0.906,-0.589,1.917
1119.0,-6.867,-7.661,3.86,-0.906,-0.589,1.917
1123.0,-7.021,-8.106,3.65,-0.906,-0.589,1.917
1127.0,-7.021,-8.106,3.65,-0.65,-0.637,1.533
1131.0,-7.021,-8.106,3.65,-0.65,-0.637,1.533
1135.0,-6.7,-8.359,3.135,-0.381,-0.779,1.132
1139.0,-6.7,-8.359,3.135,-0.381,-0.779,1.132
1143.0,-6.245,-8.282,2.314,-0.381,-0.779,1.132
1147.0,-6.245,-8.282,2.314,-0.121,-0.937,0.706
1151.0,-6.245,-8.282,2.314,-0.121,-0.937,0.706
1155.0,-5.593,-7.903,1.57,0.097,-1.035,0.274
1159.0,-5.593,-7.903,1.57,0.097,-1.035,0.274
1163.0,-5.08,-7.238,1.056,0.097,-1.035,-0.152
1167.0,-5.08,-7.238,1.056,0.255,-1.065,-0.152
1171.0,-5.08,-7.238,1.056,0.255,-1.065,-0.152
1175.0,-4.706,-6.496,0.802,0.341,-1.058,-0.556
1179.0,-4.706,-6.496,0.802,0.341,-1.058,-0.556
1183.0,-4.359,-5.844,0.638,0.341,-1.033,-0.938
1187.0,-4.359,-5.844,0.638,0.363,-1.033,-0.938
1191.0,-4.359,-5.844,0.638,0.363,-1.033,-0.938
1195.0,-4.073,-5.317,0.562,0.338,-0.998,-1.29
1199.0,-4.073,-5.317,0.562,0.338,-0.998,-1.29
1203.0,-3.868,-4.939,0.453,0.284,-0.951,-1.598
1207.0,-3.868,-4.939,0.453,0.284,-0.951,-1.598
1211.0,-3.868,-4.939,0.453,0.284,-0.951,-1.598
1215.0,-3.742,-4.777,0.348,0.21,-0.888,-1.858
1219.0,-3.742,-4.777,0.348,0.21,-0.888,-1.858
1223.0,-3.502,-4.852,0.205,0.127,-0.815,-2.081
1227.0,-3.502,-4.852,0.205,0.127,-0.815,-2.081
1231.0,-3.502,-4.852,0.205,0.127,-0.815,-2.081
1235.0,-3.313,-4.979,0.002,0.04,-0.74,-2.297
1239.0,-3.313,-4.979,0.002,0.04,-0.74,-2.297
1243.0,-3.104,-5.098,-0.154,-0.046,-0.661,-2.517
1247.0,-3.104,-5.098,-0.154,-0.046,-0.661,-2.517
1251.0,-3.104,-5.098,-0.154,-0.046,-0.661,-2.517
1255.0,-2.904,-5.316,-0.255,-0.129,-0.577,-2.737
1259.0,-2.904,-5.316,-0.255,-0.129,-0.577,-2.737
1263.0,-2.883,-5.636,-0.318,-0.194,-0.485,-2.958
1268.0,-2.883,-5.636,-0.318,-0.194,-0.485,-2.958
1272.0,-3.212,-6.008,-0.352,-0.225,-0.382,-3.169
1276.0,-3.212,-6.008,-0.352,-0.225,-0.382,-3.169
1280.0,-3.212,-6.008,-0.352,-0.225,-0.382,-3.169
1284.0,-3.928,-6.453,-0.317,-0.213,-0.271,-3.355
1288.0,-3.928,-6.453,-0.317,-0.213,-0.271,-3.355
1293.0,-4.835,-6.896,-0.237,-0.166,-0.158,-3.514
1297.0,-4.835,-6.896,-0.237,-0.166,-0.158,-3.514
1301.0,-5.676,-7.235,-0.131,-0.166,-0.158,-3.661
1305.0,-5.676,-7.235,-0.131,-0.093,-0.055,-3.661
1309.0,-5.676,-7.235,-0.131,-0.093,-0.055,-3.661
1313.0,-6.395,-7.48,0.048,-0.008,0.03,-3.816
1317.0,-6.395,-7.48,0.048,-0.008,0.03,-3.816
1321.0,-7.048,-7.649,0.293,0.083,0.093,-4.001
1325.0,-7.048,-7.649,0.293,0.083,0.093,-4.001
1329.0,-7.048,-7.649,0.293,0.083,0.093,-4.001
1333.0,-7.609,-7.833,0.495,0.177,0.136,-4.22
1337.0,-7.609,-7.833,0.495,0.177,0.136,-4.22
1341.0,-8.176,-8.064,0.633,0.28,0.169,-4.459
1345.0,-8.176,-8.064,0.633,0.28,0.169,-4.459
1349.0,-8.176,-8.064,0.633,0.28,0.169,-4.459
1353.0,-8.826,-8.253,0.815,0.393,0.195,-4.709
1357.0,-8.826,-8.253,0.815,0.393,0.195,-4.709
1360.0,-9.444,-8.438,1.039,0.515,0.214,-4.931
1364.0,-9.444,-8.438,1.039,0.515,0.214,-4.931
1368.0,-9.444,-8.438,1.039,0.515,0.214,-4.931
1372.0,-10.079,-8.605,1.42,0.643,0.224,-4.995
1376.0,-10.079,-8.605,1.42,0.643,0.224,-4.995
1380.0,-10.96,-8.786,2.07,0.643,0.216,-4.995
1384.0,-10.96,-8.786,2.07,0.761,0.216,-4.995
1388.0,-10.96,-8.786,2.07,0.761,0.216,-4.995
1392.0,-12.166,-9.101,2.987,0.849,0.175,-4.995
1396.0,-12.166,-9.101,2.987,0.849,0.175,-4.995
1400.0,-13.698,-9.392,3.961,0.891,0.081,-4.995
1404.0,-13.698,-9.392,3.961,0.891,0.081,-4.995
1408.0,-13.698,-9.392,3.961,0.891,0.081,-4.995
1412.0,-15.401,-9.545,4.871,0.879,-0.088,-4.995
1416.0,-15.401,-9.545,4.871,0.879,-0.088,-4.995
1420.0,-16.82,-9.597,5.717,0.804,-0.345,-4.995
1424.0,-16.82,-9.597,5.717,0.804,-0.345,-4.995
1428.0,-16.82,-9.597,5.717,0.804,-0.345,-4.995
1433.0,-17.704,-9.597,6.559,0.642,-0.665,-4.995
1437.0,-17.704,-9.597,6.559,0.642,-0.665,-4.995
1441.0,-18.282,-9.645,7.363,0.369,-1.0,-4.995
1445.0,-18.282,-9.645,7.363,0.369,-1.0,-4.995
1449.0,-18.893,-9.961,8.216,0.369,-1.0,-4.995
1453.0,-18.893,-9.961,8.216,-0.026,-1.317,-4.995
1457.0,-18.893,-9.961,8.216,-0.026,-1.317,-4.995
1461.0,-19.582,-10.709,9.548,-0.547,-1.589,-4.995
1466.0,-19.582,-10.709,9.548,-0.547,-1.589,-4.995
1470.0,-19.6,-11.481,10.708,-1.137,-1.821,-4.995
1474.0,-19.6,-11.481,10.708,-1.137,-1.821,-4.995
1478.0,-19.6,-12.285,11.506,-1.137,-1.821,-4.995
1483.0,-19.6,-12.285,11.506,-1.78,-2.021,-4.995
1487.0,-19.6,-12.285,11.506,-1.78,-2.021,-4.995
1491.0,-19.6,-13.526,12.224,-2.381,-2.146,-4.995
1496.0,-19.6,-13.526,12.224,-2.381,-2.146,-4.995
1500.0,-19.6,-15.374,12.989,-2.85,-2.153,-4.995
1504.0,-19.6,-15.374,12.989,-2.85,-2.153,-4.995
1509.0,-19.6,-17.561,13.681,-3.157,-2.064,-4.995
1513.0,-19.6,-17.561,13.681,-3.157,-2.064,-4.995
1518.0,-19.6,-17.561,13.945,-3.157,-2.064,-4.995
1522.0,-19.6,-19.351,13.945,-3.333,-1.962,-4.995
1526.0,-19.6,-19.351,13.945,-3.333,-1.962,-4.995
1531.0,-19.6,-19.6,13.737,-3.378,-1.88,-4.995
1535.0,-19.6,-19.6,13.737,-3.378,-1.88,-4.995
1539.0,-19.581,-19.6,13.439,-3.259,-1.784,-4.995
1544.0,-19.581,-19.6,13.439,-3.259,-1.784,-4.995
1548.0,-18.815,-19.6,13.329,-3.259,-1.67,-4.995
1552.0,-18.815,-19.6,13.329,-2.942,-1.67,-4.995
1557.0,-18.815,-19.6,13.329,-2.942,-1.67,-4.995
1561.0,-17.675,-19.6,13.05,-2.422,-1.566,-4.995
1565.0,-17.675,-19.6,13.05,-2.422,-1.566,-4.995
1570.0,-16.791,-19.487,12.578,-1.757,-1.475,-4.995
1574.0,-16.791,-19.487,12.578,-1.757,-1.475,-4.995
1578.0,-15.744,-19.6,12.159,-1.048,-1.408,-4.995
1583.0,-15.744,-19.6,12.159,-1.048,-1.408,-4.995
1587.0,-14.024,-19.49,11.832,-1.048,-1.408,-4.995
1591.0,-14.024,-19.49,11.832,-0.314,-1.359,-4.995
1596.0,-14.024,-19.49,11.832,-0.314,-1.359,-4.995
1600.0,-12.525,-17.527,11.258,0.434,-1.301,-4.995
1604.0,-12.525,-17.527,11.258,0.434,-1.301,-4.995
1608.0,-11.012,-14.668,10.418,1.079,-1.252,-4.995
1613.0,-11.012,-14.668,10.418,1.079,-1.252,-4.995
1617.0,-9.647,-12.181,9.285,1.079,-1.191,-4.995
1621.0,-9.647,-12.181,9.285,1.564,-1.191,-4.995
1625.0,-9.647,-12.181,9.285,1.564,-1.191,-4.995
1629.0,-8.816,-10.082,7.878,1.912,-1.116,-4.995
1633.0,-8.816,-10.082,7.878,1.912,-1.116,-4.995
1637.0,-8.386,-7.957,6.471,2.121,-1.033,-4.995
1641.0,-8.386,-7.957,6.471,2.121,-1.033,-4.995
1645.0,-8.386,-7.957,6.471,2.121,-1.033,-4.995
1649.0,-8.037,-6.148,5.217,2.182,-0.957,-4.995
1653.0,-8.037,-6.148,5.217,2.182,-0.957,-4.995
1657.0,-7.67,-4.725,4.11,2.099,-0.883,-4.995
1661.0,-7.67,-4.725,4.11,2.099,-0.883,-4.995
1665.0,-7.67,-4.725,4.11,2.099,-0.883,-4.995
1669.0,-7.083,-3.765,3.06,1.895,-0.789,-4.995
1673.0,-7.083,-3.765,3.06,1.895,-0.789,-4.995
1677.0,-6.246,-3.286,2.221,1.605,-0.661,-4.995
1681.0,-6.246,-3.286,2.221,1.605,-0.661,-4.995
1685.0,-6.246,-3.286,1.766,1.605,-0.661,-4.995
1689.0,-5.533,-3.087,1.766,1.262,-0.498,-4.984
1693.0,-5.533,-3.087,1.766,1.262,-0.498,-4.984
1697.0,-5.253,-3.028,1.633,0.91,-0.339,-4.737
1701.0,-5.253,-3.028,1.633,0.91,-0.339,-4.737
1705.0,-5.253,-2.885,1.263,0.91,-0.339,-4.737
1709.0,-5.356,-2.885,1.263,0.584,-0.213,-4.242
1713.0,-5.356,-2.885,1.263,0.584,-0.213,-4.242
1717.0,-5.005,-2.69,0.975,0.3,-0.097,-3.707
1721.0,-5.005,-2.69,0.975,0.3,-0.097,-3.707
1725.0,-4.85,-2.885,0.898,0.3,-0.097,-3.707
1729.0,-4.85,-2.885,0.898,0.094,0.029,-3.149
1733.0,-4.85,-2.885,0.898,0.094,0.029,-3.149
1737.0,-4.821,-2.892,0.832,0.009,0.07,-2.577
1741.0,-4.821,-2.892,0.832,0.009,0.07,-2.577
1745.0,-5.021,-2.994,0.807,0.009,0.07,-2.577
1749.0,-5.021,-2.994,0.807,-0.021,0.122,-2.03
1753.0,-5.021,-2.994,0.807,-0.021,0.122,-2.03
1757.0,-5.272,-3.021,0.805,-0.009,0.155,-1.549
1761.0,-5.272,-3.021,0.805,-0.009,0.155,-1.549
1765.0,-5.404,-2.792,0.723,-0.009,0.155,-1.549
1769.0,-5.404,-2.792,0.723,0.007,0.156,-1.154
1773.0,-5.404,-2.792,0.723,0.007,0.156,-1.154
1777.0,-5.286,-2.389,0.705,0.007,0.146,-0.83
1780.0,-5.286,-2.389,0.705,0.007,0.146,-0.83
1784.0,-5.16,-1.957,0.931,0.007,0.146,-0.83
1788.0,-5.16,-1.957,0.931,-0.004,0.137,-0.541
1792.0,-5.16,-1.957,0.931,-0.004,0.137,-0.541
1796.0,-5.094,-1.53,1.362,-0.015,0.122,-0.26
1800.0,-5.094,-1.53,1.362,-0.015,0.122,-0.26
1804.0,-4.965,-1.223,1.721,-0.015,0.122,-0.26
1808.0,-4.965,-1.223,1.721,-0.014,0.103,0.028
1812.0,-4.965,-1.223,1.721,-0.014,0.103,0.028
1816.0,-4.563,-1.132,1.907,0.008,0.098,0.322
1820.0,-4.563,-1.132,1.907,0.008,0.098,0.322
1824.0,-4.563,-1.065,1.967,0.008,0.098,0.322
1827.0,-4.077,-1.065,1.967,0.052,0.128,0.614
1831.0,-4.077,-1.065,1.967,0.052,0.128,0.614
1835.0,-3.694,-0.927,1.954,0.107,0.201,0.912
1839.0,-3.694,-0.927,1.954,0.107,0.201,0.912
1843.0,-3.694,-0.927,1.954,0.107,0.201,0.912
1847.0,-3.419,-0.717,1.936,0.161,0.314,1.225
1850.0,-3.419,-0.717,1.936,0.161,0.314,1.225
1854.0,-3.264,-0.462,1.86,0.209,0.462,1.561
1858.0,-3.264,-0.462,1.86,0.209,0.462,1.561
1862.0,-3.264,-0.462,1.86,0.209,0.462,1.561
1866.0,-3.26,-0.188,1.836,0.25,0.638,1.915
1870.0,-3.26,-0.188,1.836,0.25,0.638,1.915
1873.0,-3.343,0.056,1.88,0.25,0.638,1.915
1877.0,-3.343,0.056,1.88,0.276,0.833,2.276
1881.0,-3.343,0.056,1.88,0.276,0.833,2.276
1885.0,-3.458,0.288,2.014,0.286,1.046,2.632
1888.0,-3.458,0.288,2.014,0.286,1.046,2.632
1892.0,-3.458,0.288,2.014,0.286,1.046,2.632
1896.0,-3.594,0.485,2.186,0.281,1.264,2.988
1899.0,-3.594,0.485,2.186,0.281,1.264,2.988
1903.0,-3.749,0.638,2.32,0.281,1.482,3.352
1907.0,-3.749,0.638,2.32,0.267,1.482,3.352
1911.0,-3.749,0.638,2.32,0.267,1.482,3.352
1914.0,-3.96,0.659,2.414,0.242,1.697,3.727
1918.0,-3.96,0.659,2.414,0.242,1.697,3.727
1922.0,-3.96,0.659,2.414,0.242,1.697,3.727
1926.0,-4.329,0.545,2.573,0.201,1.901,4.109
1929.0,-4.329,0.545,2.573,0.201,1.901,4.109
1933.0,-4.822,0.236,2.756,0.149,2.089,4.486
1937.0,-4.822,0.236,2.756,0.149,2.089,4.486
1941.0,-4.822,0.236,2.756,0.149,2.089,4.486
1944.0,-5.394,-0.17,2.957,0.094,2.272,4.842
1948.0,-5.394,-0.17,2.957,0.094,2.272,4.842
1952.0,-5.394,-0.17,3.332,0.094,2.272,4.842
1956.0,-6.041,-0.684,3.332,0.031,2.447,5.007
1960.0,-6.041,-0.684,3.332,0.031,2.447,5.007
1963.0,-6.809,-1.24,3.869,-0.044,2.603,5.013
1967.0,-6.809,-1.24,3.869,-0.044,2.603,5.013
1971.0,-6.809,-1.24,3.869,-0.044,2.603,5.013
1975.0,-7.697,-1.817,4.42,-0.132,2.742,5.013
1979.0,-7.697,-1.817,4.42,-0.132,2.742,5.013
1983.0,-8.668,-2.297,4.848,-0.224,2.856,5.013
1987.0,-8.668,-2.297,4.848,-0.224,2.856,5.013
1991.0,-8.668,-2.297,4.848,-0.224,2.856,5.013
1995.0,-9.638,-2.692,5.2,-0.313,2.934,5.013
1998.0,-9.638,-2.692,5.2,-0.313,2.934,5.013
2002.0,-10.411,-3.035,5.477,-0.401,2.972,5.013
2006.0,-10.411,-3.035,5.477,-0.401,2.972,5.013
2010.0,-10.411,-3.035,5.477,-0.401,2.972,5.013
2014.0,-10.981,-3.268,5.739,-0.491,2.993,5.013
2018.0,-10.981,-3.268,5.739,-0.491,2.993,5.013
2022.0,-11.702,-4.147,6.319,-0.593,3.005,5.013
2026.0,-11.702,-4.147,6.319,-0.593,3.005,5.013
2030.0,-11.702,-4.147,6.319,-0.593,3.005,5.013
2034.0,-12.97,-5.219,6.717,-0.698,2.998,5.013
2038.0,-12.97,-5.219,6.717,-0.698,2.998,5.013
2042.0,-14.364,-5.993,6.919,-0.797,2.962,5.013
2046.0,-14.364,-5.993,6.919,-0.797,2.962,5.013
2050.0,-14.364,-5.993,6.919,-0.797,2.962,5.013
2054.0,-15.39,-6.474,7.228,-0.877,2.887,5.013
2058.0,-15.39,-6.474,7.228,-0.877,2.887,5.013
2062.0,-15.857,-6.623,7.53,-0.929,2.771,5.013
2066.0,-15.857,-6.623,7.53,-0.929,2.771,5.013
2070.0,-15.857,-6.623,7.938,-0.929,2.771,5.013
2074.0,-15.863,-6.833,7.938,-0.956,2.643,5.013
2078.0,-15.863,-6.833,7.938,-0.956,2.643,5.013
2082.0,-16.07,-7.156,8.338,-0.972,2.538,5.013
2086.0,-16.07,-7.156,8.338,-0.972,2.538,5.013
2090.0,-16.575,-7.257,8.517,-0.972,2.538,5.013
2094.0,-16.575,-7.257,8.517,-0.976,2.478,5.013
2098.0,-16.575,-7.257,8.517,-0.976,2.478,5.013
2102.0,-17.093,-7.394,8.652,-0.97,2.457,5.013
2106.0,-17.093,-7.394,8.652,-0.97,2.457,5.013
2110.0,-17.688,-7.768,8.91,-0.97,2.457,5.013
2114.0,-17.688,-7.768,8.91,-0.955,2.443,5.013
2118.0,-17.688,-7.768,8.91,-0.955,2.443,5.013
2122.0,-18.266,-7.68,9.059,-0.928,2.428,5.013
2126.0,-18.266,-7.68,9.059,-0.928,2.428,5.013
2130.0,-18.643,-7.396,9.388,-0.928,2.41,5.013
2134.0,-18.643,-7.396,9.388,-0.9,2.41,5.013
2138.0,-18.643,-7.396,9.388,-0.9,2.41,5.013
2142.0,-18.984,-7.216,9.793,-0.883,2.365,5.013
2146.0,-18.984,-7.216,9.793,-0.883,2.365,5.013
2150.0,-19.207,-6.973,10.034,-0.856,2.297,5.013
2154.0,-19.207,-6.973,10.034,-0.856,2.297,5.013
2158.0,-19.207,-6.973,10.034,-0.856,2.297,5.013
2162.0,-19.146,-6.625,10.11,-0.804,2.233,5.013
2166.0,-19.146,-6.625,10.11,-0.804,2.233,5.013
2171.0,-18.994,-6.236,10.088,-0.723,2.201,5.013
2175.0,-18.994,-6.236,10.088,-0.723,2.201,5.013
2179.0,-18.994,-6.236,10.088,-0.723,2.201,5.013
2183.0,-19.056,-6.116,10.332,-0.613,2.193,5.013
2187.0,-19.056,-6.116,10.332,-0.613,2.193,5.013
2191.0,-19.434,-6.28,10.785,-0.475,2.16,5.013
2195.0,-19.434,-6.28,10.785,-0.475,2.16,5.013
2199.0,-19.6,-6.3,11.004,-0.475,2.16,5.013
2203.0,-19.6,-6.3,11.004,-0.317,2.071,5.013
2207.0,-19.6,-6.3,11.004,-0.317,2.071,5.013
2211.0,-19.6,-5.947,10.985,-0.151,1.954,5.013
2215.0,-19.6,-5.947,10.985,-0.151,1.954,5.013
2220.0,-19.6,-5.316,10.768,0.004,1.83,5.013
2223.0,-19.6,-5.316,10.768,0.004,1.83,5.013
2227.0,-19.6,-5.316,10.768,0.004,1.83,5.013
2231.0,-19.6,-4.564,10.281,0.139,1.703,5.013
2235.0,-19.6,-4.564,10.281,0.139,1.703,5.013
2239.0,-19.515,-3.823,9.576,0.24,1.588,5.013
2243.0,-19.515,-3.823,9.576,0.24,1.588,5.013
2247.0,-19.515,-3.823,9.576,0.24,1.588,5.013
2251.0,-19.333,-3.133,9.006,0.29,1.501,5.013
2255.0,-19.333,-3.133,9.006,0.29,1.501,5.013
2259.0,-19.128,-2.517,8.599,0.274,1.423,5.013
2263.0,-19.128,-2.517,8.599,0.274,1.423,5.013
2267.0,-19.128,-2.517,8.599,0.274,1.423,5.013
2271.0,-18.73,-2.027,8.356,0.183,1.33,5.013
2275.0,-18.73,-2.027,8.356,0.183,1.33,5.013
2279.0,-17.935,-1.697,8.195,0.023,1.21,5.01
2282.0,-17.935,-1.697,8.195,0.023,1.21,5.01
2286.0,-17.935,-1.697,8.195,0.023,1.21,5.01
2290.0,-16.739,-1.519,8.072,-0.179,1.06,4.87
2294.0,-16.739,-1.519,8.072,-0.179,1.06,4.87
2298.0,-15.345,-1.433,7.901,-0.397,0.883,4.506
2302.0,-15.345,-1.433,7.901,-0.397,0.883,4.506
2306.0,-15.345,-1.433,7.901,-0.397,0.883,4.506
2310.0,-13.728,-1.478,7.63,-0.604,0.681,4.091
2314.0,-13.728,-1.478,7.63,-0.604,0.681,4.091
2318.0,-11.967,-1.503,7.325,-0.778,0.456,3.644
2322.0,-11.967,-1.503,7.325,-0.778,0.456,3.644
2326.0,-11.967,-1.503,7.325,-0.778,0.456,3.644
2330.0,-10.184,-1.506,6.926,-0.914,0.215,3.181
2334.0,-10.184,-1.506,6.926,-0.914,0.215,3.181
2338.0,-8.381,-1.586,6.292,-0.999,-0.026,2.72
2342.0,-8.381,-1.586,6.292,-0.999,-0.026,2.72
2346.0,-8.381,-1.586,6.292,-0.999,-0.026,2.72
2350.0,-6.803,-1.749,5.535,-1.035,-0.25,2.279
2354.0,-6.803,-1.749,5.535,-1.035,-0.25,2.279
2358.0,-5.736,-1.968,4.688,-1.031,-0.435,1.88
2362.0,-5.736,-1.968,4.688,-1.031,-0.435,1.88
2366.0,-5.736,-1.968,4.688,-1.031,-0.435,1.88
2370.0,-5.348,-2.2,3.888,-1.008,-0.552,1.536
2374.0,-5.348,-2.2,3.888,-1.008,-0.552,1.536
2378.0,-5.614,-2.52,3.418,-0.977,-0.595,1.252
2382.0,-5.614,-2.52,3.418,-0.977,-0.595,1.252
2386.0,-5.614,-2.52,3.266,-0.977,-0.595,1.252
2390.0,-6.186,-2.933,3.266,-0.947,-0.606,1.017
2394.0,-6.186,-2.933,3.266,-0.947,-0.606,1.017
2398.0,-6.731,-3.296,3.259,-0.915,-0.636,0.806
2402.0,-6.731,-3.296,3.259,-0.915,-0.636,0.806
2406.0,-6.731,-3.609,3.132,-0.915,-0.636,0.806
2410.0,-7.169,-3.609,3.132,-0.876,-0.699,0.603
2414.0,-7.169,-3.609,3.132,-0.876,-0.699,0.603
2418.0,-7.287,-3.844,2.703,-0.826,-0.773,0.393
2422.0,-7.287,-3.844,2.703,-0.826,-0.773,0.393
2426.0,-7.021,-3.906,2.23,-0.826,-0.773,0.393
2430.0,-7.021,-3.906,2.23,-0.767,-0.826,0.17
2434.0,-7.021,-3.906,2.23,-0.767,-0.826,0.17
2438.0,-6.507,-3.757,1.848,-0.712,-0.838,-0.066
2442.0,-6.507,-3.757,1.848,-0.712,-0.838,-0.066
2446.0,-6.01,-3.505,1.522,-0.712,-0.809,-0.306
2450.0,-6.01,-3.505,1.522,-0.672,-0.809,-0.306
2454.0,-6.01,-3.505,1.522,-0.672,-0.809,-0.306
2458.0,-5.721,-3.264,1.28,-0.648,-0.753,-0.544
2462.0,-5.721,-3.264,1.28,-0.648,-0.753,-0.544
2467.0,-5.575,-3.229,1.132,-0.625,-0.685,-0.778
2471.0,-5.575,-3.229,1.132,-0.625,-0.685,-0.778
2475.0,-5.575,-3.229,1.132,-0.625,-0.685,-0.778
2479.0,-5.612,-3.438,1.024,-0.583,-0.619,-1.013
2483.0,-5.612,-3.438,1.024,-0.583,-0.619,-1.013
2487.0,-5.84,-3.673,0.952,-0.511,-0.555,-1.256
2491.0,-5.84,-3.673,0.952,-0.511,-0.555,-1.256
2495.0,-6.151,-3.852,0.96,-0.511,-0.555,-1.256
2499.0,-6.151,-3.852,0.96,-0.408,-0.495,-1.5
2503.0,-6.151,-3.852,0.96,-0.408,-0.495,-1.5
2507.0,-6.418,-4.02,0.955,-0.278,-0.439,-1.734
2511.0,-6.418,-4.02,0.955,-0.278,-0.439,-1.734
2516.0,-6.626,-4.111,0.878,-0.132,-0.386,-1.955
2520.0,-6.626,-4.111,0.878,-0.132,-0.386,-1.955
2524.0,-6.626,-4.111,0.878,-0.132,-0.386,-1.955
2528.0,-6.821,-4.173,0.748,0.016,-0.328,-2.162
2532.0,-6.821,-4.173,0.748,0.016,-0.328,-2.162
2536.0,-7.007,-4.215,0.556,0.151,-0.258,-2.359
2540.0,-7.007,-4.215,0.556,0.151,-0.258,-2.359
2544.0,-7.007,-4.215,0.556,0.151,-0.258,-2.359
2548.0,-7.198,-4.213,0.3,0.266,-0.175,-2.54
2552.0,-7.198,-4.213,0.3,0.266,-0.175,-2.54
2556.0,-7.435,-4.32,0.203,0.364,-0.087,-2.706
2560.0,-7.435,-4.32,0.203,0.364,-0.087,-2.706
2564.0,-7.435,-4.32,0.234,0.364,-0.087,-2.706
2568.0,-7.726,-4.557,0.234,0.461,-0.003,-2.864
2572.0,-7.726,-4.557,0.234,0.461,-0.003,-2.864
2576.0,-7.977,-4.92,0.331,0.579,0.07,-3.025
2580.0,-7.977,-4.92,0.331,0.579,0.07,-3.025
2583.0,-7.977,-4.92,0.389,0.579,0.07,-3.025
2587.0,-8.24,-5.2,0.389,0.72,0.137,-3.194
2591.0,-8.24,-5.2,0.389,0.72,0.137,-3.194
2595.0,-8.496,-5.378,0.486,0.873,0.198,-3.375
2599.0,-8.496,-5.378,0.486,0.873,0.198,-3.375
2603.0,-8.496,-5.378,0.486,0.873,0.198,-3.375
2607.0,-8.795,-5.431,0.616,1.018,0.245,-3.574
2611.0,-8.795,-5.431,0.616,1.018,0.245,-3.574
2615.0,-9.096,-5.344,0.788,1.138,0.269,-3.795
2619.0,-9.096,-5.344,0.788,1.138,0.269,-3.795
2623.0,-9.096,-5.344,0.788,1.138,0.269,-3.795
2626.0,-9.292,-5.252,1.06,1.235,0.266,-4.034
2630.0,-9.292,-5.252,1.06,1.235,0.266,-4.034
2634.0,-9.561,-5.263,1.398,1.307,0.244,-4.271
2638.0,-9.561,-5.263,1.398,1.307,0.244,-4.271
2642.0,-9.561,-5.263,1.398,1.307,0.244,-4.271
2646.0,-10.151,-5.441,1.79,1.351,0.204,-4.493
2650.0,-10.151,-5.441,1.79,1.351,0.204,-4.493
2654.0,-11.122,-5.706,2.166,1.359,0.141,-4.699
2658.0,-11.122,-5.706,2.166,1.359,0.141,-4.699
2662.0,-11.122,-5.706,2.166,1.359,0.141,-4.699
2666.0,-12.198,-5.931,2.575,1.327,0.044,-4.886
2670.0,-12.198,-5.931,2.575,1.327,0.044,-4.886
2674.0,-13.158,-6.179,3.108,1.249,-0.093,-4.988
2678.0,-13.158,-6.179,3.108,1.249,-0.093,-4.988
2682.0,-13.158,-6.179,3.604,1.249,-0.093,-4.988
2686.0,-13.833,-6.471,3.604,1.121,-0.274,-4.995
2690.0,-13.833,-6.471,3.604,1.121,-0.274,-4.995
2694.0,-14.157,-6.797,4.031,0.944,-0.486,-4.995
2698.0,-14.157,-6.797,4.031,0.944,-0.486,-4.995
2702.0,-14.464,-7.195,4.511,0.944,-0.486,-4.995
2707.0,-14.464,-7.195,4.511,0.733,-0.704,-4.995
2711.0,-14.464,-7.195,4.511,0.733,-0.704,-4.995
2715.0,-14.998,-7.632,5.02,0.509,-0.911,-4.995
2719.0,-14.998,-7.632,5.02,0.509,-0.911,-4.995
2723.0,-15.647,-8.35,5.614,0.299,-1.106,-4.995
2727.0,-15.647,-8.35,5.614,0.299,-1.106,-4.995
2731.0,-15.647,-8.35,5.614,0.299,-1.106,-4.995
2735.0,-16.555,-9.106,6.212,0.107,-1.278,-4.995
2739.0,-16.555,-9.106,6.212,0.107,-1.278,-4.995
2743.0,-17.646,-9.85,6.892,-0.093,-1.422,-4.995
2747.0,-17.646,-9.85,6.892,-0.093,-1.422,-4.995
2752.0,-18.749,-10.942,7.79,-0.093,-1.422,-4.995
2756.0,-18.749,-10.942,7.79,-0.32,-1.557,-4.995
2760.0,-18.749,-10.942,7.79,-0.32,-1.557,-4.995
2764.0,-19.552,-12.117,8.568,-0.569,-1.703,-4.995
2769.0,-19.552,-12.117,8.568,-0.569,-1.703,-4.995
2773.0,-19.6,-13.271,9.038,-0.836,-1.844,-4.995
2777.0,-19.6,-13.271,9.038,-0.836,-1.844,-4.995
2781.0,-19.6,-14.3,9.318,-0.836,-1.844,-4.995
2786.0,-19.6,-14.3,9.318,-1.089,-1.949,-4.995
2790.0,-19.6,-14.3,9.318,-1.089,-1.949,-4.995
2794.0,-19.6,-15.404,9.448,-1.335,-2.003,-4.995
2798.0,-19.6,-15.404,9.448,-1.335,-2.003,-4.995
2803.0,-19.6,-16.53,9.48,-1.525,-2.023,-4.995
2807.0,-19.6,-16.53,9.48,-1.525,-2.023,-4.995
2811.0,-19.6,-17.57,9.502,-1.525,-2.023,-4.995
2815.0,-19.6,-17.57,9.502,-1.627,-2.016,-4.995
2820.0,-19.6,-17.57,9.502,-1.627,-2.016,-4.995
2824.0,-19.6,-18.213,9.211,-1.635,-1.99,-4.995
2828.0,-19.6,-18.213,9.211,-1.635,-1.99,-4.995
2832.0,-19.44,-18.438,8.972,-1.547,-1.935,-4.995
2837.0,-19.44,-18.438,8.972,-1.547,-1.935,-4.995
2841.0,-18.459,-18.407,8.885,-1.547,-1.845,-4.995
2845.0,-18.459,-18.407,8.885,-1.363,-1.845,-4.995
2849.0,-18.459,-18.407,8.885,-1.363,-1.845,-4.995
2854.0,-17.739,-18.059,8.698,-1.099,-1.743,-4.995
2858.0,-17.739,-18.059,8.698,-1.099,-1.743,-4.995
2862.0,-16.865,-17.346,8.42,-0.769,-1.664,-4.995
2866.0,-16.865,-17.346,8.42,-0.769,-1.664,-4.995
2871.0,-15.486,-16.4,8.127,-0.377,-1.597,-4.995
2875.0,-15.486,-16.4,8.127,-0.377,-1.597,-4.995
2879.0,-15.486,-16.4,8.127,-0.377,-1.597,-4.995
2883.0,-13.99,-15.087,7.719,0.074,-1.527,-4.995
2888.0,-13.99,-15.087,7.719,0.074,-1.527,-4.995
2892.0,-12.582,-13.426,7.181,0.552,-1.456,-4.995
2896.0,-12.582,-13.426,7.181,0.552,-1.456,-4.995
2900.0,-11.434,-11.551,6.526,0.552,-1.396,-4.995
2904.0,-11.434,-11.551,6.526,1.015,-1.396,-4.995
2908.0,-11.434,-11.551,6.526,1.015,-1.396,-4.995
2913.0,-10.519,-9.638,5.708,1.419,-1.345,-4.995
2917.0,-10.519,-9.638,5.708,1.419,-1.345,-4.995
2921.0,-9.716,-7.903,4.945,1.731,-1.3,-4.995
2925.0,-9.716,-7.903,4.945,1.731,-1.3,-4.995
2929.0,-9.716,-7.903,4.945,1.731,-1.3,-4.995
2933.0,-8.969,-6.533,4.353,1.942,-1.259,-4.995
2937.0,-8.969,-6.533,4.353,1.942,-1.259,-4.995
2941.0,-8.355,-5.484,3.854,2.06,-1.218,-4.995
2945.0,-8.355,-5.484,3.854,2.06,-1.218,-4.995
2949.0,-8.355,-5.484,3.382,2.06,-1.218,-4.995
2953.0,-7.737,-4.689,3.382,2.106,-1.182,-4.995
2957.0,-7.737,-4.689,3.382,2.106,-1.182,-4.995
2961.0,-7.117,-4.084,2.903,2.098,-1.15,-4.994
2965.0,-7.117,-4.084,2.903,2.098,-1.15,-4.994
2969.0,-6.649,-3.608,2.512,2.098,-1.15,-4.994
2973.0,-6.649,-3.608,2.512,2.051,-1.118,-4.887
2977.0,-6.649,-3.608,2.512,2.051,-1.118,-4.887
2981.0,-6.336,-3.077,2.1,1.962,-1.084,-4.559
2985.0,-6.336,-3.077,2.1,1.962,-1.084,-4.559
2989.0,-6.002,-2.7,1.783,1.962,-1.084,-4.179
2993.0,-6.002,-2.7,1.783,1.839,-1.033,-4.179
2997.0,-6.002,-2.7,1.783,1.839,-1.033,-4.179
