deltaTime,Acc_X,Acc_Y,Acc_Z,Gyro_X,Gyro_Y,Gyro_Z
0.0,-8.862,-3.849,2.194,0.259,0.176,-0.048
3.0,-8.862,-3.849,2.194,0.302,0.176,-0.048
6.0,-8.862,-3.849,2.194,0.302,0.176,-0.048
9.0,-8.862,-3.849,2.205,0.302,0.176,-0.048
12.0,-8.999,-3.787,2.205,0.342,0.173,0.012
15.0,-8.999,-3.787,2.205,0.342,0.173,0.012
18.0,-8.999,-3.787,2.205,0.342,0.173,0.012
21.0,-9.01,-3.726,2.464,0.37,0.15,0.078
24.0,-9.01,-3.726,2.464,0.37,0.15,0.078
27.0,-9.01,-3.726,2.464,0.37,0.15,0.078
30.0,-9.304,-3.641,2.522,0.369,0.173,0.123
33.0,-9.304,-3.641,2.522,0.369,0.173,0.123
36.0,-9.304,-3.641,2.522,0.369,0.173,0.123
39.0,-9.304,-3.333,2.733,0.369,0.173,0.123
43.0,-9.284,-3.333,2.733,0.35,0.15,0.148
46.0,-9.284,-3.333,2.733,0.35,0.15,0.148
50.0,-9.371,-3.111,2.797,0.282,0.133,0.168
54.0,-9.371,-3.111,2.797,0.282,0.133,0.168
57.0,-9.371,-3.111,2.797,0.282,0.133,0.168
61.0,-9.251,-3.118,2.7,0.184,0.087,0.2
64.0,-9.251,-3.118,2.7,0.184,0.087,0.2
68.0,-9.251,-3.118,2.7,0.184,0.087,0.2
72.0,-9.039,-3.07,2.591,0.077,0.036,0.243
75.0,-9.039,-3.07,2.591,0.077,0.036,0.243
79.0,-8.728,-2.768,2.629,-0.051,0.002,0.275
83.0,-8.728,-2.768,2.629,-0.051,0.002,0.275
87.0,-8.728,-2.768,2.629,-0.051,0.002,0.275
90.0,-8.508,-2.604,2.483,-0.223,-0.025,0.304
94.0,-8.508,-2.604,2.483,-0.223,-0.025,0.304
98.0,-8.508,-2.604,2.511,-0.223,-0.025,0.304
102.0,-8.387,-2.576,2.511,-0.419,-0.056,0.334
106.0,-8.387,-2.576,2.511,-0.419,-0.056,0.334
110.0,-8.209,-2.725,2.85,-0.604,-0.079,0.376
113.0,-8.209,-2.725,2.85,-0.604,-0.079,0.376
117.0,-8.209,-2.725,2.85,-0.604,-0.079,0.376
121.0,-8.262,-3.377,3.185,-0.738,-0.1,0.437
125.0,-8.262,-3.377,3.185,-0.738,-0.1,0.437
129.0,-8.292,-4.2,3.705,-0.769,-0.129,0.52
133.0,-8.292,-4.2,3.705,-0.769,-0.129,0.52
137.0,-8.292,-4.2,3.705,-0.769,-0.129,0.52
141.0,-8.216,-4.499,4.028,-0.699,-0.157,0.577
145.0,-8.216,-4.499,4.028,-0.699,-0.157,0.577
149.0,-8.265,-4.833,3.812,-0.64,-0.185,0.588
152.0,-8.265,-4.833,3.812,-0.64,-0.185,0.588
156.0,-8.265,-4.833,3.812,-0.64,-0.185,0.588
160.0,-8.331,-5.649,3.433,-0.58,-0.205,0.6
164.0,-8.331,-5.649,3.433,-0.58,-0.205,0.6
168.0,-8.278,-6.276,3.358,-0.459,-0.201,0.608
172.0,-8.278,-6.276,3.358,-0.459,-0.201,0.608
176.0,-8.278,-6.276,3.358,-0.459,-0.201,0.608
180.0,-8.455,-6.877,3.288,-0.312,-0.198,0.594
184.0,-8.455,-6.877,3.288,-0.312,-0.198,0.594
188.0,-8.281,-7.563,3.713,-0.062,-0.216,0.575
192.0,-8.281,-7.563,3.713,-0.062,-0.216,0.575
195.0,-8.281,-7.563,3.713,-0.062,-0.216,0.575
199.0,-7.847,-7.274,3.374,0.269,-0.209,0.525
203.0,-7.847,-7.274,3.374,0.269,-0.209,0.525
207.0,-7.589,-6.532,3.191,0.269,-0.209,0.415
211.0,-7.589,-6.532,3.191,0.464,-0.162,0.415
215.0,-7.589,-6.532,3.191,0.464,-0.162,0.415
218.0,-7.64,-6.087,2.924,0.564,-0.11,0.269
222.0,-7.64,-6.087,2.924,0.564,-0.11,0.269
226.0,-7.64,-6.087,2.924,0.564,-0.11,0.269
230.0,-7.976,-6.193,2.883,0.624,-0.055,0.149
234.0,-7.976,-6.193,2.883,0.624,-0.055,0.149
238.0,-8.062,-6.226,2.854,0.699,-0.013,0.07
241.0,-8.062,-6.226,2.854,0.699,-0.013,0.07
245.0,-8.062,-6.226,2.854,0.699,-0.013,0.07
249.0,-8.267,-5.934,3.005,0.801,0.018,0.007
253.0,-8.267,-5.934,3.005,0.801,0.018,0.007
256.0,-8.085,-5.095,3.36,0.801,0.018,-0.079
260.0,-8.085,-5.095,3.36,0.853,0.034,-0.079
264.0,-8.085,-5.095,3.36,0.853,0.034,-0.079
268.0,-8.341,-3.548,3.222,0.768,0.066,-0.169
272.0,-8.341,-3.548,3.222,0.768,0.066,-0.169
276.0,-8.341,-3.548,2.721,0.768,0.066,-0.169
279.0,-8.35,-3.235,2.721,0.483,0.049,-0.242
283.0,-8.35,-3.235,2.721,0.483,0.049,-0.242
287.0,-8.315,-3.65,2.937,0.194,0.044,-0.248
291.0,-8.315,-3.65,2.937,0.194,0.044,-0.248
295.0,-8.315,-3.65,2.937,0.194,0.044,-0.248
299.0,-8.468,-3.575,3.241,0.026,0.054,-0.253
302.0,-8.468,-3.575,3.241,0.026,0.054,-0.253
306.0,-8.838,-3.83,2.996,-0.088,0.014,-0.232
310.0,-8.838,-3.83,2.996,-0.088,0.014,-0.232
314.0,-8.838,-3.83,2.996,-0.088,0.014,-0.232
318.0,-8.552,-3.665,3.091,-0.153,-0.027,-0.175
322.0,-8.552,-3.665,3.091,-0.153,-0.027,-0.175
326.0,-8.533,-3.392,3.353,-0.199,-0.038,-0.14
330.0,-8.533,-3.392,3.353,-0.199,-0.038,-0.14
334.0,-8.533,-3.392,3.353,-0.199,-0.038,-0.14
338.0,-8.554,-3.502,3.636,-0.229,-0.052,-0.096
342.0,-8.554,-3.502,3.636,-0.229,-0.052,-0.096
346.0,-8.345,-4.439,2.913,-0.177,-0.066,-0.024
350.0,-8.345,-4.439,2.913,-0.177,-0.066,-0.024
354.0,-8.345,-4.439,2.913,-0.177,-0.066,-0.024
358.0,-7.674,-4.927,2.5,-0.056,-0.052,0.063
362.0,-7.674,-4.927,2.5,-0.056,-0.052,0.063
366.0,-7.446,-4.303,3.17,0.077,0.012,0.086
369.0,-7.446,-4.303,3.17,0.077,0.012,0.086
373.0,-7.446,-4.303,3.17,0.077,0.012,0.086
377.0,-8.1,-3.765,3.41,0.165,0.052,0.086
381.0,-8.1,-3.765,3.41,0.165,0.052,0.086
384.0,-8.1,-3.765,3.138,0.165,0.052,0.086
388.0,-8.455,-3.747,3.138,0.189,0.06,0.146
392.0,-8.455,-3.747,3.138,0.189,0.06,0.146
395.0,-8.156,-3.771,2.747,0.166,0.067,0.225
399.0,-8.156,-3.771,2.747,0.166,0.067,0.225
403.0,-8.156,-3.771,2.747,0.166,0.067,0.225
407.0,-8.065,-3.528,2.971,0.088,0.105,0.251
410.0,-8.065,-3.528,2.971,0.088,0.105,0.251
414.0,-8.323,-3.247,3.306,0.088,0.105,0.251
418.0,-8.323,-3.247,3.306,-0.004,0.142,0.245
422.0,-8.323,-3.247,3.306,-0.004,0.142,0.245
425.0,-8.524,-3.378,3.038,-0.091,0.156,0.277
429.0,-8.524,-3.378,3.038,-0.091,0.156,0.277
433.0,-8.524,-3.378,3.038,-0.091,0.156,0.277
437.0,-8.432,-3.476,2.919,-0.19,0.175,0.324
441.0,-8.432,-3.476,2.919,-0.19,0.175,0.324
445.0,-8.428,-3.41,2.913,-0.307,0.204,0.328
448.0,-8.428,-3.41,2.913,-0.307,0.204,0.328
452.0,-8.428,-3.41,2.913,-0.307,0.204,0.328
456.0,-8.573,-3.379,2.908,-0.453,0.232,0.308
460.0,-8.573,-3.379,2.908,-0.453,0.232,0.308
464.0,-8.728,-3.476,3.117,-0.453,0.232,0.299
468.0,-8.728,-3.476,3.117,-0.617,0.264,0.299
471.0,-8.728,-3.476,3.117,-0.617,0.264,0.299
475.0,-8.886,-3.846,3.34,-0.766,0.288,0.305
479.0,-8.886,-3.846,3.34,-0.766,0.288,0.305
483.0,-8.886,-3.846,3.698,-0.766,0.288,0.305
487.0,-9.041,-4.356,3.698,-0.852,0.298,0.326
490.0,-9.041,-4.356,3.698,-0.852,0.298,0.326
494.0,-9.1,-4.52,4.052,-0.843,0.283,0.354
498.0,-9.1,-4.52,4.052,-0.843,0.283,0.354
502.0,-9.1,-4.52,4.052,-0.843,0.283,0.354
506.0,-9.379,-4.925,4.144,-0.773,0.24,0.374
510.0,-9.379,-4.925,4.144,-0.773,0.24,0.374
513.0,-9.623,-5.548,4.229,-0.638,0.273,0.389
517.0,-9.623,-5.548,4.229,-0.638,0.273,0.389
521.0,-9.623,-5.548,4.229,-0.638,0.273,0.389
525.0,-9.495,-5.34,4.07,-0.301,0.116,0.389
529.0,-9.495,-5.34,4.07,-0.301,0.116,0.389
532.0,-9.495,-5.178,3.714,-0.301,0.116,0.389
536.0,-8.538,-5.178,3.714,-0.027,-0.008,0.423
540.0,-8.538,-5.178,3.714,-0.027,-0.008,0.423
544.0,-8.196,-5.006,3.476,0.203,-0.011,0.45
548.0,-8.196,-5.006,3.476,0.203,-0.011,0.45
552.0,-8.196,-5.006,3.476,0.203,-0.011,0.45
556.0,-8.331,-4.668,3.162,0.398,-0.004,0.448
559.0,-8.331,-4.668,3.162,0.398,-0.004,0.448
563.0,-8.634,-3.818,2.745,0.51,-0.026,0.412
567.0,-8.634,-3.818,2.745,0.51,-0.026,0.412
571.0,-8.634,-3.818,2.745,0.51,-0.026,0.412
575.0,-8.594,-3.332,2.519,0.502,-0.071,0.341
578.0,-8.594,-3.332,2.519,0.502,-0.071,0.341
582.0,-8.459,-3.211,2.413,0.502,-0.098,0.287
586.0,-8.459,-3.211,2.413,0.424,-0.098,0.287
590.0,-8.459,-3.211,2.413,0.424,-0.098,0.287
594.0,-8.445,-3.3,2.551,0.333,-0.098,0.272
598.0,-8.445,-3.3,2.551,0.333,-0.098,0.272
601.0,-8.445,-3.3,2.792,0.333,-0.098,0.272
605.0,-8.612,-3.486,2.792,0.261,-0.091,0.281
609.0,-8.612,-3.486,2.792,0.261,-0.091,0.281
613.0,-8.838,-3.668,3.059,0.211,-0.096,0.285
617.0,-8.838,-3.668,3.059,0.211,-0.096,0.285
620.0,-8.838,-3.668,3.059,0.211,-0.096,0.285
624.0,-8.984,-3.784,3.38,0.186,-0.118,0.267
628.0,-8.984,-3.784,3.38,0.186,-0.118,0.267
632.0,-9.104,-3.876,3.561,0.187,-0.159,0.235
636.0,-9.104,-3.876,3.561,0.187,-0.159,0.235
640.0,-9.104,-3.876,3.561,0.187,-0.159,0.235
643.0,-9.135,-3.992,3.683,0.214,-0.194,0.207
647.0,-9.135,-3.992,3.683,0.214,-0.194,0.207
651.0,-9.196,-4.175,3.963,0.214,-0.194,0.207
655.0,-9.196,-4.175,3.963,0.273,-0.209,0.193
659.0,-9.196,-4.175,3.963,0.273,-0.209,0.193
662.0,-9.293,-4.4,4.395,0.363,-0.209,0.2
666.0,-9.293,-4.4,4.395,0.363,-0.209,0.2
670.0,-9.293,-4.4,4.395,0.363,-0.209,0.2
674.0,-9.33,-4.569,4.886,0.486,-0.208,0.221
678.0,-9.33,-4.569,4.886,0.486,-0.208,0.221
682.0,-9.296,-4.685,5.469,0.636,-0.222,0.248
685.0,-9.296,-4.685,5.469,0.636,-0.222,0.248
689.0,-9.296,-4.685,5.469,0.636,-0.222,0.248
693.0,-9.397,-4.843,6.173,0.805,-0.264,0.27
697.0,-9.397,-4.843,6.173,0.805,-0.264,0.27
701.0,-9.687,-5.036,6.939,0.805,-0.264,0.273
704.0,-9.687,-5.036,6.939,0.986,-0.346,0.273
708.0,-9.687,-5.036,6.939,0.986,-0.346,0.273
712.0,-10.055,-5.112,7.677,1.175,-0.478,0.248
716.0,-10.055,-5.112,7.677,1.175,-0.478,0.248
720.0,-10.055,-4.927,8.307,1.175,-0.478,0.248
724.0,-10.49,-4.927,8.307,1.346,-0.662,0.201
728.0,-10.49,-4.927,8.307,1.346,-0.662,0.201
732.0,-10.764,-4.803,8.715,1.481,-0.883,0.151
736.0,-10.764,-4.803,8.715,1.481,-0.883,0.151
739.0,-10.764,-4.803,9.028,1.481,-0.883,0.151
743.0,-10.744,-4.869,9.028,1.58,-1.11,0.103
747.0,-10.744,-4.869,9.028,1.58,-1.11,0.103
751.0,-10.596,-4.959,9.339,1.647,-1.31,0.056
755.0,-10.596,-4.959,9.339,1.647,-1.31,0.056
759.0,-10.596,-4.959,9.339,1.647,-1.31,0.056
763.0,-10.468,-4.938,9.772,1.685,-1.471,0.016
767.0,-10.468,-4.938,9.772,1.685,-1.471,0.016
771.0,-10.645,-5.005,10.512,1.702,-1.614,-0.012
775.0,-10.645,-5.005,10.512,1.702,-1.614,-0.012
779.0,-10.645,-5.005,11.219,1.702,-1.614,-0.012
783.0,-10.966,-5.154,11.219,1.728,-1.787,-0.051
787.0,-10.966,-5.154,11.219,1.728,-1.787,-0.051
791.0,-11.314,-5.212,11.9,1.79,-1.998,-0.115
795.0,-11.314,-5.212,11.9,1.79,-1.998,-0.115
799.0,-11.648,-5.233,12.304,1.79,-1.998,-0.186
803.0,-11.648,-5.233,12.304,1.89,-2.24,-0.186
807.0,-11.648,-5.233,12.304,1.89,-2.24,-0.186
812.0,-12.007,-5.307,12.512,2.022,-2.499,-0.248
816.0,-12.007,-5.307,12.512,2.022,-2.499,-0.248
820.0,-12.272,-5.428,12.73,2.181,-2.765,-0.297
824.0,-12.272,-5.428,12.73,2.181,-2.765,-0.297
828.0,-12.272,-5.428,12.73,2.181,-2.765,-0.297
832.0,-12.33,-5.549,12.69,2.351,-3.02,-0.333
836.0,-12.33,-5.549,12.69,2.351,-3.02,-0.333
840.0,-12.431,-5.708,12.672,2.509,-3.217,-0.35
844.0,-12.431,-5.708,12.672,2.509,-3.217,-0.35
848.0,-12.431,-5.655,12.715,2.509,-3.217,-0.35
852.0,-12.41,-5.655,12.715,2.671,-3.444,-0.361
856.0,-12.41,-5.655,12.715,2.671,-3.444,-0.361
860.0,-12.212,-5.48,12.624,2.822,-3.668,-0.37
865.0,-12.212,-5.48,12.624,2.822,-3.668,-0.37
869.0,-12.101,-5.28,12.646,2.822,-3.862,-0.374
873.0,-12.101,-5.28,12.646,2.949,-3.862,-0.374
877.0,-12.101,-5.28,12.646,2.949,-3.862,-0.374
881.0,-11.916,-5.2,12.438,3.063,-4.05,-0.364
885.0,-11.916,-5.2,12.438,3.063,-4.05,-0.364
889.0,-11.672,-5.179,12.318,3.156,-4.202,-0.339
893.0,-11.672,-5.179,12.318,3.156,-4.202,-0.339
897.0,-11.672,-5.179,12.318,3.156,-4.202,-0.339
901.0,-11.416,-5.085,12.285,3.223,-4.327,-0.298
905.0,-11.416,-5.085,12.285,3.223,-4.327,-0.298
909.0,-11.17,-4.93,12.315,3.258,-4.42,-0.259
914.0,-11.17,-4.93,12.315,3.258,-4.42,-0.259
918.0,-10.765,-4.704,12.443,3.258,-4.42,-0.259
922.0,-10.765,-4.704,12.443,3.275,-4.49,-0.243
926.0,-10.765,-4.704,12.443,3.275,-4.49,-0.243
930.0,-10.256,-4.398,12.567,3.29,-4.55,-0.26
934.0,-10.256,-4.398,12.567,3.29,-4.55,-0.26
938.0,-9.941,-4.28,12.625,3.307,-4.602,-0.292
942.0,-9.941,-4.28,12.625,3.307,-4.602,-0.292
946.0,-9.941,-4.28,12.625,3.307,-4.602,-0.292
950.0,-9.833,-4.336,12.638,3.319,-4.656,-0.318
954.0,-9.833,-4.336,12.638,3.319,-4.656,-0.318
958.0,-9.678,-4.571,12.696,3.333,-4.707,-0.338
962.0,-9.678,-4.571,12.696,3.333,-4.707,-0.338
966.0,-9.678,-4.571,12.696,3.333,-4.707,-0.338
970.0,-9.288,-4.611,12.549,3.347,-4.757,-0.375
974.0,-9.288,-4.611,12.549,3.347,-4.757,-0.375
978.0,-8.703,-4.302,12.392,3.355,-4.802,-0.423
982.0,-8.703,-4.302,12.392,3.355,-4.802,-0.423
986.0,-8.703,-4.302,12.392,3.355,-4.802,-0.423
990.0,-7.998,-4.122,12.013,3.35,-4.831,-0.448
994.0,-7.998,-4.122,12.013,3.35,-4.831,-0.448
998.0,-7.019,-4.111,11.642,3.336,-4.816,-0.472
1002.0,-7.019,-4.111,11.642,3.336,-4.816,-0.472
1006.0,-7.019,-4.111,11.307,3.336,-4.816,-0.472
1010.0,-6.169,-4.119,11.307,3.347,-4.765,-0.532
1014.0,-6.169,-4.119,11.307,3.347,-4.765,-0.532
1018.0,-5.474,-4.141,10.959,3.403,-4.706,-0.608
1022.0,-5.474,-4.141,10.959,3.403,-4.706,-0.608
1026.0,-4.58,-3.989,10.622,3.403,-4.706,-0.68
1030.0,-4.58,-3.989,10.622,3.505,-4.652,-0.68
1035.0,-4.58,-3.989,10.622,3.505,-4.652,-0.68
1039.0,-3.86,-4.147,10.269,3.616,-4.546,-0.75
1043.0,-3.86,-4.147,10.269,3.616,-4.546,-0.75
1047.0,-3.321,-4.464,9.965,3.738,-4.404,-0.834
1051.0,-3.321,-4.464,9.965,3.738,-4.404,-0.834
1055.0,-3.321,-4.464,9.965,3.738,-4.404,-0.834
1059.0,-2.818,-4.627,9.595,3.888,-4.24,-0.949
1063.0,-2.818,-4.627,9.595,3.888,-4.24,-0.949
1067.0,-2.292,-4.679,9.263,4.084,-4.061,-1.087
1071.0,-2.292,-4.679,9.263,4.084,-4.061,-1.087
1075.0,-2.292,-4.679,9.263,4.084,-4.061,-1.087
1079.0,-1.966,-4.604,8.944,4.334,-3.883,-1.222
1083.0,-1.966,-4.604,8.944,4.334,-3.883,-1.222
1087.0,-1.9,-4.574,8.476,4.598,-3.707,-1.308
1091.0,-1.9,-4.574,8.476,4.598,-3.707,-1.308
1095.0,-1.9,-4.574,8.476,4.598,-3.707,-1.308
1099.0,-1.997,-4.603,7.976,4.826,-3.535,-1.339
1103.0,-1.997,-4.603,7.976,4.826,-3.535,-1.339
1107.0,-2.228,-4.51,7.345,4.97,-3.382,-1.343
1111.0,-2.228,-4.51,7.345,4.97,-3.382,-1.343
1115.0,-2.228,-4.51,6.6,4.97,-3.382,-1.343
1119.0,-2.439,-4.321,6.6,4.995,-3.279,-1.348
1123.0,-2.439,-4.321,6.6,4.995,-3.279,-1.348
1127.0,-2.545,-3.827,5.626,4.995,-3.218,-1.346
1131.0,-2.545,-3.827,5.626,4.995,-3.218,-1.346
1135.0,-2.837,-3.453,4.822,4.995,-3.218,-1.346
1139.0,-2.837,-3.453,4.822,4.994,-3.148,-1.323
1143.0,-2.837,-3.453,4.822,4.994,-3.148,-1.323
1147.0,-2.994,-3.131,4.126,4.915,-3.155,-1.304
1151.0,-2.994,-3.131,4.126,4.915,-3.155,-1.304
1155.0,-3.021,-2.584,3.182,4.915,-3.155,-1.314
1159.0,-3.021,-2.584,3.182,4.675,-3.174,-1.314
1163.0,-3.021,-2.584,3.182,4.675,-3.174,-1.314
1167.0,-2.612,-1.766,2.261,4.375,-3.163,-1.356
1171.0,-2.612,-1.766,2.261,4.375,-3.163,-1.356
1175.0,-2.059,-0.944,1.539,4.375,-3.128,-1.411
1179.0,-2.059,-0.944,1.539,4.053,-3.128,-1.411
1183.0,-2.059,-0.944,1.539,4.053,-3.128,-1.411
1187.0,-1.606,-0.252,0.939,3.734,-3.088,-1.453
1191.0,-1.606,-0.252,0.939,3.734,-3.088,-1.453
1194.0,-1.274,0.383,0.423,3.42,-3.025,-1.483
1198.0,-1.274,0.383,0.423,3.42,-3.025,-1.483
1202.0,-1.274,0.383,0.423,3.42,-3.025,-1.483
1206.0,-0.903,1.013,0.01,3.123,-2.926,-1.508
1210.0,-0.903,1.013,0.01,3.123,-2.926,-1.508
1214.0,-0.675,1.804,-0.228,3.123,-2.806,-1.533
1218.0,-0.675,1.804,-0.228,2.858,-2.806,-1.533
1222.0,-0.675,1.804,-0.228,2.858,-2.806,-1.533
1226.0,-0.588,2.992,-0.394,2.626,-2.685,-1.551
1230.0,-0.588,2.992,-0.394,2.626,-2.685,-1.551
1234.0,-0.887,4.646,-0.306,2.435,-2.55,-1.56
1238.0,-0.887,4.646,-0.306,2.435,-2.55,-1.56
1242.0,-0.887,4.646,-0.306,2.435,-2.55,-1.56
1246.0,-1.459,6.639,-0.365,2.29,-2.424,-1.541
1250.0,-1.459,6.639,-0.365,2.29,-2.424,-1.541
1254.0,-1.893,9.541,-1.044,2.176,-2.297,-1.484
1258.0,-1.893,9.541,-1.044,2.176,-2.297,-1.484
1262.0,-1.893,9.541,-1.044,2.176,-2.297,-1.484
1266.0,-1.674,12.967,-2.569,2.086,-2.142,-1.338
1270.0,-1.674,12.967,-2.569,2.086,-2.142,-1.338
1274.0,-0.54,15.902,-4.035,1.991,-1.915,-1.092
1278.0,-0.54,15.902,-4.035,1.991,-1.915,-1.092
1282.0,-0.54,15.902,-3.858,1.991,-1.915,-1.092
1286.0,1.167,17.648,-3.858,1.883,-1.579,-0.779
1290.0,1.167,17.648,-3.858,1.883,-1.579,-0.779
1294.0,3.095,19.374,-7.306,1.883,-1.135,-0.36
1298.0,3.095,19.374,-7.306,1.883,-1.135,-0.36
1302.0,3.095,19.594,-6.114,1.883,-1.135,-0.36
1306.0,5.024,19.594,-6.114,1.736,-0.602,0.191
1310.0,5.024,19.594,-6.114,1.736,-0.602,0.191
1314.0,5.867,19.596,-6.154,1.767,-0.015,0.79
1318.0,5.867,19.596,-6.154,1.767,-0.015,0.79
1322.0,5.867,19.596,-5.505,1.767,-0.015,0.79
1326.0,5.946,19.596,-5.505,1.83,0.565,1.428
1330.0,5.946,19.596,-5.505,1.83,0.565,1.428
1333.0,5.307,19.596,-5.023,1.895,1.085,2.036
1337.0,5.307,19.596,-5.023,1.895,1.085,2.036
1341.0,5.307,19.596,-5.023,1.895,1.085,2.036
1345.0,5.159,19.596,-5.033,1.949,1.545,2.619
1349.0,5.159,19.596,-5.033,1.949,1.545,2.619
1353.0,6.267,19.596,-6.165,1.997,1.997,3.191
1356.0,6.267,19.596,-6.165,1.997,1.997,3.191
1360.0,6.267,19.596,-6.165,1.997,1.997,3.191
1364.0,8.225,19.596,-7.504,2.032,2.515,3.858
1368.0,8.225,19.596,-7.504,2.032,2.515,3.858
1372.0,9.595,19.596,-7.742,2.032,2.515,4.596
1375.0,9.595,19.596,-7.742,2.034,3.108,4.596
1379.0,9.595,19.596,-7.742,2.034,3.108,4.596
1383.0,9.227,19.596,-6.812,1.968,3.705,4.993
1387.0,9.227,19.596,-6.812,1.968,3.705,4.993
1391.0,9.227,19.596,-6.812,1.968,3.705,4.993
1395.0,7.513,19.499,-5.315,1.823,4.215,5.013
1398.0,7.513,19.499,-5.315,1.823,4.215,5.013
1402.0,5.074,17.87,-3.905,1.638,4.601,5.013
1406.0,5.074,17.87,-3.905,1.638,4.601,5.013
1410.0,5.074,17.87,-3.905,1.638,4.601,5.013
1414.0,1.996,15.371,-2.469,1.417,4.865,5.013
1418.0,1.996,15.371,-2.469,1.417,4.865,5.013
1421.0,-1.735,12.303,-1.262,1.417,4.977,5.013
1425.0,-1.735,12.303,-1.262,1.091,4.977,5.013
1429.0,-1.735,12.303,-1.262,1.091,4.977,5.013
1433.0,-6.263,9.166,-0.096,0.577,4.941,5.013
1437.0,-6.263,9.166,-0.096,0.577,4.941,5.013
1441.0,-11.815,5.824,1.78,0.577,4.941,5.013
1444.0,-11.815,5.824,1.78,-0.187,4.73,5.013
1448.0,-11.815,5.824,1.78,-0.187,4.73,5.013
1452.0,-17.975,2.412,3.672,-1.214,4.315,5.013
1456.0,-17.975,2.412,3.672,-1.214,4.315,5.013
1460.0,-17.975,-2.396,4.45,-1.214,4.315,5.013
1464.0,-19.6,-2.396,4.45,-2.361,3.566,5.013
1468.0,-19.6,-2.396,4.45,-2.361,3.566,5.013
1472.0,-19.6,-8.495,4.611,-3.312,2.433,4.97
1476.0,-19.6,-8.495,4.611,-3.312,2.433,4.97
1480.0,-19.567,-12.698,4.766,-3.312,2.433,4.97
1484.0,-19.567,-12.698,4.766,-3.85,1.225,4.04
1488.0,-19.567,-12.698,4.766,-3.85,1.225,4.04
1492.0,-14.904,-14.935,4.981,-4.018,0.269,2.279
1496.0,-14.904,-14.935,4.981,-4.018,0.269,2.279
1500.0,-8.391,-17.027,5.213,-3.866,-0.346,0.545
1505.0,-8.391,-17.027,5.213,-3.866,-0.346,0.545
1509.0,-8.391,-17.027,5.213,-3.866,-0.346,0.545
1513.0,-5.258,-18.431,4.923,-3.32,-0.715,-1.046
1517.0,-5.258,-18.431,4.923,-3.32,-0.715,-1.046
1521.0,-3.797,-18.302,4.409,-2.337,-0.876,-2.299
1525.0,-3.797,-18.302,4.409,-2.337,-0.876,-2.299
1529.0,-2.547,-17.807,3.759,-2.337,-0.876,-2.299
1534.0,-2.547,-17.807,3.759,-1.02,-0.86,-3.115
1538.0,-2.547,-17.807,3.759,-1.02,-0.86,-3.115
1542.0,-1.491,-16.064,3.208,0.441,-0.787,-3.609
1546.0,-1.491,-16.064,3.208,0.441,-0.787,-3.609
1550.0,-0.954,-13.119,2.38,1.753,-0.762,-3.949
1554.0,-0.954,-13.119,2.38,1.753,-0.762,-3.949
1558.0,-0.954,-13.119,2.38,1.753,-0.762,-3.949
1562.0,-0.715,-9.481,1.677,2.758,-0.803,-4.19
1566.0,-0.715,-9.481,1.677,2.758,-0.803,-4.19
1570.0,-0.245,-5.913,1.295,3.363,-0.909,-4.374
1574.0,-0.245,-5.913,1.295,3.363,-0.909,-4.374
1578.0,-0.245,-5.913,1.295,3.363,-0.909,-4.374
1582.0,0.403,-2.608,1.233,3.588,-1.062,-4.55
1586.0,0.403,-2.608,1.233,3.588,-1.062,-4.55
1590.0,1.05,0.514,1.452,3.528,-1.254,-4.713
1594.0,1.05,0.514,1.452,3.528,-1.254,-4.713
1598.0,1.05,0.514,1.452,3.528,-1.254,-4.713
1602.0,1.891,3.297,1.808,3.26,-1.481,-4.829
1605.0,1.891,3.297,1.808,3.26,-1.481,-4.829
1609.0,2.858,5.725,2.088,2.856,-1.719,-4.892
1613.0,2.858,5.725,2.088,2.856,-1.719,-4.892
1617.0,2.858,5.725,2.088,2.856,-1.719,-4.892
1621.0,3.864,8.018,2.11,2.375,-1.923,-4.896
1624.0,3.864,8.018,2.11,2.375,-1.923,-4.896
1628.0,4.772,9.726,1.737,2.375,-1.923,-4.896
1632.0,4.772,9.726,1.737,1.894,-2.097,-4.838
1636.0,4.772,9.726,1.737,1.894,-2.097,-4.838
1640.0,5.395,10.951,1.242,1.439,-2.257,-4.759
1644.0,5.395,10.951,1.242,1.439,-2.257,-4.759
1648.0,5.395,10.951,0.892,1.439,-2.257,-4.759
1651.0,5.572,12.452,0.892,0.999,-2.398,-4.651
1655.0,5.572,12.452,0.892,0.999,-2.398,-4.651
1659.0,5.444,14.085,0.485,0.622,-2.546,-4.459
1663.0,5.444,14.085,0.485,0.622,-2.546,-4.459
1667.0,5.444,14.085,0.485,0.622,-2.546,-4.459
1671.0,5.504,15.508,-0.138,0.325,-2.718,-4.19
1675.0,5.504,15.508,-0.138,0.325,-2.718,-4.19
1679.0,6.085,17.558,-1.047,0.064,-2.853,-3.893
1683.0,6.085,17.558,-1.047,0.064,-2.853,-3.893
1687.0,6.085,17.558,-2.509,0.064,-2.853,-3.893
1691.0,7.566,19.375,-2.509,-0.141,-2.911,-3.534
1695.0,7.566,19.375,-2.509,-0.141,-2.911,-3.534
1699.0,9.495,19.596,-3.211,-0.386,-2.888,-3.122
1703.0,9.495,19.596,-3.211,-0.386,-2.888,-3.122
1707.0,11.289,19.596,-4.887,-0.386,-2.888,-2.648
1711.0,11.289,19.596,-4.887,-0.532,-2.712,-2.648
1716.0,11.289,19.596,-4.887,-0.532,-2.712,-2.648
1720.0,13.467,19.596,-6.779,-0.561,-2.343,-2.051
1724.0,13.467,19.596,-6.779,-0.561,-2.343,-2.051
1728.0,14.905,19.596,-8.266,-0.444,-1.758,-1.343
1732.0,14.905,19.596,-8.266,-0.444,-1.758,-1.343
1736.0,14.905,19.596,-9.139,-0.444,-1.758,-1.343
1741.0,15.013,19.596,-9.139,-0.127,-1.033,-0.512
1745.0,15.013,19.596,-9.139,-0.127,-1.033,-0.512
1749.0,13.942,19.596,-9.075,0.34,-0.234,0.358
1753.0,13.942,19.596,-9.075,0.34,-0.234,0.358
1757.0,12.753,19.596,-8.769,0.34,0.563,1.215
1761.0,12.753,19.596,-8.769,0.871,0.563,1.215
1765.0,12.753,19.596,-8.769,0.871,0.563,1.215
1769.0,11.996,19.596,-8.528,1.362,1.34,2.055
1773.0,11.996,19.596,-8.528,1.362,1.34,2.055
1776.0,11.74,19.596,-8.629,1.362,1.34,2.87
1780.0,11.74,19.596,-8.629,1.715,2.087,2.87
1784.0,11.74,19.596,-8.629,1.715,2.087,2.87
1788.0,11.763,19.596,-8.998,1.893,2.807,3.647
1792.0,11.763,19.596,-8.998,1.893,2.807,3.647
1796.0,11.569,19.596,-9.125,1.893,2.807,3.647
1800.0,11.569,19.596,-9.125,1.85,3.502,4.403
1804.0,11.569,19.596,-9.125,1.85,3.502,4.403
1808.0,11.073,19.596,-9.3,1.576,4.152,4.945
1812.0,11.073,19.596,-9.3,1.576,4.152,4.945
1816.0,11.073,19.596,-8.79,1.576,4.152,4.945
1819.0,9.951,19.596,-8.79,1.124,4.754,5.013
1823.0,9.951,19.596,-8.79,1.124,4.754,5.013
1827.0,7.837,19.596,-7.399,0.554,5.01,5.013
1831.0,7.837,19.596,-7.399,0.554,5.01,5.013
1835.0,7.837,19.596,-7.399,0.554,5.01,5.013
1839.0,4.474,19.546,-5.615,-0.056,5.015,5.013
1842.0,4.474,19.546,-5.615,-0.056,5.015,5.013
1846.0,0.164,17.157,-3.541,-0.648,5.015,5.013
1850.0,0.164,17.157,-3.541,-0.648,5.015,5.013
1854.0,0.164,17.157,-3.541,-0.648,5.015,5.013
1858.0,-4.888,12.907,-0.983,-1.205,5.015,5.013
1862.0,-4.888,12.907,-0.983,-1.205,5.015,5.013
1866.0,-11.082,9.043,1.379,-1.75,5.015,5.013
1870.0,-11.082,9.043,1.379,-1.75,5.015,5.013
1874.0,-11.082,9.043,1.379,-1.75,5.015,5.013
1878.0,-18.299,7.051,2.352,-2.363,5.015,5.013
1882.0,-18.299,7.051,2.352,-2.363,5.015,5.013
1886.0,-19.6,4.747,2.694,-3.086,5.014,5.013
1889.0,-19.6,4.747,2.694,-3.086,5.014,5.013
1893.0,-19.6,4.747,2.694,-3.086,5.014,5.013
1897.0,-19.6,0.036,3.021,-3.741,4.616,5.013
1901.0,-19.6,0.036,3.021,-3.741,4.616,5.013
1905.0,-19.6,-5.0,2.033,-4.116,3.158,5.013
1909.0,-19.6,-5.0,2.033,-4.116,3.158,5.013
1913.0,-19.6,-5.0,2.033,-4.116,3.158,5.013
1917.0,-19.338,-8.164,0.852,-4.293,1.677,5.013
1921.0,-19.338,-8.164,0.852,-4.293,1.677,5.013
1925.0,-10.479,-10.245,1.263,-4.514,0.802,4.886
1929.0,-10.479,-10.245,1.263,-4.514,0.802,4.886
1933.0,-10.479,-10.245,1.263,-4.514,0.802,4.886
1937.0,-0.537,-10.283,2.694,-4.788,0.281,3.593
1941.0,-0.537,-10.283,2.694,-4.788,0.281,3.593
1945.0,4.947,-9.481,3.519,-4.982,-0.199,1.796
1949.0,4.947,-9.481,3.519,-4.982,-0.199,1.796
1953.0,4.947,-9.481,3.519,-4.982,-0.199,1.796
1957.0,7.488,-10.116,2.384,-4.981,-0.617,0.34
1961.0,7.488,-10.116,2.384,-4.981,-0.617,0.34
1965.0,7.217,-11.483,1.277,-4.682,-0.772,-0.705
1969.0,7.217,-11.483,1.277,-4.682,-0.772,-0.705
1973.0,7.217,-11.483,1.013,-4.682,-0.772,-0.705
1977.0,5.568,-12.063,1.013,-4.014,-0.724,-1.313
1981.0,5.568,-12.063,1.013,-4.014,-0.724,-1.313
1985.0,4.835,-11.827,1.251,-3.022,-0.64,-1.562
1989.0,4.835,-11.827,1.251,-3.022,-0.64,-1.562
1994.0,6.148,-9.995,1.536,-3.022,-0.64,-1.583
1998.0,6.148,-9.995,1.536,-1.827,-0.542,-1.583
2002.0,6.148,-9.995,1.536,-1.827,-0.542,-1.583
2006.0,8.348,-7.6,2.213,-0.64,-0.355,-1.409
2010.0,8.348,-7.6,2.213,-0.64,-0.355,-1.409
2014.0,10.131,-6.13,3.236,-0.64,-0.103,-1.081
2018.0,10.131,-6.13,3.236,0.406,-0.103,-1.081
2022.0,10.131,-6.13,3.236,0.406,-0.103,-1.081
2026.0,11.148,-5.108,3.892,1.279,0.12,-0.718
2029.0,11.148,-5.108,3.892,1.279,0.12,-0.718
2033.0,11.557,-3.723,4.122,1.968,0.289,-0.441
2037.0,11.557,-3.723,4.122,1.968,0.289,-0.441
2041.0,11.557,-3.723,4.122,1.968,0.289,-0.441
2045.0,11.474,-2.112,4.225,2.435,0.402,-0.277
2049.0,11.474,-2.112,4.225,2.435,0.402,-0.277
2053.0,11.205,-0.342,4.223,2.435,0.438,-0.202
2057.0,11.205,-0.342,4.223,2.662,0.438,-0.202
2061.0,11.205,-0.342,4.223,2.662,0.438,-0.202
2065.0,10.644,1.427,3.977,2.648,0.448,-0.191
2068.0,10.644,1.427,3.977,2.648,0.448,-0.191
2072.0,10.108,2.682,3.613,2.648,0.448,-0.191
2076.0,10.108,2.682,3.613,2.404,0.451,-0.204
2080.0,10.108,2.682,3.613,2.404,0.451,-0.204
2084.0,9.678,3.29,3.483,1.97,0.441,-0.241
2087.0,9.678,3.29,3.483,1.97,0.441,-0.241
2091.0,9.678,3.29,3.483,1.97,0.441,-0.241
2095.0,9.431,3.231,3.684,1.404,0.406,-0.29
2099.0,9.431,3.231,3.684,1.404,0.406,-0.29
2102.0,9.149,3.037,4.179,1.404,0.372,-0.341
2106.0,9.149,3.037,4.179,0.798,0.372,-0.341
2110.0,9.149,3.037,4.179,0.798,0.372,-0.341
2114.0,8.506,2.797,4.82,0.246,0.356,-0.366
2117.0,8.506,2.797,4.82,0.246,0.356,-0.366
2121.0,8.506,2.797,4.82,0.246,0.356,-0.366
2125.0,7.816,2.327,5.151,-0.198,0.339,-0.361
2129.0,7.816,2.327,5.151,-0.198,0.339,-0.361
2132.0,7.46,1.823,5.288,-0.513,0.313,-0.36
2136.0,7.46,1.823,5.288,-0.513,0.313,-0.36
2140.0,7.46,1.823,5.288,-0.513,0.313,-0.36
2144.0,7.451,1.231,5.349,-0.694,0.28,-0.375
2148.0,7.451,1.231,5.349,-0.694,0.28,-0.375
2152.0,7.546,0.794,5.21,-0.694,0.28,-0.406
2155.0,7.546,0.794,5.21,-0.75,0.243,-0.406
2159.0,7.546,0.794,5.21,-0.75,0.243,-0.406
2163.0,7.701,0.525,5.121,-0.692,0.219,-0.439
2167.0,7.701,0.525,5.121,-0.692,0.219,-0.439
2171.0,7.701,0.525,5.145,-0.692,0.219,-0.439
2174.0,7.653,0.27,5.145,-0.541,0.212,-0.453
2178.0,7.653,0.27,5.145,-0.541,0.212,-0.453
2182.0,7.604,0.105,4.955,-0.33,0.208,-0.436
2186.0,7.604,0.105,4.955,-0.33,0.208,-0.436
2190.0,7.604,0.105,4.955,-0.33,0.208,-0.436
2194.0,7.688,0.006,4.711,-0.085,0.215,-0.395
2197.0,7.688,0.006,4.711,-0.085,0.215,-0.395
2201.0,7.842,0.003,4.566,0.163,0.226,-0.35
2205.0,7.842,0.003,4.566,0.163,0.226,-0.35
2209.0,7.842,0.003,4.566,0.163,0.226,-0.35
2212.0,7.997,0.275,4.379,0.376,0.234,-0.307
2216.0,7.997,0.275,4.379,0.376,0.234,-0.307
2220.0,7.997,0.275,4.379,0.376,0.234,-0.307
2224.0,8.17,0.805,4.189,0.524,0.246,-0.262
2227.0,8.17,0.805,4.189,0.524,0.246,-0.262
2231.0,8.486,1.198,4.038,0.58,0.26,-0.214
2235.0,8.486,1.198,4.038,0.58,0.26,-0.214
2238.0,8.486,1.198,4.038,0.58,0.26,-0.214
2242.0,8.786,1.64,3.883,0.535,0.286,-0.19
2246.0,8.786,1.64,3.883,0.535,0.286,-0.19
2250.0,8.786,1.995,3.84,0.535,0.286,-0.19
2253.0,8.895,1.995,3.84,0.405,0.331,-0.19
2257.0,8.895,1.995,3.84,0.405,0.331,-0.19
2261.0,8.776,2.137,3.897,0.217,0.384,-0.2
2265.0,8.776,2.137,3.897,0.217,0.384,-0.2
2268.0,8.776,2.137,3.897,0.217,0.384,-0.2
2272.0,8.548,2.084,3.884,0.005,0.437,-0.218
2276.0,8.548,2.084,3.884,0.005,0.437,-0.218
2280.0,8.219,1.865,3.988,0.005,0.437,-0.218
2283.0,8.219,1.865,3.988,-0.194,0.489,-0.248
2287.0,8.219,1.865,3.988,-0.194,0.489,-0.248
2291.0,7.742,1.581,4.107,-0.355,0.523,-0.292
2295.0,7.742,1.581,4.107,-0.355,0.523,-0.292
2299.0,7.742,1.581,4.107,-0.355,0.523,-0.292
2302.0,7.291,1.263,4.104,-0.463,0.532,-0.342
2306.0,7.291,1.263,4.104,-0.463,0.532,-0.342
2310.0,7.076,0.919,4.014,-0.513,0.519,-0.399
2314.0,7.076,0.919,4.014,-0.513,0.519,-0.399
2318.0,7.076,0.919,4.014,-0.513,0.519,-0.399
2321.0,6.903,0.644,3.854,-0.511,0.495,-0.484
2325.0,6.903,0.644,3.854,-0.511,0.495,-0.484
2329.0,6.665,0.282,3.508,-0.511,0.495,-0.597
2333.0,6.665,0.282,3.508,-0.47,0.469,-0.597
2337.0,6.665,0.282,3.508,-0.47,0.469,-0.597
2341.0,6.36,0.022,3.102,-0.407,0.452,-0.749
2344.0,6.36,0.022,3.102,-0.407,0.452,-0.749
2348.0,6.36,0.022,2.737,-0.407,0.452,-0.749
2352.0,6.013,-0.004,2.737,-0.338,0.447,-0.928
2356.0,6.013,-0.004,2.737,-0.338,0.447,-0.928
2360.0,5.788,-0.054,2.485,-0.265,0.445,-1.104
2364.0,5.788,-0.054,2.485,-0.265,0.445,-1.104
2368.0,5.788,-0.054,2.485,-0.265,0.445,-1.104
2372.0,5.754,-0.119,2.176,-0.187,0.456,-1.285
2375.0,5.754,-0.119,2.176,-0.187,0.456,-1.285
2379.0,5.755,-0.199,1.888,-0.109,0.5,-1.466
2383.0,5.755,-0.199,1.888,-0.109,0.5,-1.466
2387.0,5.755,-0.199,1.888,-0.109,0.5,-1.466
2391.0,5.714,-0.29,1.671,-0.036,0.571,-1.63
2395.0,5.714,-0.29,1.671,-0.036,0.571,-1.63
2399.0,5.627,-0.258,1.553,0.038,0.662,-1.775
2403.0,5.627,-0.258,1.553,0.038,0.662,-1.775
2407.0,5.627,-0.258,1.553,0.038,0.662,-1.775
2410.0,5.515,-0.242,1.454,0.124,0.766,-1.884
2414.0,5.515,-0.242,1.454,0.124,0.766,-1.884
2418.0,5.351,-0.269,1.412,0.124,0.766,-1.967
2422.0,5.351,-0.269,1.412,0.222,0.883,-1.967
2426.0,5.351,-0.269,1.412,0.222,0.883,-1.967
2429.0,5.059,-0.3,1.426,0.336,1.005,-2.052
2433.0,5.059,-0.3,1.426,0.336,1.005,-2.052
2437.0,5.059,-0.3,1.37,0.336,1.005,-2.052
2441.0,4.663,-0.291,1.37,0.461,1.126,-2.154
2445.0,4.663,-0.291,1.37,0.461,1.126,-2.154
2449.0,4.272,-0.258,1.25,0.59,1.242,-2.273
2452.0,4.272,-0.258,1.25,0.59,1.242,-2.273
2456.0,4.272,-0.258,1.25,0.59,1.242,-2.273
2460.0,4.017,-0.2,1.167,0.712,1.36,-2.401
2464.0,4.017,-0.2,1.167,0.712,1.36,-2.401
2468.0,3.84,-0.081,1.102,0.816,1.468,-2.538
2471.0,3.84,-0.081,1.102,0.816,1.468,-2.538
2475.0,3.84,-0.081,1.102,0.816,1.468,-2.538
2479.0,3.567,0.079,0.923,0.884,1.57,-2.665
2483.0,3.567,0.079,0.923,0.884,1.57,-2.665
2487.0,3.567,0.213,0.788,0.884,1.57,-2.665
2490.0,3.346,0.213,0.788,0.904,1.692,-2.77
2494.0,3.346,0.213,0.788,0.904,1.692,-2.77
2498.0,3.012,0.407,1.135,0.899,1.878,-2.876
2502.0,3.012,0.407,1.135,0.899,1.878,-2.876
2505.0,3.012,0.407,1.135,0.899,1.878,-2.876
2509.0,2.648,0.477,1.667,0.901,2.059,-2.964
2513.0,2.648,0.477,1.667,0.901,2.059,-2.964
2516.0,2.289,0.403,1.973,0.901,2.059,-2.964
2520.0,2.289,0.403,1.973,0.926,2.192,-3.025
2524.0,2.289,0.403,1.973,0.926,2.192,-3.025
2528.0,1.755,0.248,2.017,0.965,2.295,-3.067
2531.0,1.755,0.248,2.017,0.965,2.295,-3.067
2535.0,1.755,0.248,2.017,0.965,2.295,-3.067
2539.0,1.114,0.004,1.771,1.004,2.381,-3.091
2543.0,1.114,0.004,1.771,1.004,2.381,-3.091
2546.0,0.446,-0.31,1.278,1.004,2.381,-3.101
2550.0,0.446,-0.31,1.278,1.018,2.464,-3.101
2554.0,0.446,-0.31,1.278,1.018,2.464,-3.101
2558.0,0.013,-0.708,0.727,0.995,2.574,-3.122
2562.0,0.013,-0.708,0.727,0.995,2.574,-3.122
2565.0,0.013,-0.708,0.543,0.995,2.574,-3.122
2569.0,-0.214,-1.101,0.543,0.943,2.768,-3.219
2573.0,-0.214,-1.101,0.543,0.943,2.768,-3.219
2577.0,-0.442,-1.327,0.811,0.89,3.048,-3.428
2581.0,-0.442,-1.327,0.811,0.89,3.048,-3.428
2585.0,-0.442,-1.327,0.811,0.89,3.048,-3.428
2589.0,-0.741,-1.429,1.303,0.855,3.348,-3.709
2593.0,-0.741,-1.429,1.303,0.855,3.348,-3.709
2597.0,-1.207,-1.361,1.697,0.837,3.629,-4.005
2600.0,-1.207,-1.361,1.697,0.837,3.629,-4.005
2604.0,-1.207,-1.361,1.697,0.837,3.629,-4.005
2608.0,-2.051,-1.122,1.838,0.816,3.881,-4.259
2612.0,-2.051,-1.122,1.838,0.816,3.881,-4.259
2616.0,-3.133,-0.852,1.871,0.767,4.099,-4.421
2620.0,-3.133,-0.852,1.871,0.767,4.099,-4.421
2624.0,-3.133,-0.852,1.871,0.767,4.099,-4.421
2628.0,-4.18,-0.668,2.005,0.683,4.285,-4.488
2632.0,-4.18,-0.668,2.005,0.683,4.285,-4.488
2636.0,-5.087,-0.598,2.307,0.578,4.463,-4.52
2640.0,-5.087,-0.598,2.307,0.578,4.463,-4.52
2643.0,-5.087,-0.598,2.307,0.578,4.463,-4.52
2647.0,-5.94,-0.589,2.828,0.465,4.63,-4.572
2651.0,-5.94,-0.589,2.828,0.465,4.63,-4.572
2655.0,-6.93,-0.534,3.386,0.358,4.76,-4.661
2659.0,-6.93,-0.534,3.386,0.358,4.76,-4.661
2663.0,-6.93,-0.534,3.386,0.358,4.76,-4.661
2667.0,-8.026,-0.517,3.603,0.262,4.842,-4.766
2671.0,-8.026,-0.517,3.603,0.262,4.842,-4.766
2675.0,-9.047,-0.608,3.413,0.262,4.891,-4.847
2679.0,-9.047,-0.608,3.413,0.168,4.891,-4.847
2683.0,-9.047,-0.608,3.413,0.168,4.891,-4.847
2686.0,-10.0,-0.818,3.165,0.056,4.958,-4.895
2690.0,-10.0,-0.818,3.165,0.056,4.958,-4.895
2694.0,-11.051,-1.156,3.085,0.056,4.958,-4.908
2698.0,-11.051,-1.156,3.085,-0.071,5.01,-4.908
2702.0,-11.051,-1.156,3.085,-0.071,5.01,-4.908
2707.0,-12.361,-1.46,3.231,-0.202,5.015,-4.906
2711.0,-12.361,-1.46,3.231,-0.202,5.015,-4.906
2715.0,-14.164,-1.442,3.428,-0.318,5.015,-4.895
2719.0,-14.164,-1.442,3.428,-0.318,5.015,-4.895
2723.0,-14.164,-1.442,3.428,-0.318,5.015,-4.895
2727.0,-16.341,-1.064,3.849,-0.393,5.015,-4.856
2731.0,-16.341,-1.064,3.849,-0.393,5.015,-4.856
2735.0,-18.349,-0.779,4.333,-0.429,5.015,-4.754
2739.0,-18.349,-0.779,4.333,-0.429,5.015,-4.754
2743.0,-18.349,-0.366,4.846,-0.429,5.015,-4.754
2747.0,-19.565,-0.366,4.846,-0.436,4.994,-4.598
2751.0,-19.565,-0.366,4.846,-0.436,4.994,-4.598
2756.0,-19.6,0.107,5.361,-0.423,4.754,-4.377
2760.0,-19.6,0.107,5.361,-0.423,4.754,-4.377
2763.0,-19.6,0.639,5.591,-0.423,4.754,-4.088
2767.0,-19.6,0.639,5.591,-0.415,4.314,-4.088
2771.0,-19.6,0.639,5.591,-0.415,4.314,-4.088
2775.0,-19.6,1.063,5.526,-0.44,3.829,-3.737
2779.0,-19.6,1.063,5.526,-0.44,3.829,-3.737
2783.0,-19.6,1.397,5.297,-0.529,3.368,-3.343
2787.0,-19.6,1.397,5.297,-0.529,3.368,-3.343
2791.0,-19.6,1.397,5.297,-0.529,3.368,-3.343
2795.0,-19.6,1.644,4.979,-0.699,2.998,-2.951
2799.0,-19.6,1.644,4.979,-0.699,2.998,-2.951
2803.0,-19.6,2.06,4.667,-0.933,2.759,-2.62
2807.0,-19.6,2.06,4.667,-0.933,2.759,-2.62
2811.0,-19.6,2.06,4.667,-0.933,2.759,-2.62
2815.0,-19.6,2.378,4.662,-1.212,2.612,-2.363
2819.0,-19.6,2.378,4.662,-1.212,2.612,-2.363
2823.0,-19.6,2.842,4.599,-1.505,2.506,-2.199
2827.0,-19.6,2.842,4.599,-1.505,2.506,-2.199
2831.0,-19.6,2.842,4.599,-1.505,2.506,-2.199
2835.0,-19.6,3.393,4.485,-1.808,2.42,-2.09
2839.0,-19.6,3.393,4.485,-1.808,2.42,-2.09
2843.0,-19.6,3.921,4.169,-2.148,2.345,-1.975
2847.0,-19.6,3.921,4.169,-2.148,2.345,-1.975
2851.0,-19.6,3.921,4.169,-2.148,2.345,-1.975
2855.0,-19.6,4.269,3.668,-2.556,2.319,-1.803
2859.0,-19.6,4.269,3.668,-2.556,2.319,-1.803
2863.0,-19.575,4.329,3.245,-3.044,2.388,-1.573
2867.0,-19.575,4.329,3.245,-3.044,2.388,-1.573
2871.0,-19.575,4.329,3.136,-3.044,2.388,-1.573
2875.0,-19.564,4.242,3.136,-3.602,2.556,-1.314
2879.0,-19.564,4.242,3.136,-3.602,2.556,-1.314
2883.0,-19.6,4.014,3.053,-4.2,2.795,-1.049
2887.0,-19.6,4.014,3.053,-4.2,2.795,-1.049
2891.0,-19.6,3.621,3.174,-4.2,2.795,-1.049
2895.0,-19.6,3.621,3.174,-4.782,3.061,-0.793
2899.0,-19.6,3.621,3.174,-4.782,3.061,-0.793
2903.0,-19.6,3.13,3.26,-5.009,3.292,-0.573
2907.0,-19.6,3.13,3.26,-5.009,3.292,-0.573
2911.0,-19.6,2.62,3.299,-5.009,3.292,-0.573
2915.0,-19.6,2.62,3.299,-5.013,3.449,-0.406
2919.0,-19.6,2.62,3.299,-5.013,3.449,-0.406
2923.0,-19.6,2.189,3.326,-5.013,3.529,-0.3
2927.0,-19.6,2.189,3.326,-5.013,3.529,-0.3
2931.0,-19.6,1.857,3.297,-5.013,3.529,-0.252
2935.0,-19.6,1.857,3.297,-5.013,3.551,-0.252
2939.0,-19.6,1.857,3.297,-5.013,3.551,-0.252
2943.0,-19.6,1.646,3.027,-5.013,3.538,-0.235
2947.0,-19.6,1.646,3.027,-5.013,3.538,-0.235
2951.0,-19.521,1.407,2.665,-5.013,3.507,-0.214
2955.0,-19.521,1.407,2.665,-5.013,3.507,-0.214
2959.0,-19.521,1.407,2.665,-5.013,3.507,-0.214
2963.0,-19.063,1.123,2.413,-5.013,3.468,-0.173
2967.0,-19.063,1.123,2.413,-5.013,3.468,-0.173
2971.0,-18.531,0.93,2.442,-5.013,3.418,-0.126
2975.0,-18.531,0.93,2.442,-5.013,3.418,-0.126
2979.0,-18.531,0.93,2.442,-5.013,3.418,-0.126
2983.0,-17.941,0.553,2.697,-5.013,3.336,-0.083
2987.0,-17.941,0.553,2.697,-5.013,3.336,-0.083
2991.0,-17.408,0.197,3.157,-5.013,3.213,-0.058
2995.0,-17.408,0.197,3.157,-5.013,3.213,-0.058
2999.0,-17.408,0.197,3.157,-5.013,3.213,-0.058
