deltaTime,Acc_X,Acc_Y,Acc_Z,Gyro_X,Gyro_Y,Gyro_Z
0.0,-3.124,-3.066,2.094,0.096,0.58,0.038
3.0,-3.124,-3.066,2.094,0.096,0.58,0.038
6.0,-3.223,-2.996,2.092,0.227,0.636,0.01
9.0,-3.223,-2.996,2.092,0.227,0.636,0.01
12.0,-3.223,-2.996,2.092,0.227,0.636,0.01
15.0,-3.592,-3.311,2.462,0.227,0.687,-0.022
18.0,-3.592,-3.311,2.462,0.351,0.687,-0.022
21.0,-3.592,-3.311,2.462,0.351,0.687,-0.022
24.0,-3.592,-3.311,2.859,0.351,0.687,-0.022
27.0,-4.205,-3.628,2.859,0.519,0.725,-0.044
30.0,-4.205,-3.628,2.859,0.519,0.725,-0.044
33.0,-4.205,-3.628,2.859,0.519,0.725,-0.044
36.0,-4.568,-3.723,3.106,0.736,0.73,-0.063
39.0,-4.568,-3.723,3.106,0.736,0.73,-0.063
43.0,-4.568,-3.723,3.106,0.736,0.73,-0.063
46.0,-4.589,-3.443,3.279,0.941,0.726,-0.095
50.0,-4.589,-3.443,3.279,0.941,0.726,-0.095
54.0,-4.843,-3.119,3.375,0.941,0.726,-0.139
58.0,-4.843,-3.119,3.375,1.074,0.753,-0.139
61.0,-4.843,-3.119,3.375,1.074,0.753,-0.139
65.0,-5.06,-2.777,3.424,1.144,0.746,-0.178
69.0,-5.06,-2.777,3.424,1.144,0.746,-0.178
73.0,-5.06,-2.777,3.424,1.144,0.746,-0.178
76.0,-5.188,-2.794,3.583,1.158,0.745,-0.197
80.0,-5.188,-2.794,3.583,1.158,0.745,-0.197
84.0,-5.592,-2.761,3.796,1.16,0.736,-0.204
88.0,-5.592,-2.761,3.796,1.16,0.736,-0.204
91.0,-5.592,-2.761,3.796,1.16,0.736,-0.204
95.0,-5.696,-2.651,3.997,1.154,0.683,-0.21
99.0,-5.696,-2.651,3.997,1.154,0.683,-0.21
102.0,-5.696,-2.651,3.997,1.154,0.683,-0.21
106.0,-5.637,-2.322,4.079,1.115,0.623,-0.201
110.0,-5.637,-2.322,4.079,1.115,0.623,-0.201
114.0,-5.655,-1.938,3.999,0.994,0.577,-0.178
118.0,-5.655,-1.938,3.999,0.994,0.577,-0.178
122.0,-5.655,-1.938,3.999,0.994,0.577,-0.178
125.0,-5.721,-1.722,3.986,0.775,0.551,-0.135
129.0,-5.721,-1.722,3.986,0.775,0.551,-0.135
133.0,-6.224,-1.62,4.182,0.775,0.56,-0.072
137.0,-6.224,-1.62,4.182,0.474,0.56,-0.072
141.0,-6.224,-1.62,4.182,0.474,0.56,-0.072
144.0,-7.009,-1.959,4.582,0.131,0.584,0.012
148.0,-7.009,-1.959,4.582,0.131,0.584,0.012
152.0,-7.009,-1.959,5.108,0.131,0.584,0.012
156.0,-7.948,-2.304,5.108,-0.186,0.625,0.118
159.0,-7.948,-2.304,5.108,-0.186,0.625,0.118
163.0,-9.053,-2.636,5.823,-0.469,0.677,0.239
167.0,-9.053,-2.636,5.823,-0.469,0.677,0.239
171.0,-9.053,-2.636,5.823,-0.469,0.677,0.239
175.0,-10.411,-3.098,6.435,-0.715,0.738,0.398
179.0,-10.411,-3.098,6.435,-0.715,0.738,0.398
183.0,-11.914,-3.528,6.987,-0.919,0.816,0.602
186.0,-11.914,-3.528,6.987,-0.919,0.816,0.602
190.0,-11.914,-3.528,6.987,-0.919,0.816,0.602
194.0,-13.402,-4.113,7.712,-1.101,0.914,0.835
198.0,-13.402,-4.113,7.712,-1.101,0.914,0.835
202.0,-14.721,-5.006,8.748,-1.101,1.003,1.089
206.0,-14.721,-5.006,8.748,-1.239,1.003,1.089
210.0,-14.721,-5.006,8.748,-1.239,1.003,1.089
214.0,-15.811,-6.051,9.946,-1.293,1.055,1.352
218.0,-15.811,-6.051,9.946,-1.293,1.055,1.352
222.0,-16.574,-6.872,11.0,-1.293,1.055,1.597
226.0,-16.574,-6.872,11.0,-1.26,1.058,1.597
230.0,-16.574,-6.872,11.0,-1.26,1.058,1.597
234.0,-17.031,-7.417,11.746,-1.166,1.005,1.791
238.0,-17.031,-7.417,11.746,-1.166,1.005,1.791
242.0,-17.039,-7.583,12.112,-1.166,0.891,1.92
246.0,-17.039,-7.583,12.112,-1.039,0.891,1.92
250.0,-17.039,-7.583,12.112,-1.039,0.891,1.92
254.0,-16.751,-7.619,12.057,-0.874,0.728,1.978
258.0,-16.751,-7.619,12.057,-0.874,0.728,1.978
262.0,-16.059,-7.576,11.525,-0.619,0.496,1.951
266.0,-16.059,-7.576,11.525,-0.619,0.496,1.951
270.0,-16.059,-7.576,11.525,-0.619,0.496,1.951
274.0,-14.589,-7.284,10.719,-0.235,0.196,1.821
278.0,-14.589,-7.284,10.719,-0.235,0.196,1.821
282.0,-12.738,-6.812,10.028,0.227,-0.054,1.656
286.0,-12.738,-6.812,10.028,0.227,-0.054,1.656
290.0,-12.738,-6.812,10.028,0.227,-0.054,1.656
294.0,-11.768,-5.975,9.175,0.699,-0.242,1.505
297.0,-11.768,-5.975,9.175,0.699,-0.242,1.505
301.0,-11.52,-4.595,8.183,1.072,-0.484,1.321
305.0,-11.52,-4.595,8.183,1.072,-0.484,1.321
309.0,-11.52,-4.595,8.183,1.072,-0.484,1.321
313.0,-11.305,-3.816,7.324,1.255,-0.763,1.093
317.0,-11.305,-3.816,7.324,1.255,-0.763,1.093
321.0,-11.085,-3.426,6.638,1.31,-0.988,0.908
325.0,-11.085,-3.426,6.638,1.31,-0.988,0.908
329.0,-11.085,-3.426,6.638,1.31,-0.988,0.908
333.0,-11.04,-3.271,6.413,1.272,-1.146,0.794
336.0,-11.04,-3.271,6.413,1.272,-1.146,0.794
340.0,-11.304,-3.41,6.666,1.272,-1.29,0.725
344.0,-11.304,-3.41,6.666,1.172,-1.29,0.725
348.0,-11.304,-3.41,6.666,1.172,-1.29,0.725
352.0,-11.998,-3.763,7.128,1.063,-1.469,0.663
356.0,-11.998,-3.763,7.128,1.063,-1.469,0.663
360.0,-13.166,-4.08,7.541,1.063,-1.469,0.6
364.0,-13.166,-4.08,7.541,0.989,-1.689,0.6
368.0,-13.166,-4.08,7.541,0.989,-1.689,0.6
372.0,-14.537,-4.434,7.858,0.978,-1.922,0.573
376.0,-14.537,-4.434,7.858,0.978,-1.922,0.573
379.0,-15.687,-4.479,8.133,0.978,-1.922,0.573
383.0,-15.687,-4.479,8.133,1.019,-2.136,0.626
387.0,-15.687,-4.479,8.133,1.019,-2.136,0.626
391.0,-16.246,-4.301,8.752,1.088,-2.305,0.765
395.0,-16.246,-4.301,8.752,1.088,-2.305,0.765
399.0,-16.246,-4.231,9.738,1.088,-2.305,0.765
403.0,-16.293,-4.231,9.738,1.178,-2.414,0.934
407.0,-16.293,-4.231,9.738,1.178,-2.414,0.934
411.0,-16.464,-4.094,11.144,1.294,-2.501,1.038
415.0,-16.464,-4.094,11.144,1.294,-2.501,1.038
419.0,-16.464,-3.473,12.485,1.294,-2.501,1.038
423.0,-17.235,-3.473,12.485,1.451,-2.643,1.052
427.0,-17.235,-3.473,12.485,1.451,-2.643,1.052
431.0,-17.84,-2.716,13.211,1.623,-2.889,1.05
435.0,-17.84,-2.716,13.211,1.623,-2.889,1.05
439.0,-17.653,-2.003,13.514,1.623,-2.889,1.05
443.0,-17.653,-2.003,13.514,1.76,-3.212,1.074
447.0,-17.653,-2.003,13.514,1.76,-3.212,1.074
451.0,-17.07,-1.619,13.324,1.837,-3.547,1.13
455.0,-17.07,-1.619,13.324,1.837,-3.547,1.13
459.0,-16.246,-1.523,12.723,1.837,-3.547,1.193
463.0,-16.246,-1.523,12.723,1.859,-3.852,1.193
467.0,-16.246,-1.523,12.723,1.859,-3.852,1.193
471.0,-14.995,-1.447,12.025,1.835,-4.107,1.235
475.0,-14.995,-1.447,12.025,1.835,-4.107,1.235
479.0,-13.859,-1.227,11.685,1.835,-4.308,1.238
483.0,-13.859,-1.227,11.685,1.773,-4.308,1.238
487.0,-13.859,-1.227,11.685,1.773,-4.308,1.238
491.0,-13.215,-1.18,11.62,1.685,-4.489,1.219
495.0,-13.215,-1.18,11.62,1.685,-4.489,1.219
499.0,-12.944,-1.474,11.586,1.597,-4.677,1.192
503.0,-12.944,-1.474,11.586,1.597,-4.677,1.192
507.0,-12.944,-1.474,11.586,1.597,-4.677,1.192
511.0,-12.635,-2.058,11.511,1.547,-4.868,1.16
515.0,-12.635,-2.058,11.511,1.547,-4.868,1.16
519.0,-12.106,-2.837,11.436,1.563,-4.983,1.111
522.0,-12.106,-2.837,11.436,1.563,-4.983,1.111
526.0,-12.106,-2.837,11.436,1.563,-4.983,1.111
530.0,-11.545,-3.796,11.165,1.648,-4.992,1.029
534.0,-11.545,-3.796,11.165,1.648,-4.992,1.029
538.0,-10.935,-4.601,10.751,1.791,-4.992,0.915
542.0,-10.935,-4.601,10.751,1.791,-4.992,0.915
546.0,-10.935,-4.601,10.751,1.791,-4.992,0.915
550.0,-10.098,-5.085,10.588,1.979,-4.992,0.791
554.0,-10.098,-5.085,10.588,1.979,-4.992,0.791
558.0,-9.37,-5.658,10.249,2.187,-4.992,0.671
562.0,-9.37,-5.658,10.249,2.187,-4.992,0.671
566.0,-9.37,-5.658,10.249,2.187,-4.992,0.671
570.0,-8.923,-6.057,9.68,2.4,-4.992,0.551
574.0,-8.923,-6.057,9.68,2.4,-4.992,0.551
578.0,-8.519,-6.509,9.034,2.597,-4.992,0.429
582.0,-8.519,-6.509,9.034,2.597,-4.992,0.429
585.0,-8.519,-6.509,9.034,2.597,-4.992,0.429
589.0,-8.13,-6.966,8.356,2.749,-4.992,0.276
593.0,-8.13,-6.966,8.356,2.749,-4.992,0.276
597.0,-7.766,-7.357,7.64,2.749,-4.992,0.074
601.0,-7.766,-7.357,7.64,2.853,-4.992,0.074
605.0,-7.766,-7.357,7.64,2.853,-4.992,0.074
608.0,-7.156,-7.65,6.843,2.911,-4.992,-0.171
612.0,-7.156,-7.65,6.843,2.911,-4.992,-0.171
616.0,-7.156,-8.057,5.982,2.911,-4.992,-0.171
620.0,-6.239,-8.057,5.982,2.978,-4.992,-0.461
624.0,-6.239,-8.057,5.982,2.978,-4.992,-0.461
628.0,-5.185,-8.433,5.095,3.048,-4.992,-0.807
632.0,-5.185,-8.433,5.095,3.048,-4.992,-0.807
636.0,-5.185,-8.433,4.545,3.048,-4.992,-0.807
640.0,-4.542,-8.745,4.545,3.103,-4.992,-1.225
644.0,-4.542,-8.745,4.545,3.103,-4.992,-1.225
647.0,-4.188,-8.643,3.842,3.151,-4.992,-1.701
651.0,-4.188,-8.643,3.842,3.151,-4.992,-1.701
655.0,-4.188,-8.643,3.842,3.151,-4.992,-1.701
659.0,-3.637,-8.236,3.11,3.2,-4.992,-2.181
663.0,-3.637,-8.236,3.11,3.2,-4.992,-2.181
667.0,-3.431,-8.504,2.43,3.287,-4.983,-2.625
671.0,-3.431,-8.504,2.43,3.287,-4.983,-2.625
675.0,-3.431,-8.504,2.43,3.287,-4.983,-2.625
679.0,-2.518,-8.32,1.583,3.497,-4.916,-3.002
683.0,-2.518,-8.32,1.583,3.497,-4.916,-3.002
686.0,-2.168,-7.79,0.842,3.784,-4.723,-3.3
690.0,-2.168,-7.79,0.842,3.784,-4.723,-3.3
694.0,-2.168,-7.79,0.842,3.784,-4.723,-3.3
698.0,-2.097,-6.733,-0.077,4.189,-4.529,-3.501
702.0,-2.097,-6.733,-0.077,4.189,-4.529,-3.501
706.0,-1.933,-5.163,-1.308,4.672,-4.378,-3.6
710.0,-1.933,-5.163,-1.308,4.672,-4.378,-3.6
714.0,-1.933,-5.163,-1.308,4.672,-4.378,-3.6
718.0,-1.961,-2.879,-2.84,4.974,-4.236,-3.606
722.0,-1.961,-2.879,-2.84,4.974,-4.236,-3.606
726.0,-2.124,0.246,-4.669,4.995,-4.053,-3.529
730.0,-2.124,0.246,-4.669,4.995,-4.053,-3.529
734.0,-2.124,0.246,-4.669,4.995,-4.053,-3.529
738.0,-1.516,3.653,-6.394,4.995,-3.814,-3.336
742.0,-1.516,3.653,-6.394,4.995,-3.814,-3.336
746.0,-0.603,6.945,-7.568,4.995,-3.483,-3.079
750.0,-0.603,6.945,-7.568,4.995,-3.483,-3.079
753.0,-0.603,6.945,-7.568,4.995,-3.483,-3.079
757.0,0.134,10.22,-8.174,4.995,-3.071,-2.766
761.0,0.134,10.22,-8.174,4.995,-3.071,-2.766
765.0,0.34,12.924,-8.45,4.995,-2.573,-2.36
769.0,0.34,12.924,-8.45,4.995,-2.573,-2.36
773.0,0.34,12.924,-8.45,4.995,-2.573,-2.36
777.0,-0.179,14.875,-8.012,4.995,-2.002,-1.909
781.0,-0.179,14.875,-8.012,4.995,-2.002,-1.909
785.0,-0.394,16.606,-7.653,4.995,-1.43,-1.448
789.0,-0.394,16.606,-7.653,4.995,-1.43,-1.448
793.0,-0.394,16.606,-7.653,4.995,-1.43,-1.448
797.0,0.185,18.281,-7.997,4.981,-0.835,-0.94
801.0,0.185,18.281,-7.997,4.981,-0.835,-0.94
805.0,0.821,19.242,-8.209,4.914,-0.159,-0.406
809.0,0.821,19.242,-8.209,4.914,-0.159,-0.406
813.0,0.821,19.242,-8.209,4.914,-0.159,-0.406
816.0,1.369,19.594,-8.838,4.816,0.594,0.093
820.0,1.369,19.594,-8.838,4.816,0.594,0.093
824.0,2.054,19.596,-9.285,4.816,0.594,0.557
828.0,2.054,19.596,-9.285,4.695,1.416,0.557
831.0,2.054,19.596,-9.285,4.695,1.416,0.557
835.0,2.859,19.596,-9.608,4.537,2.256,0.984
839.0,2.859,19.596,-9.608,4.537,2.256,0.984
843.0,2.859,19.596,-9.608,4.537,2.256,0.984
846.0,3.706,19.596,-9.331,4.328,3.092,1.396
850.0,3.706,19.596,-9.331,4.328,3.092,1.396
854.0,3.719,19.596,-7.704,4.061,3.875,1.794
857.0,3.719,19.596,-7.704,4.061,3.875,1.794
861.0,3.719,19.596,-7.704,4.061,3.875,1.794
865.0,2.704,19.596,-5.822,3.788,4.504,2.169
869.0,2.704,19.596,-5.822,3.788,4.504,2.169
872.0,2.704,19.596,-5.822,3.788,4.504,2.169
876.0,1.012,19.596,-4.369,3.59,4.928,2.542
880.0,1.012,19.596,-4.369,3.59,4.928,2.542
884.0,-1.03,19.028,-3.095,3.499,5.015,2.9
887.0,-1.03,19.028,-3.095,3.499,5.015,2.9
891.0,-1.03,19.028,-3.095,3.499,5.015,2.9
895.0,-3.301,16.962,-1.286,3.486,5.015,3.218
899.0,-3.301,16.962,-1.286,3.486,5.015,3.218
903.0,-5.463,15.225,0.068,3.486,5.015,3.502
906.0,-5.463,15.225,0.068,3.468,5.015,3.502
910.0,-5.463,15.225,0.068,3.468,5.015,3.502
914.0,-7.23,14.24,1.214,3.364,5.015,3.731
918.0,-7.23,14.24,1.214,3.364,5.015,3.731
921.0,-7.23,14.24,1.214,3.364,5.015,3.731
925.0,-8.808,13.909,2.672,3.135,5.015,3.877
929.0,-8.808,13.909,2.672,3.135,5.015,3.877
933.0,-10.222,13.792,3.679,3.135,5.004,3.993
936.0,-10.222,13.792,3.679,2.767,5.004,3.993
940.0,-10.222,13.792,3.679,2.767,5.004,3.993
944.0,-11.531,12.754,4.847,2.198,4.727,4.215
948.0,-11.531,12.754,4.847,2.198,4.727,4.215
952.0,-11.531,10.764,6.292,2.198,4.727,4.215
955.0,-12.866,10.764,6.292,1.384,4.039,4.536
959.0,-12.866,10.764,6.292,1.384,4.039,4.536
963.0,-12.945,8.865,6.483,0.341,3.163,4.764
967.0,-12.945,8.865,6.483,0.341,3.163,4.764
971.0,-12.945,8.865,6.483,0.341,3.163,4.764
974.0,-11.859,7.312,5.923,-0.878,2.329,4.788
978.0,-11.859,7.312,5.923,-0.878,2.329,4.788
982.0,-10.815,5.368,5.69,-0.878,1.534,4.648
986.0,-10.815,5.368,5.69,-2.253,1.534,4.648
990.0,-10.815,5.368,5.69,-2.253,1.534,4.648
993.0,-10.186,2.53,5.175,-3.684,0.679,4.294
997.0,-10.186,2.53,5.175,-3.684,0.679,4.294
1001.0,-10.186,-0.763,4.165,-3.684,0.679,4.294
1005.0,-9.449,-0.763,4.165,-4.803,-0.178,3.691
1009.0,-9.449,-0.763,4.165,-4.803,-0.178,3.691
1013.0,-7.884,-4.215,3.263,-5.013,-0.975,2.905
1017.0,-7.884,-4.215,3.263,-5.013,-0.975,2.905
1021.0,-5.459,-8.133,2.626,-5.013,-0.975,2.905
1025.0,-5.459,-8.133,2.626,-5.013,-1.689,1.979
1029.0,-5.459,-8.133,2.626,-5.013,-1.689,1.979
1033.0,-2.767,-11.794,2.346,-5.013,-2.271,0.953
1037.0,-2.767,-11.794,2.346,-5.013,-2.271,0.953
1041.0,-0.38,-13.789,2.045,-5.013,-2.652,-0.036
1045.0,-0.38,-13.789,2.045,-5.013,-2.652,-0.036
1049.0,-0.38,-13.789,2.045,-5.013,-2.652,-0.036
1054.0,1.295,-14.258,1.96,-4.737,-2.809,-0.857
1058.0,1.295,-14.258,1.96,-4.737,-2.809,-0.857
1062.0,2.136,-13.589,2.06,-3.509,-2.812,-1.484
1066.0,2.136,-13.589,2.06,-3.509,-2.812,-1.484
1070.0,2.136,-13.589,2.153,-3.509,-2.812,-1.484
1074.0,2.265,-12.191,2.153,-2.061,-2.761,-1.949
1078.0,2.265,-12.191,2.153,-2.061,-2.761,-1.949
1082.0,1.893,-10.289,2.066,-0.74,-2.723,-2.294
1086.0,1.893,-10.289,2.066,-0.74,-2.723,-2.294
1090.0,1.418,-7.83,1.539,-0.74,-2.723,-2.562
1094.0,1.418,-7.83,1.539,0.334,-2.703,-2.562
1098.0,1.418,-7.83,1.539,0.334,-2.703,-2.562
1102.0,1.159,-5.125,1.069,1.112,-2.692,-2.78
1106.0,1.159,-5.125,1.069,1.112,-2.692,-2.78
1110.0,1.236,-2.343,0.538,1.112,-2.692,-2.977
1114.0,1.236,-2.343,0.538,1.595,-2.704,-2.977
1118.0,1.236,-2.343,0.538,1.595,-2.704,-2.977
1122.0,1.777,0.722,-0.421,1.798,-2.707,-3.158
1126.0,1.777,0.722,-0.421,1.798,-2.707,-3.158
1130.0,2.647,3.695,-1.576,1.798,-2.707,-3.158
1133.0,2.647,3.695,-1.576,1.773,-2.662,-3.302
1137.0,2.647,3.695,-1.576,1.773,-2.662,-3.302
1141.0,3.914,6.05,-2.182,1.555,-2.575,-3.416
1145.0,3.914,6.05,-2.182,1.555,-2.575,-3.416
1149.0,3.914,6.05,-2.24,1.555,-2.575,-3.416
1153.0,4.467,7.269,-2.24,1.148,-2.4,-3.515
1157.0,4.467,7.269,-2.24,1.148,-2.4,-3.515
1161.0,5.005,8.227,-1.557,0.677,-2.33,-3.656
1165.0,5.005,8.227,-1.557,0.677,-2.33,-3.656
1169.0,5.005,8.227,-1.557,0.677,-2.33,-3.656
1172.0,4.788,9.492,-1.312,0.179,-2.239,-3.819
1176.0,4.788,9.492,-1.312,0.179,-2.239,-3.819
1180.0,4.152,10.461,-1.021,-0.272,-2.144,-3.906
1184.0,4.152,10.461,-1.021,-0.272,-2.144,-3.906
1188.0,4.152,10.461,-0.906,-0.272,-2.144,-3.906
1193.0,3.587,10.894,-0.906,-0.657,-2.083,-3.911
1197.0,3.587,10.894,-0.906,-0.657,-2.083,-3.911
1201.0,3.294,11.042,-0.934,-0.973,-2.053,-3.894
1205.0,3.294,11.042,-0.934,-0.973,-2.053,-3.894
1209.0,3.343,11.557,-1.067,-0.973,-2.036,-3.877
1213.0,3.343,11.557,-1.067,-1.214,-2.036,-3.877
1217.0,3.343,11.557,-1.067,-1.214,-2.036,-3.877
1221.0,3.661,12.318,-1.185,-1.355,-2.003,-3.821
1225.0,3.661,12.318,-1.185,-1.355,-2.003,-3.821
1229.0,4.236,13.129,-1.457,-1.371,-1.944,-3.706
1233.0,4.236,13.129,-1.457,-1.371,-1.944,-3.706
1237.0,4.236,13.129,-1.457,-1.371,-1.944,-3.706
1242.0,4.954,13.75,-1.901,-1.27,-1.861,-3.541
1246.0,4.954,13.75,-1.901,-1.27,-1.861,-3.541
1250.0,5.832,14.741,-3.042,-1.089,-1.736,-3.357
1254.0,5.832,14.741,-3.042,-1.089,-1.736,-3.357
1258.0,6.422,16.093,-4.012,-1.089,-1.736,-3.357
1262.0,6.422,16.093,-4.012,-0.842,-1.522,-3.128
1266.0,6.422,16.093,-4.012,-0.842,-1.522,-3.128
1270.0,6.571,17.284,-4.413,-0.553,-1.269,-2.83
1274.0,6.571,17.284,-4.413,-0.553,-1.269,-2.83
1278.0,6.133,18.196,-4.237,-0.252,-1.004,-2.499
1282.0,6.133,18.196,-4.237,-0.252,-1.004,-2.499
1286.0,6.133,18.196,-4.237,-0.252,-1.004,-2.499
1290.0,5.009,19.028,-3.933,0.051,-0.756,-2.186
1294.0,5.009,19.028,-3.933,0.051,-0.756,-2.186
1298.0,3.845,19.588,-3.77,0.312,-0.544,-1.865
1302.0,3.845,19.588,-3.77,0.312,-0.544,-1.865
1306.0,3.845,19.588,-3.77,0.312,-0.544,-1.865
1310.0,3.508,19.596,-4.046,0.505,-0.365,-1.509
1314.0,3.508,19.596,-4.046,0.505,-0.365,-1.509
1318.0,4.242,19.596,-4.342,0.649,-0.185,-1.098
1322.0,4.242,19.596,-4.342,0.649,-0.185,-1.098
1326.0,4.242,19.596,-4.342,0.649,-0.185,-1.098
1330.0,5.178,19.596,-4.544,0.772,0.011,-0.64
1334.0,5.178,19.596,-4.544,0.772,0.011,-0.64
1338.0,5.968,19.596,-5.374,0.908,0.241,-0.142
1342.0,5.968,19.596,-5.374,0.908,0.241,-0.142
1346.0,5.968,19.596,-5.374,0.908,0.241,-0.142
1350.0,6.572,19.596,-6.093,1.082,0.538,0.373
1354.0,6.572,19.596,-6.093,1.082,0.538,0.373
1358.0,7.25,19.596,-6.97,1.298,0.882,0.848
1361.0,7.25,19.596,-6.97,1.298,0.882,0.848
1365.0,7.25,19.596,-6.97,1.298,0.882,0.848
1369.0,8.273,19.596,-8.67,1.561,1.288,1.286
1373.0,8.273,19.596,-8.67,1.561,1.288,1.286
1377.0,9.501,19.596,-10.802,1.561,1.288,1.704
1381.0,9.501,19.596,-10.802,1.87,1.815,1.704
1384.0,9.501,19.596,-10.802,1.87,1.815,1.704
1388.0,10.875,19.596,-13.272,2.188,2.49,2.103
1392.0,10.875,19.596,-13.272,2.188,2.49,2.103
1396.0,12.072,19.596,-15.048,2.188,2.49,2.504
1400.0,12.072,19.596,-15.048,2.461,3.323,2.504
1404.0,12.072,19.596,-15.048,2.461,3.323,2.504
1408.0,12.422,19.596,-14.569,2.632,4.229,2.916
1412.0,12.422,19.596,-14.569,2.632,4.229,2.916
1416.0,11.53,19.596,-12.674,2.632,4.907,3.332
1420.0,11.53,19.596,-12.674,2.67,4.907,3.332
1424.0,11.53,19.596,-12.674,2.67,4.907,3.332
1428.0,9.527,19.596,-10.694,2.585,5.015,3.759
1432.0,9.527,19.596,-10.694,2.585,5.015,3.759
1436.0,7.235,19.596,-9.049,2.381,5.015,4.175
1440.0,7.235,19.596,-9.049,2.381,5.015,4.175
1444.0,7.235,19.596,-9.049,2.381,5.015,4.175
1448.0,4.637,19.596,-7.569,2.123,5.015,4.56
1451.0,4.637,19.596,-7.569,2.123,5.015,4.56
1455.0,1.816,19.146,-6.411,2.123,5.015,4.56
1459.0,1.816,19.146,-6.411,1.818,5.015,4.923
1463.0,1.816,19.146,-6.411,1.818,5.015,4.923
1467.0,-1.367,16.834,-4.686,1.383,5.015,5.013
1471.0,-1.367,16.834,-4.686,1.383,5.015,5.013
1474.0,-1.367,16.834,-4.686,1.383,5.015,5.013
1478.0,-6.067,15.651,-3.218,0.788,5.015,5.013
1482.0,-6.067,15.651,-3.218,0.788,5.015,5.013
1486.0,-11.91,14.822,-2.183,-0.033,5.015,5.013
1490.0,-11.91,14.822,-2.183,-0.033,5.015,5.013
1494.0,-11.91,14.822,-0.583,-0.033,5.015,5.013
1498.0,-18.998,13.918,-0.583,-1.166,5.015,5.013
1503.0,-18.998,13.918,-0.583,-1.166,5.015,5.013
1507.0,-19.6,11.335,0.655,-2.606,5.015,5.013
1511.0,-19.6,11.335,0.655,-2.606,5.015,5.013
1515.0,-19.6,6.272,2.225,-2.606,5.015,5.013
1518.0,-19.6,6.272,2.225,-4.09,5.015,5.013
1522.0,-19.6,6.272,2.225,-4.09,5.015,5.013
1526.0,-19.6,1.548,1.945,-4.946,4.727,5.013
1530.0,-19.6,1.548,1.945,-4.946,4.727,5.013
1534.0,-19.6,-1.638,-0.177,-4.946,4.727,5.013
1538.0,-17.684,-1.638,-0.177,-5.013,3.772,5.013
1542.0,-17.684,-1.638,-0.177,-5.013,3.772,5.013
1546.0,-12.225,-3.738,0.522,-5.013,2.926,4.744
1550.0,-12.225,-3.738,0.522,-5.013,2.926,4.744
1554.0,-8.771,-5.415,3.33,-5.013,2.025,3.492
1558.0,-8.771,-5.415,3.33,-5.013,2.025,3.492
1562.0,-8.771,-5.415,3.33,-5.013,2.025,3.492
1566.0,-5.286,-7.903,5.261,-5.013,0.997,2.169
1570.0,-5.286,-7.903,5.261,-5.013,0.997,2.169
1574.0,-0.449,-10.761,5.617,-5.013,0.997,2.169
1578.0,-0.449,-10.761,5.617,-5.013,0.117,1.079
1582.0,-0.449,-10.761,5.617,-5.013,0.117,1.079
1586.0,4.624,-12.56,5.873,-5.013,-0.357,0.17
1590.0,4.624,-12.56,5.873,-5.013,-0.357,0.17
1594.0,8.436,-12.757,6.358,-5.013,-0.517,-0.552
1598.0,8.436,-12.757,6.358,-4.662,-0.517,-0.552
1602.0,8.436,-12.757,6.358,-4.662,-0.517,-0.552
1606.0,10.363,-11.448,6.332,-3.17,-0.523,-1.057
1610.0,10.363,-11.448,6.332,-3.17,-0.523,-1.057
1614.0,10.84,-9.294,6.506,-1.463,-0.428,-1.362
1618.0,10.84,-9.294,6.506,-1.463,-0.428,-1.362
1623.0,10.84,-9.294,6.506,-1.463,-0.428,-1.362
1627.0,10.223,-6.926,6.871,0.164,-0.301,-1.507
1631.0,10.223,-6.926,6.871,0.164,-0.301,-1.507
1635.0,8.812,-4.643,6.956,1.634,-0.198,-1.498
1639.0,8.812,-4.643,6.956,1.634,-0.198,-1.498
1642.0,8.812,-4.643,6.554,1.634,-0.198,-1.498
1646.0,7.401,-2.566,6.554,2.877,-0.133,-1.349
1650.0,7.401,-2.566,6.554,2.877,-0.133,-1.349
1654.0,6.74,-0.893,5.962,3.851,-0.097,-1.114
1658.0,6.74,-0.893,5.962,3.851,-0.097,-1.114
1662.0,6.74,-0.893,5.962,3.851,-0.097,-1.114
1666.0,6.732,0.539,5.281,4.528,-0.092,-0.881
1670.0,6.732,0.539,5.281,4.528,-0.092,-0.881
1674.0,7.253,1.929,4.482,4.896,-0.125,-0.716
1677.0,7.253,1.929,4.482,4.896,-0.125,-0.716
1681.0,7.253,1.929,4.482,4.896,-0.125,-0.716
1685.0,8.05,3.47,3.613,4.975,-0.186,-0.65
1689.0,8.05,3.47,3.613,4.975,-0.186,-0.65
1693.0,9.098,5.141,2.754,4.975,-0.244,-0.652
1696.0,9.098,5.141,2.754,4.833,-0.244,-0.652
1700.0,9.098,5.141,2.754,4.833,-0.244,-0.652
1704.0,10.259,7.086,1.747,4.472,-0.239,-0.644
1708.0,10.259,7.086,1.747,4.472,-0.239,-0.644
1712.0,11.215,8.825,1.193,4.472,-0.239,-0.644
1716.0,11.215,8.825,1.193,3.927,-0.125,-0.538
1720.0,11.215,8.825,1.193,3.927,-0.125,-0.538
1724.0,11.291,9.861,1.168,3.212,0.072,-0.358
1727.0,11.291,9.861,1.168,3.212,0.072,-0.358
1731.0,11.291,9.861,1.524,3.212,0.072,-0.358
1735.0,10.311,10.124,1.524,2.379,0.28,-0.199
1739.0,10.311,10.124,1.524,2.379,0.28,-0.199
1743.0,8.862,9.908,2.032,1.518,0.439,-0.153
1747.0,8.862,9.908,2.032,1.518,0.439,-0.153
1750.0,8.862,9.908,2.032,1.518,0.439,-0.153
1754.0,7.387,9.598,2.534,0.727,0.528,-0.227
1758.0,7.387,9.598,2.534,0.727,0.528,-0.227
1762.0,6.399,9.158,2.971,0.727,0.528,-0.342
1765.0,6.399,9.158,2.971,0.071,0.549,-0.342
1769.0,6.399,9.158,2.971,0.071,0.549,-0.342
1773.0,5.903,8.588,3.322,-0.424,0.525,-0.454
1777.0,5.903,8.588,3.322,-0.424,0.525,-0.454
1780.0,5.903,8.588,3.322,-0.424,0.525,-0.454
1784.0,5.657,8.029,3.438,-0.762,0.476,-0.543
1788.0,5.657,8.029,3.438,-0.762,0.476,-0.543
1792.0,5.34,7.493,3.404,-0.98,0.416,-0.589
1796.0,5.34,7.493,3.404,-0.98,0.416,-0.589
1799.0,5.34,7.493,3.404,-0.98,0.416,-0.589
1803.0,4.951,6.753,3.185,-1.118,0.347,-0.587
1807.0,4.951,6.753,3.185,-1.118,0.347,-0.587
1811.0,4.653,5.931,2.775,-1.118,0.347,-0.577
1815.0,4.653,5.931,2.775,-1.206,0.279,-0.577
1819.0,4.653,5.931,2.775,-1.206,0.279,-0.577
1822.0,4.555,5.474,2.405,-1.25,0.226,-0.596
1826.0,4.555,5.474,2.405,-1.25,0.226,-0.596
1830.0,4.555,5.474,2.076,-1.25,0.226,-0.596
1834.0,4.664,5.172,2.076,-1.249,0.197,-0.599
1838.0,4.664,5.172,2.076,-1.249,0.197,-0.599
1841.0,4.987,4.866,1.97,-1.21,0.197,-0.564
1845.0,4.987,4.866,1.97,-1.21,0.197,-0.564
1849.0,4.987,4.866,1.97,-1.21,0.197,-0.564
1853.0,5.27,4.583,2.101,-1.132,0.223,-0.509
1857.0,5.27,4.583,2.101,-1.132,0.223,-0.509
1861.0,5.473,4.399,2.228,-1.017,0.267,-0.457
1864.0,5.473,4.399,2.228,-1.017,0.267,-0.457
1868.0,5.473,4.399,2.228,-1.017,0.267,-0.457
1872.0,5.537,4.149,2.395,-0.875,0.315,-0.416
1876.0,5.537,4.149,2.395,-0.875,0.315,-0.416
1880.0,5.465,3.852,2.484,-0.875,0.315,-0.416
1884.0,5.465,3.852,2.484,-0.723,0.352,-0.403
1887.0,5.465,3.852,2.484,-0.723,0.352,-0.403
1891.0,5.234,3.608,2.442,-0.575,0.385,-0.426
1895.0,5.234,3.608,2.442,-0.575,0.385,-0.426
1899.0,5.234,3.608,2.442,-0.575,0.385,-0.426
1903.0,4.86,3.387,2.385,-0.444,0.415,-0.477
1906.0,4.86,3.387,2.385,-0.444,0.415,-0.477
1910.0,4.478,3.296,2.177,-0.336,0.441,-0.538
1914.0,4.478,3.296,2.177,-0.336,0.441,-0.538
1918.0,4.478,3.296,2.177,-0.336,0.441,-0.538
1922.0,4.35,3.478,1.733,-0.248,0.473,-0.588
1926.0,4.35,3.478,1.733,-0.248,0.473,-0.588
1929.0,4.504,3.739,1.309,-0.248,0.473,-0.589
1933.0,4.504,3.739,1.309,-0.171,0.542,-0.589
1937.0,4.504,3.739,1.309,-0.171,0.542,-0.589
1941.0,4.886,3.753,1.115,-0.105,0.641,-0.536
1945.0,4.886,3.753,1.115,-0.105,0.641,-0.536
1948.0,4.886,3.753,0.942,-0.105,0.641,-0.536
1952.0,5.222,3.498,0.942,-0.061,0.745,-0.471
1956.0,5.222,3.498,0.942,-0.061,0.745,-0.471
1960.0,5.322,3.049,0.702,-0.038,0.83,-0.443
1964.0,5.322,3.049,0.702,-0.038,0.83,-0.443
1968.0,5.322,3.049,0.702,-0.038,0.83,-0.443
1971.0,5.13,2.599,0.348,-0.044,0.88,-0.48
1975.0,5.13,2.599,0.348,-0.044,0.88,-0.48
1979.0,4.733,2.137,-0.27,-0.093,0.897,-0.582
1983.0,4.733,2.137,-0.27,-0.093,0.897,-0.582
1987.0,4.733,2.137,-0.27,-0.093,0.897,-0.582
1991.0,4.025,1.729,-0.727,-0.196,0.893,-0.729
1995.0,4.025,1.729,-0.727,-0.196,0.893,-0.729
1999.0,3.064,1.756,-0.644,-0.196,0.893,-0.897
2002.0,3.064,1.756,-0.644,-0.353,0.864,-0.897
2006.0,3.064,1.756,-0.644,-0.353,0.864,-0.897
2010.0,1.943,2.116,-0.34,-0.549,0.807,-1.033
2014.0,1.943,2.116,-0.34,-0.549,0.807,-1.033
2018.0,0.914,2.385,-0.036,-0.549,0.807,-1.033
2022.0,0.914,2.385,-0.036,-0.783,0.719,-1.094
2026.0,0.914,2.385,-0.036,-0.783,0.719,-1.094
2030.0,0.15,2.271,0.077,-1.051,0.615,-1.098
2034.0,0.15,2.271,0.077,-1.051,0.615,-1.098
2037.0,0.15,2.271,0.099,-1.051,0.615,-1.098
2041.0,-0.43,1.99,0.099,-1.345,0.523,-1.105
2045.0,-0.43,1.99,0.099,-1.345,0.523,-1.105
2049.0,-0.928,1.624,0.16,-1.657,0.456,-1.128
2053.0,-0.928,1.624,0.16,-1.657,0.456,-1.128
2057.0,-0.928,1.624,0.16,-1.657,0.456,-1.128
2061.0,-1.22,1.169,0.225,-1.977,0.411,-1.162
2065.0,-1.22,1.169,0.225,-1.977,0.411,-1.162
2069.0,-1.305,0.697,0.184,-2.294,0.396,-1.213
2072.0,-1.305,0.697,0.184,-2.294,0.396,-1.213
2076.0,-1.305,0.697,0.184,-2.294,0.396,-1.213
2080.0,-1.28,0.328,0.243,-2.602,0.418,-1.279
2084.0,-1.28,0.328,0.243,-2.602,0.418,-1.279
2088.0,-1.168,0.017,0.297,-2.877,0.476,-1.344
2092.0,-1.168,0.017,0.297,-2.877,0.476,-1.344
2096.0,-1.168,0.017,0.297,-2.877,0.476,-1.344
2100.0,-0.967,-0.217,0.122,-3.114,0.568,-1.407
2104.0,-0.967,-0.217,0.122,-3.114,0.568,-1.407
2108.0,-0.858,-0.358,0.153,-3.315,0.704,-1.459
2112.0,-0.858,-0.358,0.153,-3.315,0.704,-1.459
2116.0,-0.858,-0.358,0.153,-3.315,0.704,-1.459
2120.0,-0.785,-0.511,0.348,-3.486,0.863,-1.493
2124.0,-0.785,-0.511,0.348,-3.486,0.863,-1.493
2128.0,-0.772,-0.575,0.66,-3.628,1.041,-1.518
2132.0,-0.772,-0.575,0.66,-3.628,1.041,-1.518
2136.0,-0.772,-0.575,0.66,-3.628,1.041,-1.518
2140.0,-0.854,-0.586,1.077,-3.741,1.234,-1.521
2144.0,-0.854,-0.586,1.077,-3.741,1.234,-1.521
2148.0,-0.909,-0.567,1.525,-3.821,1.438,-1.493
2152.0,-0.909,-0.567,1.525,-3.821,1.438,-1.493
2156.0,-0.909,-0.567,1.963,-3.821,1.438,-1.493
2160.0,-0.905,-0.508,1.963,-3.864,1.656,-1.436
2164.0,-0.905,-0.508,1.963,-3.864,1.656,-1.436
2168.0,-0.795,-0.481,2.547,-3.867,1.887,-1.352
2172.0,-0.795,-0.481,2.547,-3.867,1.887,-1.352
2176.0,-0.795,-0.562,3.269,-3.867,1.887,-1.352
2180.0,-0.638,-0.562,3.269,-3.83,2.127,-1.252
2184.0,-0.638,-0.562,3.269,-3.83,2.127,-1.252
2188.0,-0.378,-0.663,3.859,-3.753,2.366,-1.145
2192.0,-0.378,-0.663,3.859,-3.753,2.366,-1.145
2196.0,-0.095,-0.684,4.438,-3.753,2.366,-1.145
2200.0,-0.095,-0.684,4.438,-3.642,2.621,-1.034
2204.0,-0.095,-0.684,4.438,-3.642,2.621,-1.034
2208.0,0.063,-0.659,5.119,-3.502,2.889,-0.913
2212.0,0.063,-0.659,5.119,-3.502,2.889,-0.913
2215.0,0.229,-0.545,5.899,-3.502,2.889,-0.913
2219.0,0.229,-0.545,5.899,-3.338,3.158,-0.782
2223.0,0.229,-0.545,5.899,-3.338,3.158,-0.782
2227.0,0.244,-0.38,6.649,-3.152,3.434,-0.642
2231.0,0.244,-0.38,6.649,-3.152,3.434,-0.642
2235.0,0.244,-0.422,6.986,-3.152,3.434,-0.642
2239.0,0.262,-0.422,6.986,-2.965,3.696,-0.477
2243.0,0.262,-0.422,6.986,-2.965,3.696,-0.477
2247.0,0.546,-0.592,7.141,-2.787,3.986,-0.327
2251.0,0.546,-0.592,7.141,-2.787,3.986,-0.327
2255.0,0.546,-0.592,7.356,-2.787,3.986,-0.327
2258.0,0.691,-0.523,7.356,-2.611,4.344,-0.239
2262.0,0.691,-0.523,7.356,-2.611,4.344,-0.239
2266.0,0.489,-0.425,7.555,-2.455,4.723,-0.168
2270.0,0.489,-0.425,7.555,-2.455,4.723,-0.168
2274.0,0.489,-0.425,7.555,-2.455,4.723,-0.168
2278.0,-0.344,-0.454,8.201,-2.341,4.986,-0.085
2282.0,-0.344,-0.454,8.201,-2.341,4.986,-0.085
2286.0,-2.027,-0.595,8.925,-2.266,5.015,-0.002
2290.0,-2.027,-0.595,8.925,-2.266,5.015,-0.002
2294.0,-2.027,-0.595,8.536,-2.266,5.015,-0.002
2298.0,-3.967,-0.781,8.536,-2.226,5.015,0.087
2302.0,-3.967,-0.781,8.536,-2.226,5.015,0.087
2306.0,-5.842,-1.359,7.719,-2.235,5.015,0.183
2310.0,-5.842,-1.359,7.719,-2.235,5.015,0.183
2314.0,-5.842,-1.359,7.719,-2.235,5.015,0.183
2317.0,-7.758,-2.125,7.008,-2.286,5.015,0.248
2321.0,-7.758,-2.125,7.008,-2.286,5.015,0.248
2325.0,-9.768,-2.95,6.507,-2.371,5.015,0.299
2329.0,-9.768,-2.95,6.507,-2.371,5.015,0.299
2333.0,-9.768,-2.95,6.507,-2.371,5.015,0.299
2337.0,-11.896,-3.927,6.63,-2.489,5.015,0.357
2341.0,-11.896,-3.927,6.63,-2.489,5.015,0.357
2345.0,-14.111,-4.473,7.202,-2.626,5.015,0.389
2349.0,-14.111,-4.473,7.202,-2.626,5.015,0.389
2353.0,-14.111,-4.473,7.202,-2.626,5.015,0.389
2357.0,-16.393,-4.607,8.092,-2.739,5.015,0.41
2361.0,-16.393,-4.607,8.092,-2.739,5.015,0.41
2365.0,-18.511,-4.797,8.569,-2.792,5.015,0.451
2369.0,-18.511,-4.797,8.569,-2.792,5.015,0.451
2373.0,-18.511,-4.797,8.586,-2.792,5.015,0.451
2377.0,-19.587,-4.72,8.586,-2.781,5.015,0.518
2381.0,-19.587,-4.72,8.586,-2.781,5.015,0.518
2385.0,-19.6,-4.637,8.179,-2.728,5.015,0.641
2389.0,-19.6,-4.637,8.179,-2.728,5.015,0.641
2393.0,-19.6,-4.405,7.517,-2.728,5.015,0.641
2397.0,-19.6,-4.405,7.517,-2.67,5.015,0.843
2401.0,-19.6,-4.405,7.517,-2.67,5.015,0.843
2405.0,-19.6,-4.323,6.906,-2.633,5.015,1.143
2409.0,-19.6,-4.323,6.906,-2.633,5.015,1.143
2413.0,-19.6,-4.502,6.468,-2.633,5.015,1.143
2417.0,-19.6,-4.502,6.468,-2.61,5.015,1.52
2421.0,-19.6,-4.502,6.468,-2.61,5.015,1.52
2425.0,-19.6,-4.842,6.365,-2.585,5.015,1.924
2429.0,-19.6,-4.842,6.365,-2.585,5.015,1.924
2433.0,-19.6,-5.463,6.577,-2.585,5.015,2.304
2437.0,-19.6,-5.463,6.577,-2.533,5.015,2.304
2441.0,-19.6,-5.463,6.577,-2.533,5.015,2.304
2445.0,-19.6,-6.151,6.936,-2.417,5.015,2.593
2449.0,-19.6,-6.151,6.936,-2.417,5.015,2.593
2453.0,-19.6,-6.594,7.025,-2.229,5.015,2.738
2457.0,-19.6,-6.594,7.025,-2.229,5.015,2.738
2461.0,-19.6,-6.594,7.025,-2.229,5.015,2.738
2465.0,-19.6,-6.352,6.584,-2.004,5.015,2.715
2469.0,-19.6,-6.352,6.584,-2.004,5.015,2.715
2473.0,-19.6,-5.35,5.594,-1.786,5.015,2.538
2477.0,-19.6,-5.35,5.594,-1.786,5.015,2.538
2481.0,-19.6,-5.35,5.594,-1.786,5.015,2.538
2485.0,-19.6,-3.915,4.318,-1.619,4.913,2.24
2489.0,-19.6,-3.915,4.318,-1.619,4.913,2.24
2493.0,-19.6,-2.448,3.243,-1.537,4.582,1.855
2497.0,-19.6,-2.448,3.243,-1.537,4.582,1.855
2501.0,-19.6,-2.448,3.243,-1.537,4.582,1.855
2505.0,-19.6,-1.2,2.658,-1.529,4.319,1.393
2509.0,-19.6,-1.2,2.658,-1.529,4.319,1.393
2513.0,-19.6,-0.34,2.483,-1.58,4.128,0.89
2517.0,-19.6,-0.34,2.483,-1.58,4.128,0.89
2521.0,-19.6,-0.34,2.483,-1.58,4.128,0.89
2525.0,-19.577,0.141,2.768,-1.669,3.971,0.385
2529.0,-19.577,0.141,2.768,-1.669,3.971,0.385
2532.0,-18.802,0.315,3.394,-1.77,3.823,-0.086
2536.0,-18.802,0.315,3.394,-1.77,3.823,-0.086
2540.0,-18.802,0.315,3.394,-1.77,3.823,-0.086
2544.0,-18.093,0.252,4.007,-1.853,3.655,-0.479
2548.0,-18.093,0.252,4.007,-1.853,3.655,-0.479
2552.0,-17.754,-0.083,4.241,-1.903,3.46,-0.774
2557.0,-17.754,-0.083,4.241,-1.903,3.46,-0.774
2561.0,-17.754,-0.083,4.111,-1.903,3.46,-0.774
2565.0,-17.415,-0.514,4.111,-1.934,3.247,-0.987
2569.0,-17.415,-0.514,4.111,-1.934,3.247,-0.987
2573.0,-16.783,-0.93,3.916,-1.967,3.023,-1.141
2577.0,-16.783,-0.93,3.916,-1.967,3.023,-1.141
2581.0,-15.912,-1.266,3.76,-1.967,2.803,-1.245
2585.0,-15.912,-1.266,3.76,-2.016,2.803,-1.245
2589.0,-15.912,-1.266,3.76,-2.016,2.803,-1.245
2593.0,-14.902,-1.577,3.657,-2.082,2.605,-1.293
2597.0,-14.902,-1.577,3.657,-2.082,2.605,-1.293
2601.0,-13.913,-1.929,3.583,-2.153,2.438,-1.293
2605.0,-13.913,-1.929,3.583,-2.153,2.438,-1.293
2610.0,-13.913,-1.929,3.583,-2.153,2.438,-1.293
2614.0,-13.062,-2.316,3.517,-2.222,2.296,-1.258
2618.0,-13.062,-2.316,3.517,-2.222,2.296,-1.258
2622.0,-12.301,-2.657,3.503,-2.276,2.168,-1.199
2626.0,-12.301,-2.657,3.503,-2.276,2.168,-1.199
2630.0,-11.621,-2.913,3.564,-2.276,2.168,-1.199
2634.0,-11.621,-2.913,3.564,-2.305,2.042,-1.131
2638.0,-11.621,-2.913,3.564,-2.305,2.042,-1.131
2642.0,-11.024,-2.987,3.687,-2.304,1.913,-1.061
2646.0,-11.024,-2.987,3.687,-2.304,1.913,-1.061
2650.0,-10.433,-2.99,3.753,-2.264,1.775,-0.991
2654.0,-10.433,-2.99,3.753,-2.264,1.775,-0.991
2658.0,-10.433,-2.99,3.753,-2.264,1.775,-0.991
2663.0,-9.939,-2.969,3.729,-2.183,1.628,-0.924
2667.0,-9.939,-2.969,3.729,-2.183,1.628,-0.924
2671.0,-9.48,-2.839,3.744,-2.06,1.484,-0.858
2675.0,-9.48,-2.839,3.744,-2.06,1.484,-0.858
2679.0,-9.48,-2.839,3.744,-2.06,1.484,-0.858
2683.0,-9.07,-2.703,3.703,-1.901,1.344,-0.779
2687.0,-9.07,-2.703,3.703,-1.901,1.344,-0.779
2691.0,-8.515,-2.179,3.966,-1.719,1.211,-0.679
2695.0,-8.515,-2.179,3.966,-1.719,1.211,-0.679
2699.0,-8.515,-2.179,3.966,-1.719,1.211,-0.679
2703.0,-8.377,-2.277,3.904,-1.56,1.083,-0.556
2707.0,-8.377,-2.277,3.904,-1.56,1.083,-0.556
2710.0,-8.191,-2.284,3.911,-1.357,0.957,-0.428
2714.0,-8.191,-2.284,3.911,-1.357,0.957,-0.428
2718.0,-8.191,-2.284,3.851,-1.357,0.957,-0.428
2722.0,-7.97,-2.351,3.851,-1.126,0.822,-0.317
2726.0,-7.97,-2.351,3.851,-1.126,0.822,-0.317
2730.0,-7.603,-2.277,4.018,-0.878,0.679,-0.209
2734.0,-7.603,-2.277,4.018,-0.878,0.679,-0.209
2738.0,-7.366,-2.218,3.918,-0.878,0.679,-0.209
2742.0,-7.366,-2.218,3.918,-0.646,0.522,-0.133
2746.0,-7.366,-2.218,3.918,-0.646,0.522,-0.133
2750.0,-7.147,-2.099,3.769,-0.447,0.357,-0.094
2754.0,-7.147,-2.099,3.769,-0.447,0.357,-0.094
2758.0,-6.958,-1.947,3.623,-0.447,0.357,-0.073
2762.0,-6.958,-1.947,3.623,-0.273,0.191,-0.073
2766.0,-6.958,-1.947,3.623,-0.273,0.191,-0.073
2770.0,-6.803,-1.708,3.421,-0.135,0.024,-0.067
2774.0,-6.803,-1.708,3.421,-0.135,0.024,-0.067
2778.0,-6.696,-1.528,3.243,-0.135,-0.138,-0.058
2782.0,-6.696,-1.528,3.243,-0.024,-0.138,-0.058
2787.0,-6.696,-1.528,3.243,-0.024,-0.138,-0.058
2791.0,-6.686,-1.295,3.067,0.046,-0.294,-0.055
2795.0,-6.686,-1.295,3.067,0.046,-0.294,-0.055
2799.0,-6.664,-1.171,2.806,0.085,-0.442,-0.048
2803.0,-6.664,-1.171,2.806,0.085,-0.442,-0.048
2807.0,-6.664,-1.171,2.806,0.085,-0.442,-0.048
2811.0,-6.654,-1.058,2.529,0.099,-0.578,-0.041
2815.0,-6.654,-1.058,2.529,0.099,-0.578,-0.041
2819.0,-6.714,-0.959,2.316,0.102,-0.699,-0.034
2823.0,-6.714,-0.959,2.316,0.102,-0.699,-0.034
2827.0,-6.714,-0.959,2.316,0.102,-0.699,-0.034
2831.0,-6.804,-0.941,2.027,0.103,-0.804,-0.025
2835.0,-6.804,-0.941,2.027,0.103,-0.804,-0.025
2839.0,-6.885,-0.977,1.646,0.103,-0.889,-0.016
2843.0,-6.885,-0.977,1.646,0.103,-0.889,-0.016
2847.0,-6.885,-0.977,1.646,0.103,-0.889,-0.016
2851.0,-6.955,-1.031,1.202,0.103,-0.96,-0.012
2855.0,-6.955,-1.031,1.202,0.103,-0.96,-0.012
2858.0,-7.144,-1.037,0.71,0.104,-1.005,-0.018
2862.0,-7.144,-1.037,0.71,0.104,-1.005,-0.018
2866.0,-7.144,-1.037,0.187,0.104,-1.005,-0.018
2870.0,-7.418,-1.009,0.187,0.092,-1.024,-0.035
2874.0,-7.418,-1.009,0.187,0.092,-1.024,-0.035
2878.0,-7.899,-0.699,-0.426,0.092,-1.011,-0.04
2883.0,-7.899,-0.699,-0.426,0.092,-1.011,-0.04
2887.0,-8.692,-0.476,-0.794,0.092,-1.011,-0.04
2891.0,-8.692,-0.476,-0.794,0.266,-0.952,0.054
2895.0,-8.692,-0.476,-0.794,0.266,-0.952,0.054
2899.0,-8.965,-1.078,-1.942,0.759,-0.854,0.262
2903.0,-8.965,-1.078,-1.942,0.759,-0.854,0.262
2907.0,-8.982,-1.312,-2.573,0.759,-0.706,0.48
2911.0,-8.982,-1.312,-2.573,1.469,-0.706,0.48
2915.0,-8.982,-1.312,-2.573,1.469,-0.706,0.48
2919.0,-9.034,-1.875,-2.008,2.222,-0.643,0.694
2923.0,-9.034,-1.875,-2.008,2.222,-0.643,0.694
2927.0,-9.479,-2.638,-2.192,2.822,-0.716,0.797
2931.0,-9.479,-2.638,-2.192,2.822,-0.716,0.797
2935.0,-9.479,-2.638,-2.192,2.822,-0.716,0.797
2939.0,-10.804,-2.027,-3.153,3.188,-0.783,0.789
2943.0,-10.804,-2.027,-3.153,3.188,-0.783,0.789
2947.0,-12.623,-0.847,-4.017,3.326,-0.776,0.849
2951.0,-12.623,-0.847,-4.017,3.326,-0.776,0.849
2955.0,-12.623,-0.847,-4.017,3.326,-0.776,0.849
2959.0,-14.392,-0.062,-4.644,3.264,-0.758,1.045
2963.0,-14.392,-0.062,-4.644,3.264,-0.758,1.045
2967.0,-15.44,0.256,-4.692,3.052,-0.777,1.313
2971.0,-15.44,0.256,-4.692,3.052,-0.777,1.313
2975.0,-15.44,0.256,-4.161,3.052,-0.777,1.313
2979.0,-15.656,0.005,-4.161,2.741,-0.882,1.562
2983.0,-15.656,0.005,-4.161,2.741,-0.882,1.562
2987.0,-15.481,-0.441,-3.48,2.391,-1.069,1.699
2991.0,-15.481,-0.441,-3.48,2.391,-1.069,1.699
2995.0,-15.648,-0.802,-3.088,2.391,-1.069,1.696
2999.0,-15.648,-0.802,-3.088,2.036,-1.311,1.696
