deltaTime,Acc_X,Acc_Y,Acc_Z,Gyro_X,Gyro_Y,Gyro_Z
0.0,-9.085,-0.588,5.162,0.28,-0.255,0.257
3.0,-8.703,-0.419,4.865,0.268,-0.285,0.227
6.0,-8.703,-0.419,4.865,0.268,-0.285,0.227
9.0,-8.703,-0.419,4.865,0.268,-0.285,0.227
12.0,-8.495,-0.699,4.664,0.294,-0.296,0.236
15.0,-8.495,-0.699,4.664,0.294,-0.296,0.236
18.0,-8.495,-0.699,4.664,0.294,-0.296,0.236
21.0,-8.495,-0.699,4.551,0.294,-0.296,0.236
24.0,-8.369,-1.048,4.551,0.416,-0.282,0.282
27.0,-8.369,-1.048,4.551,0.416,-0.282,0.282
30.0,-8.369,-1.048,4.551,0.416,-0.282,0.282
33.0,-8.362,-1.094,4.502,0.606,-0.26,0.327
36.0,-8.362,-1.094,4.502,0.606,-0.26,0.327
39.0,-8.362,-1.094,4.502,0.606,-0.26,0.327
43.0,-8.301,-1.004,4.433,0.776,-0.248,0.36
47.0,-8.301,-1.004,4.433,0.776,-0.248,0.36
51.0,-8.492,-0.84,4.455,0.776,-0.248,0.36
54.0,-8.492,-0.84,4.455,0.868,-0.184,0.387
58.0,-8.492,-0.84,4.455,0.868,-0.184,0.387
62.0,-8.619,-0.516,4.515,0.89,-0.147,0.404
65.0,-8.619,-0.516,4.515,0.89,-0.147,0.404
69.0,-8.619,-0.516,4.515,0.89,-0.147,0.404
73.0,-8.804,-0.144,4.605,0.817,-0.11,0.419
77.0,-8.804,-0.144,4.605,0.817,-0.11,0.419
80.0,-8.958,0.437,4.649,0.817,-0.066,0.412
84.0,-8.958,0.437,4.649,0.625,-0.066,0.412
88.0,-8.958,0.437,4.649,0.625,-0.066,0.412
91.0,-8.955,0.625,4.685,0.323,-0.063,0.38
95.0,-8.955,0.625,4.685,0.323,-0.063,0.38
99.0,-8.955,0.625,4.685,0.323,-0.063,0.38
102.0,-8.94,0.401,4.572,-0.004,-0.088,0.336
106.0,-8.94,0.401,4.572,-0.004,-0.088,0.336
110.0,-8.809,0.026,4.344,-0.004,-0.088,0.292
114.0,-8.809,0.026,4.344,-0.267,-0.11,0.292
118.0,-8.809,0.026,4.344,-0.267,-0.11,0.292
121.0,-8.78,-0.727,4.287,-0.426,-0.111,0.266
125.0,-8.78,-0.727,4.287,-0.426,-0.111,0.266
129.0,-8.78,-1.152,4.268,-0.426,-0.111,0.266
133.0,-8.618,-1.152,4.268,-0.428,-0.092,0.263
137.0,-8.618,-1.152,4.268,-0.428,-0.092,0.263
141.0,-8.565,-0.91,4.25,-0.357,-0.06,0.241
145.0,-8.565,-0.91,4.25,-0.357,-0.06,0.241
149.0,-8.565,-0.91,4.427,-0.357,-0.06,0.241
153.0,-8.635,-0.581,4.427,-0.322,-0.032,0.194
157.0,-8.635,-0.581,4.427,-0.322,-0.032,0.194
160.0,-8.777,-0.465,4.735,-0.32,-0.024,0.143
164.0,-8.777,-0.465,4.735,-0.32,-0.024,0.143
168.0,-8.777,-0.465,4.735,-0.32,-0.024,0.143
172.0,-8.989,-0.498,5.037,-0.309,-0.035,0.101
176.0,-8.989,-0.498,5.037,-0.309,-0.035,0.101
180.0,-9.128,-0.462,5.249,-0.273,-0.057,0.064
184.0,-9.128,-0.462,5.249,-0.273,-0.057,0.064
188.0,-9.128,-0.462,5.249,-0.273,-0.057,0.064
192.0,-9.185,-0.29,5.346,-0.229,-0.087,0.027
196.0,-9.185,-0.29,5.346,-0.229,-0.087,0.027
200.0,-9.056,-0.109,5.358,-0.201,-0.121,-0.01
204.0,-9.056,-0.109,5.358,-0.201,-0.121,-0.01
208.0,-9.056,-0.109,5.358,-0.201,-0.121,-0.01
212.0,-9.074,0.152,5.46,-0.202,-0.145,-0.034
215.0,-9.074,0.152,5.46,-0.202,-0.145,-0.034
219.0,-9.253,0.371,5.663,-0.262,-0.154,-0.052
223.0,-9.253,0.371,5.663,-0.262,-0.154,-0.052
227.0,-9.253,0.371,5.663,-0.262,-0.154,-0.052
231.0,-9.219,0.496,5.908,-0.383,-0.166,-0.072
235.0,-9.219,0.496,5.908,-0.383,-0.166,-0.072
239.0,-9.23,0.518,6.303,-0.527,-0.193,-0.099
243.0,-9.23,0.518,6.303,-0.527,-0.193,-0.099
247.0,-9.23,0.518,6.303,-0.527,-0.193,-0.099
251.0,-9.385,0.279,6.824,-0.667,-0.227,-0.146
254.0,-9.385,0.279,6.824,-0.667,-0.227,-0.146
258.0,-9.744,-0.095,7.393,-0.742,-0.301,-0.223
262.0,-9.744,-0.095,7.393,-0.742,-0.301,-0.223
266.0,-9.744,-0.095,7.393,-0.742,-0.301,-0.223
270.0,-10.037,-0.113,7.711,-0.741,-0.428,-0.317
274.0,-10.037,-0.113,7.711,-0.741,-0.428,-0.317
279.0,-10.308,-0.061,7.811,-0.703,-0.578,-0.397
283.0,-10.308,-0.061,7.811,-0.703,-0.578,-0.397
287.0,-10.308,-0.061,7.811,-0.703,-0.578,-0.397
291.0,-10.593,-0.245,7.837,-0.631,-0.732,-0.438
295.0,-10.593,-0.245,7.837,-0.631,-0.732,-0.438
299.0,-11.284,-0.464,7.702,-0.48,-0.897,-0.451
303.0,-11.284,-0.464,7.702,-0.48,-0.897,-0.451
307.0,-11.556,-0.141,7.613,-0.48,-0.897,-0.451
311.0,-11.556,-0.141,7.613,-0.287,-1.113,-0.479
315.0,-11.556,-0.141,7.613,-0.287,-1.113,-0.479
319.0,-11.706,0.059,7.713,-0.127,-1.345,-0.511
323.0,-11.706,0.059,7.713,-0.127,-1.345,-0.511
327.0,-11.76,-0.023,7.868,-0.127,-1.562,-0.532
331.0,-11.76,-0.023,7.868,-0.01,-1.562,-0.532
335.0,-11.76,-0.023,7.868,-0.01,-1.562,-0.532
340.0,-11.804,0.008,8.004,0.088,-1.737,-0.542
343.0,-11.804,0.008,8.004,0.088,-1.737,-0.542
347.0,-11.82,0.136,8.296,0.169,-1.881,-0.543
351.0,-11.82,0.136,8.296,0.169,-1.881,-0.543
355.0,-11.82,0.136,8.296,0.169,-1.881,-0.543
359.0,-11.763,0.343,8.642,0.221,-2.01,-0.545
363.0,-11.763,0.343,8.642,0.221,-2.01,-0.545
367.0,-11.653,0.607,9.153,0.238,-2.128,-0.558
371.0,-11.653,0.607,9.153,0.238,-2.128,-0.558
375.0,-11.653,0.607,9.153,0.238,-2.128,-0.558
379.0,-11.666,1.052,9.78,0.22,-2.25,-0.579
383.0,-11.666,1.052,9.78,0.22,-2.25,-0.579
386.0,-11.818,1.402,10.25,0.22,-2.393,-0.58
390.0,-11.818,1.402,10.25,0.176,-2.393,-0.58
394.0,-11.818,1.402,10.25,0.176,-2.393,-0.58
398.0,-11.957,1.567,10.456,0.113,-2.56,-0.531
402.0,-11.957,1.567,10.456,0.113,-2.56,-0.531
406.0,-11.779,1.49,10.369,0.046,-2.735,-0.42
410.0,-11.779,1.49,10.369,0.046,-2.735,-0.42
414.0,-11.779,1.49,10.369,0.046,-2.735,-0.42
418.0,-11.021,1.031,9.857,-0.007,-2.889,-0.28
422.0,-11.021,1.031,9.857,-0.007,-2.889,-0.28
426.0,-9.973,0.283,9.777,-0.037,-2.995,-0.18
430.0,-9.973,0.283,9.777,-0.037,-2.995,-0.18
434.0,-9.973,0.283,9.777,-0.037,-2.995,-0.18
438.0,-9.348,-0.554,10.515,-0.04,-3.085,-0.17
442.0,-9.348,-0.554,10.515,-0.04,-3.085,-0.17
446.0,-9.541,-1.379,11.655,-0.01,-3.214,-0.239
450.0,-9.541,-1.379,11.655,-0.01,-3.214,-0.239
454.0,-9.541,-1.379,11.655,-0.01,-3.214,-0.239
458.0,-10.247,-2.3,12.848,0.049,-3.399,-0.341
463.0,-10.247,-2.3,12.848,0.049,-3.399,-0.341
467.0,-10.768,-3.282,14.027,0.138,-3.637,-0.44
471.0,-10.768,-3.282,14.027,0.138,-3.637,-0.44
475.0,-10.768,-3.883,14.754,0.138,-3.637,-0.44
479.0,-10.84,-3.883,14.754,0.281,-3.908,-0.514
483.0,-10.84,-3.883,14.754,0.281,-3.908,-0.514
487.0,-10.667,-4.213,14.967,0.489,-4.155,-0.533
491.0,-10.667,-4.213,14.967,0.489,-4.155,-0.533
495.0,-10.078,-4.59,14.673,0.735,-4.35,-0.515
499.0,-10.078,-4.59,14.673,0.735,-4.35,-0.515
503.0,-10.078,-4.59,14.673,0.735,-4.35,-0.515
507.0,-9.154,-4.813,14.271,1.002,-4.502,-0.516
511.0,-9.154,-4.813,14.271,1.002,-4.502,-0.516
515.0,-8.28,-4.987,13.821,1.274,-4.628,-0.559
519.0,-8.28,-4.987,13.821,1.274,-4.628,-0.559
523.0,-8.28,-4.987,13.821,1.274,-4.628,-0.559
527.0,-7.686,-5.084,13.363,1.536,-4.74,-0.629
531.0,-7.686,-5.084,13.363,1.536,-4.74,-0.629
535.0,-7.195,-5.203,13.105,1.789,-4.843,-0.702
539.0,-7.195,-5.203,13.105,1.789,-4.843,-0.702
543.0,-7.195,-5.203,13.105,1.789,-4.843,-0.702
547.0,-6.747,-5.305,12.886,2.029,-4.941,-0.775
551.0,-6.747,-5.305,12.886,2.029,-4.941,-0.775
555.0,-6.211,-5.32,12.442,2.247,-4.988,-0.847
559.0,-6.211,-5.32,12.442,2.247,-4.988,-0.847
563.0,-6.211,-5.32,12.099,2.247,-4.988,-0.847
567.0,-5.653,-5.434,12.099,2.43,-4.992,-0.915
571.0,-5.653,-5.434,12.099,2.43,-4.992,-0.915
575.0,-5.145,-5.54,11.834,2.595,-4.992,-0.99
579.0,-5.145,-5.54,11.834,2.595,-4.992,-0.99
583.0,-5.145,-5.759,11.64,2.595,-4.992,-0.99
587.0,-4.781,-5.759,11.64,2.747,-4.992,-1.07
591.0,-4.781,-5.759,11.64,2.747,-4.992,-1.07
595.0,-4.506,-6.049,11.057,2.904,-4.992,-1.156
599.0,-4.506,-6.049,11.057,2.904,-4.992,-1.156
603.0,-3.989,-6.321,10.308,2.904,-4.992,-1.156
607.0,-3.989,-6.321,10.308,3.088,-4.992,-1.252
611.0,-3.989,-6.321,10.308,3.088,-4.992,-1.252
615.0,-3.172,-6.392,9.394,3.303,-4.992,-1.356
619.0,-3.172,-6.392,9.394,3.303,-4.992,-1.356
623.0,-2.435,-6.413,8.578,3.303,-4.992,-1.356
627.0,-2.435,-6.413,8.578,3.524,-4.992,-1.464
631.0,-2.435,-6.413,8.578,3.524,-4.992,-1.464
635.0,-1.767,-5.969,7.692,3.751,-4.992,-1.59
639.0,-1.767,-5.969,7.692,3.751,-4.992,-1.59
643.0,-1.767,-5.212,6.782,3.751,-4.992,-1.59
646.0,-1.055,-5.212,6.782,3.954,-4.992,-1.716
650.0,-1.055,-5.212,6.782,3.954,-4.992,-1.716
654.0,-0.294,-4.504,5.984,4.14,-4.975,-1.824
658.0,-0.294,-4.504,5.984,4.14,-4.975,-1.824
662.0,-0.294,-4.504,5.161,4.14,-4.975,-1.824
666.0,0.293,-4.065,5.161,4.303,-4.827,-1.909
670.0,0.293,-4.065,5.161,4.303,-4.827,-1.909
674.0,0.644,-3.686,4.38,4.46,-4.638,-1.977
677.0,0.644,-3.686,4.38,4.46,-4.638,-1.977
681.0,0.644,-3.686,4.38,4.46,-4.638,-1.977
685.0,1.28,-2.902,3.659,4.617,-4.473,-2.013
689.0,1.28,-2.902,3.659,4.617,-4.473,-2.013
693.0,1.674,-1.965,2.975,4.728,-4.239,-2.038
697.0,1.674,-1.965,2.975,4.728,-4.239,-2.038
700.0,1.674,-1.965,2.975,4.728,-4.239,-2.038
704.0,1.916,-0.857,2.471,4.8,-3.994,-2.068
708.0,1.916,-0.857,2.471,4.8,-3.994,-2.068
712.0,2.018,0.191,2.045,4.8,-3.994,-2.068
716.0,2.018,0.191,2.045,4.836,-3.747,-2.107
719.0,2.018,0.191,2.045,4.836,-3.747,-2.107
723.0,2.167,1.347,1.655,4.848,-3.496,-2.144
727.0,2.167,1.347,1.655,4.848,-3.496,-2.144
731.0,2.167,1.347,1.655,4.848,-3.496,-2.144
734.0,2.283,2.875,1.376,4.86,-3.241,-2.151
738.0,2.283,2.875,1.376,4.86,-3.241,-2.151
742.0,2.55,4.692,0.813,4.86,-3.241,-2.085
745.0,2.55,4.692,0.813,4.899,-2.978,-2.085
749.0,2.55,4.692,0.813,4.899,-2.978,-2.085
753.0,3.302,6.425,0.123,4.964,-2.689,-1.928
757.0,3.302,6.425,0.123,4.964,-2.689,-1.928
760.0,3.302,6.425,0.123,4.964,-2.689,-1.928
764.0,4.46,8.469,-0.613,4.994,-2.354,-1.74
768.0,4.46,8.469,-0.613,4.994,-2.354,-1.74
772.0,5.551,11.045,-1.753,4.995,-1.967,-1.503
776.0,5.551,11.045,-1.753,4.995,-1.967,-1.503
780.0,5.551,11.045,-1.753,4.995,-1.967,-1.503
783.0,6.645,13.236,-3.327,4.995,-1.523,-1.132
787.0,6.645,13.236,-3.327,4.995,-1.523,-1.132
791.0,7.658,15.058,-4.712,4.995,-0.994,-0.62
795.0,7.658,15.058,-4.712,4.995,-0.994,-0.62
799.0,7.658,15.058,-4.712,4.995,-0.994,-0.62
803.0,7.702,16.031,-5.197,4.995,-0.385,-0.023
807.0,7.702,16.031,-5.197,4.995,-0.385,-0.023
811.0,7.773,16.623,-4.905,4.995,-0.385,0.593
815.0,7.773,16.623,-4.905,4.995,0.146,0.593
818.0,7.773,16.623,-4.905,4.995,0.146,0.593
822.0,7.977,17.145,-5.014,4.995,0.651,1.2
826.0,7.977,17.145,-5.014,4.995,0.651,1.2
830.0,7.977,17.145,-5.014,4.995,0.651,1.2
833.0,8.242,17.716,-5.569,4.995,1.158,1.774
837.0,8.242,17.716,-5.569,4.995,1.158,1.774
841.0,8.608,18.124,-6.622,4.995,1.685,2.312
844.0,8.608,18.124,-6.622,4.995,1.685,2.312
848.0,8.608,18.124,-6.622,4.995,1.685,2.312
852.0,9.156,17.979,-8.066,4.99,2.238,2.806
856.0,9.156,17.979,-8.066,4.99,2.238,2.806
859.0,9.156,17.979,-8.066,4.99,2.238,2.806
863.0,9.796,17.611,-9.112,4.751,2.823,3.244
867.0,9.796,17.611,-9.112,4.751,2.823,3.244
871.0,9.866,17.133,-9.025,4.123,3.439,3.611
874.0,9.866,17.133,-9.025,4.123,3.439,3.611
878.0,9.866,17.133,-9.025,4.123,3.439,3.611
882.0,9.274,16.58,-7.682,3.347,4.005,3.935
886.0,9.274,16.58,-7.682,3.347,4.005,3.935
889.0,9.274,15.539,-5.566,3.347,4.005,3.935
893.0,7.769,15.539,-5.566,2.47,4.456,4.249
897.0,7.769,15.539,-5.566,2.47,4.456,4.249
900.0,5.046,13.688,-3.565,1.552,4.779,4.569
904.0,5.046,13.688,-3.565,1.552,4.779,4.569
908.0,5.046,13.688,-3.565,1.552,4.779,4.569
912.0,1.65,11.371,-2.367,0.687,4.965,4.854
915.0,1.65,11.371,-2.367,0.687,4.965,4.854
919.0,-1.282,9.132,-1.912,0.687,4.965,4.854
923.0,-1.282,9.132,-1.912,-0.111,5.01,5.001
927.0,-1.282,9.132,-1.912,-0.111,5.01,5.001
931.0,-3.371,7.013,-1.795,-0.891,4.984,5.013
934.0,-3.371,7.013,-1.795,-0.891,4.984,5.013
938.0,-3.371,7.013,-1.795,-0.891,4.984,5.013
942.0,-4.799,4.913,-1.782,-1.7,4.867,5.008
946.0,-4.799,4.913,-1.782,-1.7,4.867,5.008
950.0,-6.875,2.188,-0.319,-2.549,4.686,4.852
953.0,-6.875,2.188,-0.319,-2.549,4.686,4.852
957.0,-6.875,2.188,-0.319,-2.549,4.686,4.852
961.0,-12.08,-1.402,3.352,-3.389,4.409,4.388
965.0,-12.08,-1.402,3.352,-3.389,4.409,4.388
969.0,-18.471,-5.387,7.172,-3.389,3.856,3.676
973.0,-18.471,-5.387,7.172,-4.116,3.856,3.676
977.0,-18.471,-5.387,7.172,-4.116,3.856,3.676
981.0,-19.6,-9.468,8.856,-4.486,3.0,2.8
984.0,-19.6,-9.468,8.856,-4.486,3.0,2.8
988.0,-18.335,-13.341,8.619,-4.486,3.0,1.985
992.0,-18.335,-13.341,8.619,-4.272,1.917,1.985
996.0,-18.335,-13.341,8.619,-4.272,1.917,1.985
1000.0,-14.524,-16.97,7.954,-3.395,0.781,1.231
1004.0,-14.524,-16.97,7.954,-3.395,0.781,1.231
1009.0,-10.544,-18.45,7.622,-2.026,-0.226,0.324
1013.0,-10.544,-18.45,7.622,-2.026,-0.226,0.324
1017.0,-10.544,-18.45,7.622,-2.026,-0.226,0.324
1021.0,-7.437,-16.681,6.971,-0.59,-1.074,-0.671
1025.0,-7.437,-16.681,6.971,-0.59,-1.074,-0.671
1029.0,-5.659,-13.053,5.754,0.56,-1.736,-1.522
1033.0,-5.659,-13.053,5.754,0.56,-1.736,-1.522
1038.0,-5.0,-9.331,5.017,0.56,-1.736,-1.522
1042.0,-5.0,-9.331,5.017,1.306,-2.205,-2.149
1046.0,-5.0,-9.331,5.017,1.306,-2.205,-2.149
1050.0,-4.661,-6.181,4.487,1.674,-2.584,-2.589
1054.0,-4.661,-6.181,4.487,1.674,-2.584,-2.589
1058.0,-4.189,-3.68,3.858,1.674,-2.584,-2.905
1061.0,-4.189,-3.68,3.858,1.725,-2.938,-2.905
1065.0,-4.189,-3.68,3.858,1.725,-2.938,-2.905
1069.0,-3.568,-1.808,3.019,1.524,-3.277,-3.152
1073.0,-3.568,-1.808,3.019,1.524,-3.277,-3.152
1077.0,-2.671,-0.482,2.15,1.524,-3.566,-3.377
1081.0,-2.671,-0.482,2.15,1.142,-3.566,-3.377
1085.0,-2.671,-0.482,2.15,1.142,-3.566,-3.377
1089.0,-1.449,0.628,1.605,0.667,-3.756,-3.61
1093.0,-1.449,0.628,1.605,0.667,-3.756,-3.61
1097.0,-0.016,1.732,1.574,0.667,-3.855,-3.857
1101.0,-0.016,1.732,1.574,0.204,-3.855,-3.857
1105.0,-0.016,1.732,1.574,0.204,-3.855,-3.857
1109.0,1.38,3.039,1.848,-0.146,-3.908,-4.115
1113.0,1.38,3.039,1.848,-0.146,-3.908,-4.115
1117.0,2.824,4.457,2.16,-0.146,-3.908,-4.353
1121.0,2.824,4.457,2.16,-0.314,-3.944,-4.353
1125.0,2.824,4.457,2.16,-0.314,-3.944,-4.353
1129.0,4.325,6.077,2.369,-0.285,-3.952,-4.511
1132.0,4.325,6.077,2.369,-0.285,-3.952,-4.511
1136.0,6.124,7.549,2.302,-0.285,-3.952,-4.511
1140.0,6.124,7.549,2.302,-0.075,-3.93,-4.518
1144.0,6.124,7.549,2.302,-0.075,-3.93,-4.518
1148.0,7.109,8.418,1.879,0.27,-3.831,-4.413
1152.0,7.109,8.418,1.879,0.27,-3.831,-4.413
1156.0,7.109,8.418,0.907,0.27,-3.831,-4.413
1159.0,8.288,9.712,0.907,0.769,-3.866,-4.268
1163.0,8.288,9.712,0.907,0.769,-3.866,-4.268
1167.0,8.66,11.945,-1.159,1.294,-3.86,-4.108
1171.0,8.66,11.945,-1.159,1.294,-3.86,-4.108
1175.0,8.66,11.945,-1.159,1.294,-3.86,-4.108
1179.0,9.394,15.002,-4.274,1.84,-3.832,-3.878
1183.0,9.394,15.002,-4.274,1.84,-3.832,-3.878
1187.0,11.518,18.608,-8.408,2.376,-3.69,-3.525
1191.0,11.518,18.608,-8.408,2.376,-3.69,-3.525
1195.0,11.518,18.608,-13.571,2.376,-3.69,-3.525
1199.0,15.748,19.595,-13.571,2.833,-3.306,-2.978
1204.0,15.748,19.595,-13.571,2.833,-3.306,-2.978
1208.0,19.487,19.596,-18.765,2.973,-2.606,-2.156
1212.0,19.487,19.596,-18.765,2.973,-2.606,-2.156
1216.0,19.596,19.596,-19.595,2.405,-1.58,-1.112
1220.0,19.596,19.596,-19.595,2.405,-1.58,-1.112
1224.0,19.596,19.596,-19.595,2.405,-1.58,-1.112
1229.0,19.596,19.596,-19.596,1.355,-0.451,-0.176
1233.0,19.596,19.596,-19.596,1.355,-0.451,-0.176
1237.0,18.994,19.596,-18.518,0.25,0.669,0.507
1241.0,18.994,19.596,-18.518,0.25,0.669,0.507
1245.0,12.999,19.596,-14.129,0.25,0.669,0.507
1249.0,12.999,19.596,-14.129,-0.603,1.634,0.96
1253.0,12.999,19.596,-14.129,-0.603,1.634,0.96
1257.0,8.896,19.596,-10.457,-1.094,2.27,1.356
1261.0,8.896,19.596,-10.457,-1.094,2.27,1.356
1265.0,9.355,19.596,-8.233,-1.094,2.642,1.971
1269.0,9.355,19.596,-8.233,-1.355,2.642,1.971
1273.0,9.355,19.596,-8.233,-1.355,2.642,1.971
1277.0,10.078,19.596,-7.141,-1.471,2.926,2.781
1281.0,10.078,19.596,-7.141,-1.471,2.926,2.781
1285.0,10.661,19.594,-7.236,-1.471,3.237,3.575
1289.0,10.661,19.594,-7.236,-1.456,3.237,3.575
1293.0,10.661,19.594,-7.236,-1.456,3.237,3.575
1297.0,10.865,17.643,-7.093,-1.352,3.648,4.249
1301.0,10.865,17.643,-7.093,-1.352,3.648,4.249
1305.0,10.308,14.508,-6.775,-1.164,4.152,4.758
1309.0,10.308,14.508,-6.775,-1.164,4.152,4.758
1313.0,10.308,14.508,-6.775,-1.164,4.152,4.758
1317.0,8.45,12.282,-5.551,-0.894,4.681,5.0
1321.0,8.45,12.282,-5.551,-0.894,4.681,5.0
1325.0,5.508,10.498,-3.435,-0.614,4.99,5.013
1328.0,5.508,10.498,-3.435,-0.614,4.99,5.013
1332.0,5.508,10.498,-3.435,-0.614,4.99,5.013
1336.0,1.641,8.512,-0.731,-0.388,5.015,5.013
1340.0,1.641,8.512,-0.731,-0.388,5.015,5.013
1344.0,-2.554,6.225,1.643,-0.388,5.015,5.013
1348.0,-2.554,6.225,1.643,-0.242,5.015,5.013
1352.0,-2.554,6.225,1.643,-0.242,5.015,5.013
1355.0,-6.297,4.338,3.316,-0.185,5.015,5.013
1359.0,-6.297,4.338,3.316,-0.185,5.015,5.013
1363.0,-6.297,4.338,3.755,-0.185,5.015,5.013
1367.0,-9.348,3.931,3.755,-0.238,5.015,5.013
1371.0,-9.348,3.931,3.755,-0.238,5.015,5.013
1374.0,-12.071,4.161,3.441,-0.376,4.956,5.013
1378.0,-12.071,4.161,3.441,-0.376,4.956,5.013
1382.0,-12.071,4.161,3.441,-0.376,4.956,5.013
1386.0,-15.617,3.103,3.366,-0.528,4.72,5.013
1390.0,-15.617,3.103,3.366,-0.528,4.72,5.013
1394.0,-19.38,0.354,3.593,-0.571,4.29,5.013
1398.0,-19.38,0.354,3.593,-0.571,4.29,5.013
1402.0,-19.38,0.354,3.593,-0.571,4.29,5.013
1406.0,-19.6,-2.457,3.425,-0.447,3.592,5.013
1410.0,-19.6,-2.457,3.425,-0.447,3.592,5.013
1414.0,-18.488,-4.791,2.483,-0.242,2.627,5.013
1418.0,-18.488,-4.791,2.483,-0.242,2.627,5.013
1422.0,-18.488,-4.791,2.483,-0.242,2.627,5.013
1426.0,-10.448,-7.649,0.293,-0.13,1.634,5.0
1430.0,-10.448,-7.649,0.293,-0.13,1.634,5.0
1434.0,-1.432,-9.247,-0.036,-0.225,0.983,4.204
1438.0,-1.432,-9.247,-0.036,-0.225,0.983,4.204
1442.0,-1.432,-9.247,-0.036,-0.225,0.983,4.204
1446.0,4.827,-6.53,2.856,-0.592,0.498,2.09
1449.0,4.827,-6.53,2.856,-0.592,0.498,2.09
1453.0,11.143,-2.542,6.447,-1.262,-0.173,0.239
1457.0,11.143,-2.542,6.447,-1.262,-0.173,0.239
1461.0,11.143,-2.542,6.447,-1.262,-0.173,0.239
1465.0,11.399,-0.388,6.15,-2.065,-0.811,-0.823
1469.0,11.399,-0.388,6.15,-2.065,-0.811,-0.823
1473.0,7.411,-1.795,4.633,-2.689,-1.051,-1.361
1477.0,7.411,-1.795,4.633,-2.689,-1.051,-1.361
1481.0,7.411,-1.795,4.255,-2.689,-1.051,-1.361
1485.0,4.229,-4.353,4.255,-2.977,-1.017,-1.747
1489.0,4.229,-4.353,4.255,-2.977,-1.017,-1.747
1493.0,3.446,-6.504,4.117,-2.892,-0.952,-2.03
1497.0,3.446,-6.504,4.117,-2.892,-0.952,-2.03
1501.0,3.446,-7.366,3.471,-2.892,-0.952,-2.03
1505.0,4.697,-7.366,3.471,-2.428,-0.897,-2.148
1509.0,4.697,-7.366,3.471,-2.428,-0.897,-2.148
1513.0,6.939,-6.959,2.95,-1.67,-0.79,-2.097
1517.0,6.939,-6.959,2.95,-1.67,-0.79,-2.097
1521.0,9.276,-5.704,2.923,-1.67,-0.79,-2.097
1525.0,9.276,-5.704,2.923,-0.781,-0.622,-1.967
1529.0,9.276,-5.704,2.923,-0.781,-0.622,-1.967
1533.0,11.139,-4.347,3.572,0.095,-0.422,-1.841
1537.0,11.139,-4.347,3.572,0.095,-0.422,-1.841
1541.0,11.605,-3.274,4.711,0.095,-0.422,-1.757
1545.0,11.605,-3.274,4.711,0.866,-0.238,-1.757
1549.0,11.605,-3.274,4.711,0.866,-0.238,-1.757
1553.0,10.68,-1.947,5.654,1.485,-0.135,-1.703
1557.0,10.68,-1.947,5.654,1.485,-0.135,-1.703
1561.0,9.341,-0.523,6.061,1.485,-0.117,-1.634
1565.0,9.341,-0.523,6.061,1.944,-0.117,-1.634
1569.0,9.341,-0.523,6.061,1.944,-0.117,-1.634
1573.0,8.52,0.901,5.936,2.251,-0.147,-1.538
1577.0,8.52,0.901,5.936,2.251,-0.147,-1.538
1581.0,8.415,2.097,5.468,2.251,-0.147,-1.538
1584.0,8.415,2.097,5.468,2.418,-0.186,-1.402
1588.0,8.415,2.097,5.468,2.418,-0.186,-1.402
1592.0,8.856,2.932,4.969,2.442,-0.221,-1.235
1596.0,8.856,2.932,4.969,2.442,-0.221,-1.235
1600.0,8.856,2.932,4.969,2.442,-0.221,-1.235
1604.0,9.526,3.598,4.393,2.325,-0.237,-1.076
1607.0,9.526,3.598,4.393,2.325,-0.237,-1.076
1611.0,10.023,4.096,3.963,2.1,-0.218,-0.935
1615.0,10.023,4.096,3.963,2.1,-0.218,-0.935
1619.0,10.023,4.096,3.963,2.1,-0.218,-0.935
1623.0,10.177,4.607,3.723,1.798,-0.177,-0.821
1627.0,10.177,4.607,3.723,1.798,-0.177,-0.821
1631.0,10.14,5.059,3.695,1.442,-0.126,-0.712
1635.0,10.14,5.059,3.695,1.442,-0.126,-0.712
1638.0,10.14,5.059,3.695,1.442,-0.126,-0.712
1642.0,9.936,5.244,3.843,1.053,-0.079,-0.601
1646.0,9.936,5.244,3.843,1.053,-0.079,-0.601
1650.0,9.605,5.238,4.019,1.053,-0.036,-0.508
1654.0,9.605,5.238,4.019,0.656,-0.036,-0.508
1658.0,9.605,5.238,4.019,0.656,-0.036,-0.508
1661.0,9.173,5.094,4.144,0.285,0.002,-0.442
1665.0,9.173,5.094,4.144,0.285,0.002,-0.442
1669.0,9.173,5.094,4.265,0.285,0.002,-0.442
1673.0,8.71,4.826,4.265,-0.033,0.034,-0.401
1677.0,8.71,4.826,4.265,-0.033,0.034,-0.401
1680.0,8.252,4.437,4.397,-0.278,0.049,-0.382
1684.0,8.252,4.437,4.397,-0.278,0.049,-0.382
1688.0,8.252,4.437,4.397,-0.278,0.049,-0.382
1692.0,7.822,4.008,4.38,-0.436,0.047,-0.384
1696.0,7.822,4.008,4.38,-0.436,0.047,-0.384
1699.0,7.661,3.682,4.33,-0.436,0.038,-0.397
1703.0,7.661,3.682,4.33,-0.51,0.038,-0.397
1707.0,7.661,3.682,4.33,-0.51,0.038,-0.397
1711.0,7.68,3.402,4.282,-0.513,0.021,-0.399
1715.0,7.68,3.402,4.282,-0.513,0.021,-0.399
1719.0,7.68,3.052,4.279,-0.513,0.021,-0.399
1722.0,7.827,3.052,4.279,-0.464,-0.011,-0.385
1726.0,7.827,3.052,4.279,-0.464,-0.011,-0.385
1730.0,7.979,2.811,4.262,-0.384,-0.054,-0.373
1734.0,7.979,2.811,4.262,-0.384,-0.054,-0.373
1738.0,7.979,2.811,4.262,-0.384,-0.054,-0.373
1742.0,8.115,2.742,4.195,-0.289,-0.099,-0.363
1746.0,8.115,2.742,4.195,-0.289,-0.099,-0.363
1750.0,8.288,2.815,4.02,-0.2,-0.136,-0.341
1754.0,8.288,2.815,4.02,-0.2,-0.136,-0.341
1757.0,8.288,2.815,4.02,-0.2,-0.136,-0.341
1761.0,8.566,2.963,3.805,-0.135,-0.154,-0.298
1765.0,8.566,2.963,3.805,-0.135,-0.154,-0.298
1769.0,8.871,3.142,3.642,-0.099,-0.14,-0.241
1773.0,8.871,3.142,3.642,-0.099,-0.14,-0.241
1777.0,8.871,3.142,3.642,-0.099,-0.14,-0.241
1781.0,9.044,3.308,3.599,-0.099,-0.099,-0.172
1785.0,9.044,3.308,3.599,-0.099,-0.099,-0.172
1789.0,9.062,3.422,3.595,-0.133,-0.047,-0.106
1793.0,9.062,3.422,3.595,-0.133,-0.047,-0.106
1797.0,9.062,3.422,3.595,-0.133,-0.047,-0.106
1800.0,8.951,3.494,3.587,-0.19,0.005,-0.056
1804.0,8.951,3.494,3.587,-0.19,0.005,-0.056
1808.0,8.812,3.515,3.571,-0.26,0.048,-0.026
1812.0,8.812,3.515,3.571,-0.26,0.048,-0.026
1816.0,8.812,3.515,3.571,-0.26,0.048,-0.026
1820.0,8.734,3.488,3.645,-0.326,0.078,-0.018
1823.0,8.734,3.488,3.645,-0.326,0.078,-0.018
1827.0,8.743,3.409,3.693,-0.326,0.078,-0.018
1831.0,8.743,3.409,3.693,-0.375,0.088,-0.026
1835.0,8.743,3.409,3.693,-0.375,0.088,-0.026
1839.0,8.645,3.224,3.708,-0.405,0.092,-0.045
1842.0,8.645,3.224,3.708,-0.405,0.092,-0.045
1846.0,8.645,3.224,3.708,-0.405,0.092,-0.045
1850.0,8.529,2.957,3.715,-0.42,0.095,-0.064
1854.0,8.529,2.957,3.715,-0.42,0.095,-0.064
1858.0,8.367,2.7,3.772,-0.416,0.104,-0.09
1862.0,8.367,2.7,3.772,-0.416,0.104,-0.09
1865.0,8.367,2.7,3.772,-0.416,0.104,-0.09
1869.0,8.176,2.569,3.834,-0.394,0.118,-0.109
1873.0,8.176,2.569,3.834,-0.394,0.118,-0.109
1877.0,8.018,2.517,3.959,-0.394,0.118,-0.104
1881.0,8.018,2.517,3.959,-0.353,0.134,-0.104
1884.0,8.018,2.517,3.959,-0.353,0.134,-0.104
1888.0,7.998,2.448,4.067,-0.297,0.141,-0.076
1892.0,7.998,2.448,4.067,-0.297,0.141,-0.076
1896.0,7.998,2.448,4.104,-0.297,0.141,-0.076
1900.0,8.04,2.387,4.104,-0.231,0.141,-0.044
1904.0,8.04,2.387,4.104,-0.231,0.141,-0.044
1907.0,8.058,2.333,4.156,-0.163,0.136,-0.023
1911.0,8.058,2.333,4.156,-0.163,0.136,-0.023
1915.0,8.058,2.333,4.156,-0.163,0.136,-0.023
1919.0,7.989,2.311,4.16,-0.101,0.126,-0.021
1923.0,7.989,2.311,4.16,-0.101,0.126,-0.021
1927.0,7.95,2.315,4.067,-0.051,0.11,-0.036
1930.0,7.95,2.315,4.067,-0.051,0.11,-0.036
1934.0,7.95,2.315,4.067,-0.051,0.11,-0.036
1938.0,7.953,2.341,3.988,-0.019,0.097,-0.068
1942.0,7.953,2.341,3.988,-0.019,0.097,-0.068
1946.0,7.953,2.393,3.912,-0.019,0.097,-0.068
1949.0,7.897,2.393,3.912,-0.003,0.092,-0.113
1953.0,7.897,2.393,3.912,-0.003,0.092,-0.113
1957.0,7.836,2.425,3.91,-0.001,0.097,-0.155
1961.0,7.836,2.425,3.91,-0.001,0.097,-0.155
1965.0,7.836,2.425,3.91,-0.001,0.097,-0.155
1969.0,7.84,2.353,3.919,-0.005,0.101,-0.191
1972.0,7.84,2.353,3.919,-0.005,0.101,-0.191
1976.0,7.812,2.206,3.813,-0.015,0.112,-0.233
1980.0,7.812,2.206,3.813,-0.015,0.112,-0.233
1984.0,7.812,2.206,3.813,-0.015,0.112,-0.233
1988.0,7.823,2.176,3.747,-0.033,0.122,-0.278
1991.0,7.823,2.176,3.747,-0.033,0.122,-0.278
1995.0,7.822,1.973,3.53,-0.033,0.122,-0.321
1999.0,7.822,1.973,3.53,-0.048,0.125,-0.321
2003.0,7.822,1.973,3.53,-0.048,0.125,-0.321
2007.0,7.755,1.661,3.273,-0.059,0.126,-0.378
2011.0,7.755,1.661,3.273,-0.059,0.126,-0.378
2014.0,7.755,1.661,3.273,-0.059,0.126,-0.378
2018.0,7.592,1.383,2.953,-0.063,0.131,-0.463
2022.0,7.592,1.383,2.953,-0.063,0.131,-0.463
2026.0,7.439,1.104,2.645,-0.054,0.142,-0.563
2030.0,7.439,1.104,2.645,-0.054,0.142,-0.563
2033.0,7.439,1.104,2.645,-0.054,0.142,-0.563
2037.0,7.296,0.815,2.399,-0.032,0.163,-0.687
2041.0,7.296,0.815,2.399,-0.032,0.163,-0.687
2045.0,7.115,0.613,2.371,-0.032,0.195,-0.841
2049.0,7.115,0.613,2.371,0.003,0.195,-0.841
2052.0,7.115,0.613,2.371,0.003,0.195,-0.841
2056.0,6.982,0.509,2.479,0.056,0.22,-1.02
2060.0,6.982,0.509,2.479,0.056,0.22,-1.02
2064.0,6.982,0.509,2.479,0.056,0.22,-1.02
2067.0,6.778,0.469,2.581,0.125,0.239,-1.211
2071.0,6.778,0.469,2.581,0.125,0.239,-1.211
2075.0,6.537,0.419,2.653,0.208,0.252,-1.4
2079.0,6.537,0.419,2.653,0.208,0.252,-1.4
2082.0,6.537,0.419,2.653,0.208,0.252,-1.4
2086.0,6.22,0.352,2.625,0.301,0.26,-1.584
2090.0,6.22,0.352,2.625,0.301,0.26,-1.584
2094.0,6.22,0.352,2.42,0.301,0.26,-1.584
2097.0,5.932,0.221,2.42,0.398,0.258,-1.764
2101.0,5.932,0.221,2.42,0.398,0.258,-1.764
2105.0,5.597,0.062,2.142,0.494,0.264,-1.951
2108.0,5.597,0.062,2.142,0.494,0.264,-1.951
2112.0,5.597,0.062,2.142,0.494,0.264,-1.951
2116.0,5.259,-0.068,1.878,0.579,0.275,-2.145
2120.0,5.259,-0.068,1.878,0.579,0.275,-2.145
2124.0,5.022,-0.085,1.723,0.579,0.275,-2.145
2127.0,5.022,-0.085,1.723,0.653,0.303,-2.353
2131.0,5.022,-0.085,1.723,0.653,0.303,-2.353
2135.0,4.941,-0.004,1.801,0.72,0.354,-2.566
2139.0,4.941,-0.004,1.801,0.72,0.354,-2.566
2143.0,4.941,-0.004,1.801,0.72,0.354,-2.566
2146.0,4.924,0.098,2.006,0.784,0.411,-2.767
2150.0,4.924,0.098,2.006,0.784,0.411,-2.767
2154.0,4.899,0.187,2.128,0.849,0.457,-2.945
2158.0,4.899,0.187,2.128,0.849,0.457,-2.945
2161.0,4.899,0.187,2.128,0.849,0.457,-2.945
2165.0,4.672,0.216,2.097,0.918,0.492,-3.104
2169.0,4.672,0.216,2.097,0.918,0.492,-3.104
2173.0,4.672,0.329,2.085,0.918,0.492,-3.104
2176.0,4.4,0.329,2.085,0.985,0.524,-3.252
2180.0,4.4,0.329,2.085,0.985,0.524,-3.252
2184.0,4.031,0.592,2.308,1.048,0.557,-3.389
2188.0,4.031,0.592,2.308,1.048,0.557,-3.389
2191.0,4.031,0.592,2.308,1.048,0.557,-3.389
2195.0,3.599,0.954,2.696,1.096,0.558,-3.485
2199.0,3.599,0.954,2.696,1.096,0.558,-3.485
2202.0,3.13,1.381,3.301,1.096,0.558,-3.485
2206.0,3.13,1.381,3.301,1.127,0.497,-3.518
2210.0,3.13,1.381,3.301,1.127,0.497,-3.518
2214.0,2.753,1.713,3.867,1.135,0.365,-3.477
2217.0,2.753,1.713,3.867,1.135,0.365,-3.477
2221.0,2.753,1.713,3.867,1.135,0.365,-3.477
2225.0,2.591,1.912,4.209,1.121,0.189,-3.382
2229.0,2.591,1.912,4.209,1.121,0.189,-3.382
2232.0,2.611,2.023,4.402,1.121,0.189,-3.27
2236.0,2.611,2.023,4.402,1.091,0.017,-3.27
2240.0,2.611,2.023,4.402,1.091,0.017,-3.27
2244.0,2.757,2.005,4.471,1.05,-0.12,-3.175
2247.0,2.757,2.005,4.471,1.05,-0.12,-3.175
2251.0,2.757,2.005,4.471,1.05,-0.12,-3.175
2255.0,2.913,1.909,4.301,1.008,-0.197,-3.135
2259.0,2.913,1.909,4.301,1.008,-0.197,-3.135
2263.0,2.965,1.813,4.016,0.951,-0.219,-3.151
2266.0,2.965,1.813,4.016,0.951,-0.219,-3.151
2270.0,2.965,1.813,4.016,0.951,-0.219,-3.151
2274.0,2.902,1.799,3.694,0.866,-0.202,-3.216
2278.0,2.902,1.799,3.694,0.866,-0.202,-3.216
2282.0,2.761,1.829,3.288,0.866,-0.153,-3.32
2286.0,2.761,1.829,3.288,0.746,-0.153,-3.32
2289.0,2.761,1.829,3.288,0.746,-0.153,-3.32
2293.0,2.565,1.919,2.944,0.581,-0.077,-3.453
2297.0,2.565,1.919,2.944,0.581,-0.077,-3.453
2301.0,2.565,1.919,2.802,0.581,-0.077,-3.453
2305.0,2.329,2.085,2.802,0.374,0.022,-3.618
2308.0,2.329,2.085,2.802,0.374,0.022,-3.618
2312.0,1.924,2.261,2.839,0.146,0.143,-3.824
2316.0,1.924,2.261,2.839,0.146,0.143,-3.824
2320.0,1.924,2.261,2.839,0.146,0.143,-3.824
2323.0,1.347,2.545,3.057,-0.095,0.253,-4.04
2327.0,1.347,2.545,3.057,-0.095,0.253,-4.04
2331.0,0.745,2.776,3.272,-0.095,0.253,-4.234
2335.0,0.745,2.776,3.272,-0.338,0.339,-4.234
2339.0,0.745,2.776,3.272,-0.338,0.339,-4.234
2342.0,0.208,2.887,3.446,-0.58,0.409,-4.394
2346.0,0.208,2.887,3.446,-0.58,0.409,-4.394
2350.0,0.208,2.887,3.617,-0.58,0.409,-4.394
2354.0,-0.327,2.903,3.617,-0.809,0.484,-4.535
2358.0,-0.327,2.903,3.617,-0.809,0.484,-4.535
2362.0,-0.966,2.768,3.778,-1.016,0.567,-4.662
2366.0,-0.966,2.768,3.778,-1.016,0.567,-4.662
2369.0,-0.966,2.768,3.778,-1.016,0.567,-4.662
2373.0,-1.577,2.454,3.791,-1.202,0.656,-4.77
2377.0,-1.577,2.454,3.791,-1.202,0.656,-4.77
2381.0,-2.199,2.179,3.864,-1.362,0.76,-4.868
2385.0,-2.199,2.179,3.864,-1.362,0.76,-4.868
2389.0,-2.199,2.179,3.864,-1.362,0.76,-4.868
2393.0,-2.856,2.057,4.128,-1.493,0.875,-4.951
2397.0,-2.856,2.057,4.128,-1.493,0.875,-4.951
2401.0,-3.499,1.878,4.323,-1.574,0.997,-4.991
2405.0,-3.499,1.878,4.323,-1.574,0.997,-4.991
2409.0,-3.499,1.878,4.323,-1.574,0.997,-4.991
2412.0,-4.196,1.75,4.603,-1.608,1.128,-4.995
2416.0,-4.196,1.75,4.603,-1.608,1.128,-4.995
2420.0,-5.115,1.731,4.96,-1.57,1.262,-4.995
2424.0,-5.115,1.731,4.96,-1.57,1.262,-4.995
2428.0,-5.115,1.731,4.96,-1.57,1.262,-4.995
2432.0,-6.152,1.765,5.398,-1.466,1.373,-4.995
2436.0,-6.152,1.765,5.398,-1.466,1.373,-4.995
2440.0,-7.323,1.946,5.813,-1.466,1.44,-4.995
2444.0,-7.323,1.946,5.813,-1.313,1.44,-4.995
2448.0,-7.323,1.946,5.813,-1.313,1.44,-4.995
2451.0,-8.532,2.094,6.149,-1.118,1.462,-4.995
2455.0,-8.532,2.094,6.149,-1.118,1.462,-4.995
2459.0,-9.724,2.246,6.666,-1.118,1.462,-4.995
2463.0,-9.724,2.246,6.666,-0.887,1.431,-4.995
2467.0,-9.724,2.246,6.666,-0.887,1.431,-4.995
2471.0,-10.919,2.405,7.116,-0.604,1.333,-4.967
2475.0,-10.919,2.405,7.116,-0.604,1.333,-4.967
2479.0,-12.014,2.571,7.418,-0.604,1.333,-4.781
2483.0,-12.014,2.571,7.418,-0.278,1.164,-4.781
2487.0,-12.014,2.571,7.418,-0.278,1.164,-4.781
2491.0,-12.815,2.889,7.54,0.07,0.938,-4.524
2495.0,-12.815,2.889,7.54,0.07,0.938,-4.524
2499.0,-13.147,3.412,7.472,0.07,0.938,-4.254
2503.0,-13.147,3.412,7.472,0.409,0.681,-4.254
2507.0,-13.147,3.412,7.472,0.409,0.681,-4.254
2511.0,-12.875,4.095,7.077,0.684,0.439,-3.952
2514.0,-12.875,4.095,7.077,0.684,0.439,-3.952
2518.0,-12.27,4.732,6.445,0.684,0.439,-3.952
2522.0,-12.27,4.732,6.445,0.844,0.303,-3.626
2526.0,-12.27,4.732,6.445,0.844,0.303,-3.626
2530.0,-11.632,5.28,5.863,0.872,0.352,-3.306
2534.0,-11.632,5.28,5.863,0.872,0.352,-3.306
2538.0,-11.632,5.719,5.527,0.872,0.352,-3.306
2542.0,-11.332,5.719,5.527,0.788,0.595,-3.042
2546.0,-11.332,5.719,5.527,0.788,0.595,-3.042
2550.0,-11.523,6.158,5.45,0.642,0.951,-2.861
2553.0,-11.523,6.158,5.45,0.642,0.951,-2.861
2557.0,-11.523,6.158,5.509,0.642,0.951,-2.861
2561.0,-12.288,6.634,5.509,0.463,1.296,-2.737
2565.0,-12.288,6.634,5.509,0.463,1.296,-2.737
2569.0,-13.357,7.284,5.502,0.26,1.548,-2.648
2573.0,-13.357,7.284,5.502,0.26,1.548,-2.648
2577.0,-13.357,7.284,5.502,0.26,1.548,-2.648
2581.0,-14.494,7.992,5.37,0.019,1.709,-2.561
2585.0,-14.494,7.992,5.37,0.019,1.709,-2.561
2589.0,-15.479,8.672,5.328,-0.278,1.805,-2.458
2593.0,-15.479,8.672,5.328,-0.278,1.805,-2.458
2597.0,-15.479,8.672,5.328,-0.278,1.805,-2.458
2601.0,-16.43,9.21,5.271,-0.623,1.853,-2.357
2605.0,-16.43,9.21,5.271,-0.623,1.853,-2.357
2609.0,-17.167,9.55,5.324,-1.013,1.86,-2.26
2613.0,-17.167,9.55,5.324,-1.013,1.86,-2.26
2617.0,-17.167,9.55,5.286,-1.013,1.86,-2.26
2621.0,-17.56,9.439,5.286,-1.428,1.841,-2.174
2625.0,-17.56,9.439,5.286,-1.428,1.841,-2.174
2629.0,-17.547,9.094,5.241,-1.851,1.824,-2.092
2633.0,-17.547,9.094,5.241,-1.851,1.824,-2.092
2637.0,-17.547,8.676,5.228,-1.851,1.824,-2.092
2641.0,-17.416,8.676,5.228,-2.276,1.833,-2.01
2645.0,-17.416,8.676,5.228,-2.276,1.833,-2.01
2649.0,-17.128,8.104,5.262,-2.69,1.86,-1.943
2653.0,-17.128,8.104,5.262,-2.69,1.86,-1.943
2657.0,-16.607,7.609,5.707,-2.69,1.86,-1.943
2661.0,-16.607,7.609,5.707,-3.062,1.871,-1.926
2665.0,-16.607,7.609,5.707,-3.062,1.871,-1.926
2669.0,-16.127,7.232,6.076,-3.332,1.815,-2.003
2673.0,-16.127,7.232,6.076,-3.332,1.815,-2.003
2676.0,-16.314,6.895,6.114,-3.332,1.815,-2.123
2680.0,-16.314,6.895,6.114,-3.494,1.683,-2.123
2684.0,-16.314,6.895,6.114,-3.494,1.683,-2.123
2688.0,-16.755,6.602,5.921,-3.578,1.51,-2.204
2692.0,-16.755,6.602,5.921,-3.578,1.51,-2.204
2696.0,-17.066,6.337,5.559,-3.594,1.332,-2.206
2700.0,-17.066,6.337,5.559,-3.594,1.332,-2.206
2704.0,-17.066,6.337,5.559,-3.594,1.332,-2.206
2708.0,-17.161,6.089,5.055,-3.56,1.16,-2.127
2712.0,-17.161,6.089,5.055,-3.56,1.16,-2.127
2716.0,-16.935,5.806,4.427,-3.507,0.997,-1.968
2720.0,-16.935,5.806,4.427,-3.507,0.997,-1.968
2724.0,-16.935,5.806,4.427,-3.507,0.997,-1.968
2728.0,-16.174,5.392,3.657,-3.473,0.85,-1.756
2732.0,-16.174,5.392,3.657,-3.473,0.85,-1.756
2736.0,-14.892,4.95,3.121,-3.489,0.741,-1.545
2740.0,-14.892,4.95,3.121,-3.489,0.741,-1.545
2744.0,-14.892,4.95,3.121,-3.489,0.741,-1.545
2748.0,-13.382,4.52,2.837,-3.548,0.685,-1.389
2752.0,-13.382,4.52,2.837,-3.548,0.685,-1.389
2756.0,-11.78,3.879,2.724,-3.638,0.692,-1.313
2760.0,-11.78,3.879,2.724,-3.638,0.692,-1.313
2764.0,-11.78,3.879,2.724,-3.638,0.692,-1.313
2768.0,-10.548,3.46,3.483,-3.711,0.762,-1.362
2772.0,-10.548,3.46,3.483,-3.711,0.762,-1.362
2776.0,-10.373,3.267,4.242,-3.691,0.823,-1.471
2780.0,-10.373,3.267,4.242,-3.691,0.823,-1.471
2784.0,-10.373,3.267,4.242,-3.691,0.823,-1.471
2788.0,-11.127,3.135,4.614,-3.607,0.825,-1.529
2792.0,-11.127,3.135,4.614,-3.607,0.825,-1.529
2796.0,-12.209,3.044,4.723,-3.489,0.787,-1.475
2800.0,-12.209,3.044,4.723,-3.489,0.787,-1.475
2804.0,-12.209,3.044,4.751,-3.489,0.787,-1.475
2808.0,-13.0,2.965,4.751,-3.361,0.715,-1.326
2812.0,-13.0,2.965,4.751,-3.361,0.715,-1.326
2816.0,-13.22,2.801,4.623,-3.254,0.611,-1.113
2820.0,-13.22,2.801,4.623,-3.254,0.611,-1.113
2824.0,-12.897,2.548,4.381,-3.254,0.611,-1.113
2828.0,-12.897,2.548,4.381,-3.191,0.496,-0.873
2832.0,-12.897,2.548,4.381,-3.191,0.496,-0.873
2836.0,-12.248,2.234,4.033,-3.181,0.403,-0.638
2840.0,-12.248,2.234,4.033,-3.181,0.403,-0.638
2844.0,-11.397,1.952,3.7,-3.181,0.403,-0.437
2848.0,-11.397,1.952,3.7,-3.222,0.346,-0.437
2852.0,-11.397,1.952,3.7,-3.222,0.346,-0.437
2856.0,-10.483,1.787,3.552,-3.305,0.33,-0.282
2860.0,-10.483,1.787,3.552,-3.305,0.33,-0.282
2864.0,-8.788,2.053,4.864,-3.305,0.375,-0.223
2868.0,-8.788,2.053,4.864,-3.361,0.375,-0.223
2872.0,-8.788,2.053,4.864,-3.361,0.375,-0.223
2876.0,-7.701,3.665,7.594,-3.102,0.569,-0.475
2880.0,-7.701,3.665,7.594,-3.102,0.569,-0.475
2884.0,-10.031,5.82,7.027,-3.102,0.569,-0.618
2888.0,-10.031,5.82,7.027,-2.808,0.671,-0.618
2892.0,-10.031,5.82,7.027,-2.808,0.671,-0.618
2896.0,-11.617,5.456,5.864,-3.168,0.46,-0.142
2900.0,-11.617,5.456,5.864,-3.168,0.46,-0.142
2904.0,-12.234,3.547,4.381,-3.168,0.268,0.299
2908.0,-12.234,3.547,4.381,-3.674,0.268,0.299
2911.0,-12.234,3.547,4.381,-3.674,0.268,0.299
2915.0,-11.807,1.317,3.173,-4.013,0.137,0.546
2919.0,-11.807,1.317,3.173,-4.013,0.137,0.546
2923.0,-10.637,-0.062,2.349,-4.013,0.137,0.676
2927.0,-10.637,-0.062,2.349,-4.167,0.021,0.676
2931.0,-10.637,-0.062,2.349,-4.167,0.021,0.676
2935.0,-9.508,-0.817,1.884,-4.218,-0.05,0.742
2939.0,-9.508,-0.817,1.884,-4.218,-0.05,0.742
2943.0,-8.846,-1.116,1.682,-4.218,-0.048,0.756
2947.0,-8.846,-1.116,1.682,-4.203,-0.048,0.756
2951.0,-8.846,-1.116,1.682,-4.203,-0.048,0.756
2955.0,-8.661,-1.245,1.563,-4.15,-0.007,0.758
2959.0,-8.661,-1.245,1.563,-4.15,-0.007,0.758
2963.0,-8.886,-1.295,1.534,-4.082,0.034,0.789
2967.0,-8.886,-1.295,1.534,-4.082,0.034,0.789
2971.0,-8.886,-1.295,1.534,-4.082,0.034,0.789
2975.0,-9.334,-1.403,1.659,-4.01,0.054,0.862
2979.0,-9.334,-1.403,1.659,-4.01,0.054,0.862
2983.0,-9.739,-1.595,1.793,-4.01,0.035,0.954
2987.0,-9.739,-1.595,1.793,-3.927,0.035,0.954
2990.0,-9.739,-1.595,1.793,-3.927,0.035,0.954
2994.0,-9.989,-1.828,1.875,-3.82,-0.02,1.034
2998.0,-9.989,-1.828,1.875,-3.82,-0.02,1.034
