deltaTime,Acc_X,Acc_Y,Acc_Z,Gyro_X,Gyro_Y,Gyro_Z
0.0,-9.196,2.719,1.674,-0.934,0.028,-0.078
3.0,-9.196,2.719,1.674,-0.934,0.028,-0.078
6.0,-9.486,2.232,1.697,-1.413,0.035,-0.026
9.0,-9.486,2.232,1.697,-1.413,0.035,-0.026
12.0,-9.486,2.232,1.697,-1.413,0.035,-0.026
15.0,-9.82,1.291,1.9,-1.83,0.065,0.041
18.0,-9.82,1.291,1.9,-1.83,0.065,0.041
21.0,-9.82,1.291,1.9,-1.83,0.065,0.041
24.0,-9.82,1.291,2.25,-1.83,0.065,0.041
27.0,-10.122,0.039,2.25,-2.099,0.106,0.138
30.0,-10.122,0.039,2.25,-2.099,0.106,0.138
33.0,-10.122,0.039,2.25,-2.099,0.106,0.138
36.0,-10.077,-1.235,2.536,-2.171,0.138,0.257
40.0,-10.077,-1.235,2.536,-2.171,0.138,0.257
43.0,-10.077,-1.235,2.536,-2.171,0.138,0.257
47.0,-9.553,-2.135,2.496,-2.064,0.158,0.365
51.0,-9.553,-2.135,2.496,-2.064,0.158,0.365
55.0,-8.887,-2.264,2.245,-1.862,0.182,0.42
58.0,-8.887,-2.264,2.245,-1.862,0.182,0.42
62.0,-8.887,-2.264,2.245,-1.862,0.182,0.42
66.0,-8.736,-2.009,2.06,-1.68,0.213,0.406
70.0,-8.736,-2.009,2.06,-1.68,0.213,0.406
73.0,-8.736,-2.009,2.235,-1.68,0.213,0.406
77.0,-9.065,-2.086,2.235,-1.522,0.249,0.37
81.0,-9.065,-2.086,2.235,-1.522,0.249,0.37
84.0,-9.726,-1.906,2.722,-1.32,0.291,0.355
88.0,-9.726,-1.906,2.722,-1.32,0.291,0.355
92.0,-9.726,-1.906,2.722,-1.32,0.291,0.355
96.0,-10.409,-1.352,3.269,-1.097,0.323,0.349
100.0,-10.409,-1.352,3.269,-1.097,0.323,0.349
103.0,-10.882,-0.759,3.704,-1.097,0.323,0.342
107.0,-10.882,-0.759,3.704,-0.912,0.334,0.342
111.0,-10.882,-0.759,3.704,-0.912,0.334,0.342
115.0,-11.111,-0.37,4.077,-0.789,0.333,0.337
119.0,-11.111,-0.37,4.077,-0.789,0.333,0.337
123.0,-11.174,-0.21,4.199,-0.789,0.333,0.337
127.0,-11.174,-0.21,4.199,-0.709,0.325,0.341
131.0,-11.174,-0.21,4.199,-0.709,0.325,0.341
135.0,-11.096,-0.266,4.108,-0.671,0.297,0.36
139.0,-11.096,-0.266,4.108,-0.671,0.297,0.36
142.0,-11.096,-0.424,3.95,-0.671,0.297,0.36
146.0,-10.887,-0.424,3.95,-0.677,0.256,0.376
150.0,-10.887,-0.424,3.95,-0.677,0.256,0.376
154.0,-10.528,-0.628,3.884,-0.703,0.206,0.372
158.0,-10.528,-0.628,3.884,-0.703,0.206,0.372
162.0,-10.528,-0.628,3.884,-0.703,0.206,0.372
166.0,-10.008,-0.776,3.893,-0.708,0.149,0.352
170.0,-10.008,-0.776,3.893,-0.708,0.149,0.352
174.0,-9.401,-0.621,3.83,-0.691,0.094,0.324
178.0,-9.401,-0.621,3.83,-0.691,0.094,0.324
181.0,-9.401,-0.621,3.83,-0.691,0.094,0.324
185.0,-8.9,0.068,3.602,-0.715,0.048,0.281
189.0,-8.9,0.068,3.602,-0.715,0.048,0.281
193.0,-8.74,0.536,3.547,-0.85,0.001,0.204
196.0,-8.74,0.536,3.547,-0.85,0.001,0.204
200.0,-8.74,0.536,3.547,-0.85,0.001,0.204
204.0,-8.888,0.396,3.834,-1.055,-0.017,0.125
208.0,-8.888,0.396,3.834,-1.055,-0.017,0.125
211.0,-8.888,0.396,4.47,-1.055,-0.017,0.125
215.0,-9.316,-0.267,4.47,-1.198,-0.032,0.079
219.0,-9.316,-0.267,4.47,-1.198,-0.032,0.079
223.0,-9.886,-0.662,4.743,-1.222,-0.083,0.075
227.0,-9.886,-0.662,4.743,-1.222,-0.083,0.075
231.0,-9.886,-0.662,4.743,-1.222,-0.083,0.075
235.0,-10.299,-0.427,4.587,-1.165,-0.242,0.044
239.0,-10.299,-0.427,4.587,-1.165,-0.242,0.044
243.0,-11.232,-0.332,4.433,-1.104,-0.477,-0.039
247.0,-11.232,-0.332,4.433,-1.104,-0.477,-0.039
251.0,-11.232,-0.332,4.316,-1.104,-0.477,-0.039
255.0,-11.897,-0.278,4.316,-1.032,-0.734,-0.124
259.0,-11.897,-0.278,4.316,-1.032,-0.734,-0.124
263.0,-11.91,-0.354,4.205,-0.939,-0.976,-0.183
267.0,-11.91,-0.354,4.205,-0.939,-0.976,-0.183
271.0,-11.673,-0.52,4.308,-0.939,-1.175,-0.234
275.0,-11.673,-0.52,4.308,-0.829,-1.175,-0.234
280.0,-11.673,-0.52,4.308,-0.829,-1.175,-0.234
284.0,-11.615,-0.671,4.607,-0.708,-1.34,-0.298
288.0,-11.615,-0.671,4.607,-0.708,-1.34,-0.298
292.0,-11.83,-0.705,5.009,-0.586,-1.491,-0.381
296.0,-11.83,-0.705,5.009,-0.586,-1.491,-0.381
300.0,-11.83,-0.705,5.009,-0.586,-1.491,-0.381
304.0,-12.307,-0.696,5.62,-0.474,-1.637,-0.486
308.0,-12.307,-0.696,5.62,-0.474,-1.637,-0.486
312.0,-12.827,-0.608,6.363,-0.374,-1.795,-0.601
316.0,-12.827,-0.608,6.363,-0.374,-1.795,-0.601
320.0,-13.325,-0.454,7.084,-0.374,-1.795,-0.601
324.0,-13.325,-0.454,7.084,-0.287,-1.978,-0.706
328.0,-13.325,-0.454,7.084,-0.287,-1.978,-0.706
333.0,-13.694,-0.273,7.859,-0.207,-2.181,-0.783
337.0,-13.694,-0.273,7.859,-0.207,-2.181,-0.783
341.0,-14.012,-0.15,8.695,-0.121,-2.393,-0.822
345.0,-14.012,-0.15,8.695,-0.121,-2.393,-0.822
349.0,-14.012,-0.15,8.695,-0.121,-2.393,-0.822
353.0,-14.096,-0.309,9.364,-0.019,-2.614,-0.817
357.0,-14.096,-0.309,9.364,-0.019,-2.614,-0.817
361.0,-13.968,-0.646,9.865,0.095,-2.828,-0.778
365.0,-13.968,-0.646,9.865,0.095,-2.828,-0.778
369.0,-13.968,-0.646,9.865,0.095,-2.828,-0.778
373.0,-13.683,-0.933,10.333,0.218,-3.028,-0.716
377.0,-13.683,-0.933,10.333,0.218,-3.028,-0.716
381.0,-13.339,-1.232,10.695,0.352,-3.213,-0.639
385.0,-13.339,-1.232,10.695,0.352,-3.213,-0.639
389.0,-13.087,-1.577,11.09,0.352,-3.213,-0.639
394.0,-13.087,-1.577,11.09,0.489,-3.399,-0.57
398.0,-13.087,-1.577,11.09,0.489,-3.399,-0.57
402.0,-13.136,-1.993,11.418,0.619,-3.608,-0.529
406.0,-13.136,-1.993,11.418,0.619,-3.608,-0.529
410.0,-13.209,-2.329,11.642,0.751,-3.834,-0.513
414.0,-13.209,-2.329,11.642,0.751,-3.834,-0.513
418.0,-13.209,-2.329,11.642,0.751,-3.834,-0.513
422.0,-12.906,-2.811,11.841,0.884,-4.067,-0.515
426.0,-12.906,-2.811,11.841,0.884,-4.067,-0.515
430.0,-12.62,-3.091,12.182,1.017,-4.285,-0.549
434.0,-12.62,-3.091,12.182,1.017,-4.285,-0.549
438.0,-12.62,-3.091,12.783,1.017,-4.285,-0.549
442.0,-12.68,-3.321,12.783,1.149,-4.496,-0.605
447.0,-12.68,-3.321,12.783,1.149,-4.496,-0.605
451.0,-12.858,-3.604,13.384,1.257,-4.73,-0.668
455.0,-12.858,-3.604,13.384,1.257,-4.73,-0.668
459.0,-12.848,-4.074,13.885,1.257,-4.73,-0.754
463.0,-12.848,-4.074,13.885,1.318,-4.943,-0.754
467.0,-12.848,-4.074,13.885,1.318,-4.943,-0.754
471.0,-12.695,-4.697,14.162,1.328,-4.992,-0.874
475.0,-12.695,-4.697,14.162,1.328,-4.992,-0.874
479.0,-12.586,-5.231,14.434,1.309,-4.992,-1.012
483.0,-12.586,-5.231,14.434,1.309,-4.992,-1.012
487.0,-12.586,-5.231,14.434,1.309,-4.992,-1.012
491.0,-12.553,-5.845,14.626,1.297,-4.992,-1.148
496.0,-12.553,-5.845,14.626,1.297,-4.992,-1.148
500.0,-12.358,-6.696,14.538,1.336,-4.992,-1.27
504.0,-12.358,-6.696,14.538,1.336,-4.992,-1.27
508.0,-12.358,-7.538,14.294,1.336,-4.992,-1.27
512.0,-11.809,-7.538,14.294,1.468,-4.992,-1.388
516.0,-11.809,-7.538,14.294,1.468,-4.992,-1.388
520.0,-11.213,-8.263,13.822,1.694,-4.992,-1.517
524.0,-11.213,-8.263,13.822,1.694,-4.992,-1.517
528.0,-10.527,-8.853,13.28,1.694,-4.992,-1.659
532.0,-10.527,-8.853,13.28,2.026,-4.992,-1.659
536.0,-10.527,-8.853,13.28,2.026,-4.992,-1.659
540.0,-9.695,-9.047,12.509,2.408,-4.992,-1.809
544.0,-9.695,-9.047,12.509,2.408,-4.992,-1.809
548.0,-8.562,-8.866,11.758,2.793,-4.992,-1.939
552.0,-8.562,-8.866,11.758,2.793,-4.992,-1.939
556.0,-8.562,-8.866,11.758,2.793,-4.992,-1.939
560.0,-7.441,-8.508,11.177,3.131,-4.992,-2.044
564.0,-7.441,-8.508,11.177,3.131,-4.992,-2.044
568.0,-6.698,-8.383,10.853,3.404,-4.992,-2.152
572.0,-6.698,-8.383,10.853,3.404,-4.992,-2.152
576.0,-6.698,-8.383,10.853,3.404,-4.992,-2.152
580.0,-6.495,-7.991,10.478,3.631,-4.992,-2.271
584.0,-6.495,-7.991,10.478,3.631,-4.992,-2.271
588.0,-5.965,-7.506,9.987,3.844,-4.992,-2.364
592.0,-5.965,-7.506,9.987,3.844,-4.992,-2.364
596.0,-5.965,-7.506,9.987,3.844,-4.992,-2.364
600.0,-5.155,-7.131,9.319,4.027,-4.992,-2.406
604.0,-5.155,-7.131,9.319,4.027,-4.992,-2.406
608.0,-4.189,-6.639,8.411,4.16,-4.992,-2.411
612.0,-4.189,-6.639,8.411,4.16,-4.992,-2.411
616.0,-4.189,-6.639,8.411,4.16,-4.992,-2.411
620.0,-3.634,-6.115,7.142,4.282,-4.992,-2.424
623.0,-3.634,-6.115,7.142,4.282,-4.992,-2.424
627.0,-2.589,-5.356,6.038,4.413,-4.992,-2.459
631.0,-2.589,-5.356,6.038,4.413,-4.992,-2.459
635.0,-2.589,-5.356,6.038,4.413,-4.992,-2.459
639.0,-1.759,-4.7,4.988,4.454,-4.992,-2.48
643.0,-1.759,-4.7,4.988,4.454,-4.992,-2.48
647.0,-0.778,-4.314,4.139,4.408,-4.992,-2.462
651.0,-0.778,-4.314,4.139,4.408,-4.992,-2.462
655.0,-0.778,-4.314,4.139,4.408,-4.992,-2.462
659.0,-0.147,-4.343,3.503,4.327,-4.992,-2.487
663.0,-0.147,-4.343,3.503,4.327,-4.992,-2.487
666.0,0.166,-4.268,2.87,4.257,-4.969,-2.615
670.0,0.166,-4.268,2.87,4.257,-4.969,-2.615
674.0,0.166,-4.268,2.87,4.257,-4.969,-2.615
678.0,0.387,-4.113,2.539,4.2,-4.756,-2.793
682.0,0.387,-4.113,2.539,4.2,-4.756,-2.793
686.0,0.526,-3.937,2.417,4.2,-4.756,-2.793
689.0,0.526,-3.937,2.417,4.151,-4.44,-2.947
693.0,0.526,-3.937,2.417,4.151,-4.44,-2.947
697.0,0.324,-3.664,2.213,4.112,-4.135,-3.057
701.0,0.324,-3.664,2.213,4.112,-4.135,-3.057
705.0,0.324,-3.664,2.213,4.112,-4.135,-3.057
708.0,0.257,-3.091,1.793,4.082,-3.86,-3.144
712.0,0.257,-3.091,1.793,4.082,-3.86,-3.144
716.0,0.3,-2.37,1.36,4.058,-3.606,-3.225
720.0,0.3,-2.37,1.36,4.058,-3.606,-3.225
724.0,0.3,-2.37,1.36,4.058,-3.606,-3.225
728.0,0.517,-1.222,0.68,4.05,-3.366,-3.278
731.0,0.517,-1.222,0.68,4.05,-3.366,-3.278
735.0,0.778,0.388,-0.19,4.05,-3.366,-3.272
739.0,0.778,0.388,-0.19,4.058,-3.114,-3.272
743.0,0.778,0.388,-0.19,4.058,-3.114,-3.272
747.0,1.248,2.055,-1.108,4.068,-2.858,-3.185
750.0,1.248,2.055,-1.108,4.068,-2.858,-3.185
754.0,1.248,2.055,-1.951,4.068,-2.858,-3.185
758.0,1.814,3.862,-1.951,4.061,-2.582,-3.079
762.0,1.814,3.862,-1.951,4.061,-2.582,-3.079
766.0,2.243,5.983,-3.017,4.046,-2.278,-2.952
770.0,2.243,5.983,-3.017,4.046,-2.278,-2.952
773.0,2.243,5.983,-3.017,4.046,-2.278,-2.952
777.0,2.922,7.923,-3.904,4.033,-1.949,-2.728
781.0,2.922,7.923,-3.904,4.033,-1.949,-2.728
785.0,3.631,9.347,-4.397,4.033,-1.603,-2.421
789.0,3.631,9.347,-4.397,4.033,-1.603,-2.421
792.0,3.631,9.347,-4.397,4.033,-1.603,-2.421
796.0,3.96,10.451,-4.463,4.054,-1.264,-2.078
800.0,3.96,10.451,-4.463,4.054,-1.264,-2.078
804.0,3.809,11.442,-4.308,4.054,-1.264,-2.078
808.0,3.809,11.442,-4.308,4.089,-0.941,-1.713
812.0,3.809,11.442,-4.308,4.089,-0.941,-1.713
816.0,3.623,12.482,-4.542,4.108,-0.638,-1.316
820.0,3.623,12.482,-4.542,4.108,-0.638,-1.316
824.0,3.623,13.558,-5.024,4.108,-0.638,-1.316
828.0,3.671,13.558,-5.024,4.089,-0.326,-0.889
831.0,3.671,13.558,-5.024,4.089,-0.326,-0.889
835.0,3.873,14.979,-6.243,4.046,0.024,-0.468
839.0,3.873,14.979,-6.243,4.046,0.024,-0.468
843.0,3.873,14.979,-6.243,4.046,0.024,-0.468
847.0,4.598,16.56,-8.085,3.952,0.424,-0.026
851.0,4.598,16.56,-8.085,3.952,0.424,-0.026
854.0,6.197,18.748,-10.62,3.732,0.915,0.458
858.0,6.197,18.748,-10.62,3.732,0.915,0.458
862.0,6.197,18.748,-10.62,3.732,0.915,0.458
866.0,7.711,19.593,-13.755,3.321,1.601,1.008
870.0,7.711,19.593,-13.755,3.321,1.601,1.008
874.0,9.837,19.596,-15.748,3.321,2.317,1.591
877.0,9.837,19.596,-15.748,2.793,2.317,1.591
881.0,9.837,19.596,-15.748,2.793,2.317,1.591
885.0,10.676,19.596,-15.304,2.129,3.164,2.197
889.0,10.676,19.596,-15.304,2.129,3.164,2.197
893.0,10.124,19.596,-13.755,2.129,3.164,2.197
897.0,10.124,19.596,-13.755,1.47,3.985,2.814
901.0,10.124,19.596,-13.755,1.47,3.985,2.814
905.0,8.17,19.596,-11.292,0.929,4.699,3.448
908.0,8.17,19.596,-11.292,0.929,4.699,3.448
912.0,8.17,19.596,-11.292,0.929,4.699,3.448
916.0,5.123,19.0,-8.192,0.512,5.006,4.071
920.0,5.123,19.0,-8.192,0.512,5.006,4.071
923.0,2.179,16.949,-5.72,0.178,5.015,4.659
927.0,2.179,16.949,-5.72,0.178,5.015,4.659
931.0,2.179,16.949,-5.72,0.178,5.015,4.659
935.0,-0.689,13.881,-3.241,-0.141,5.015,4.991
939.0,-0.689,13.881,-3.241,-0.141,5.015,4.991
942.0,-3.926,10.221,-0.549,-0.141,5.015,5.013
946.0,-3.926,10.221,-0.549,-0.473,5.015,5.013
950.0,-3.926,10.221,-0.549,-0.473,5.015,5.013
954.0,-7.498,7.216,1.625,-0.857,5.015,5.013
958.0,-7.498,7.216,1.625,-0.857,5.015,5.013
962.0,-7.498,7.216,2.786,-0.857,5.015,5.013
965.0,-11.141,4.692,2.786,-1.338,5.015,5.013
969.0,-11.141,4.692,2.786,-1.338,5.015,5.013
973.0,-16.631,2.678,3.458,-1.92,4.881,5.011
977.0,-16.631,2.678,3.458,-1.92,4.881,5.011
981.0,-16.631,2.678,3.458,-1.92,4.881,5.011
984.0,-19.592,-1.691,2.106,-2.405,4.172,4.851
988.0,-19.592,-1.691,2.106,-2.405,4.172,4.851
992.0,-19.6,-6.996,3.395,-2.447,3.172,4.254
996.0,-19.6,-6.996,3.395,-2.447,3.172,4.254
1000.0,-19.6,-6.996,3.395,-2.447,3.172,4.254
1004.0,-19.338,-9.129,7.576,-2.171,1.877,3.392
1008.0,-19.338,-9.129,7.576,-2.171,1.877,3.392
1012.0,-14.204,-9.424,8.829,-1.958,0.548,2.33
1016.0,-14.204,-9.424,8.829,-1.958,0.548,2.33
1020.0,-14.204,-9.424,8.829,-1.958,0.548,2.33
1024.0,-9.645,-8.672,7.397,-1.903,-0.435,1.08
1028.0,-9.645,-8.672,7.397,-1.903,-0.435,1.08
1032.0,-7.231,-7.429,6.271,-2.02,-1.146,-0.142
1036.0,-7.231,-7.429,6.271,-2.02,-1.146,-0.142
1040.0,-7.231,-7.429,6.271,-2.02,-1.146,-0.142
1044.0,-5.387,-6.178,5.574,-2.229,-1.656,-1.176
1048.0,-5.387,-6.178,5.574,-2.229,-1.656,-1.176
1052.0,-3.885,-5.399,5.355,-2.387,-1.998,-1.962
1057.0,-3.885,-5.399,5.355,-2.387,-1.998,-1.962
1061.0,-2.578,-5.03,5.541,-2.387,-1.998,-1.962
1065.0,-2.578,-5.03,5.541,-2.412,-2.262,-2.523
1069.0,-2.578,-5.03,5.541,-2.412,-2.262,-2.523
1073.0,-1.381,-4.657,5.554,-2.306,-2.492,-2.926
1077.0,-1.381,-4.657,5.554,-2.306,-2.492,-2.926
1081.0,-0.245,-4.187,5.103,-2.111,-2.686,-3.237
1085.0,-0.245,-4.187,5.103,-2.111,-2.686,-3.237
1089.0,-0.245,-4.187,5.103,-2.111,-2.686,-3.237
1093.0,0.779,-3.707,4.636,-1.871,-2.83,-3.507
1097.0,0.779,-3.707,4.636,-1.871,-2.83,-3.507
1101.0,1.868,-3.106,4.186,-1.597,-2.919,-3.778
1105.0,1.868,-3.106,4.186,-1.597,-2.919,-3.778
1109.0,1.868,-3.106,4.186,-1.597,-2.919,-3.778
1113.0,2.958,-2.178,3.867,-1.289,-2.936,-4.052
1117.0,2.958,-2.178,3.867,-1.289,-2.936,-4.052
1121.0,4.161,-1.092,3.864,-0.937,-2.9,-4.295
1125.0,4.161,-1.092,3.864,-0.937,-2.9,-4.295
1129.0,4.161,-1.092,3.864,-0.937,-2.9,-4.295
1133.0,5.395,0.248,4.205,-0.535,-2.825,-4.486
1137.0,5.395,0.248,4.205,-0.535,-2.825,-4.486
1141.0,6.381,1.864,4.563,-0.053,-2.748,-4.599
1145.0,6.381,1.864,4.563,-0.053,-2.748,-4.599
1149.0,6.381,1.864,4.563,-0.053,-2.748,-4.599
1153.0,7.05,3.507,4.759,0.52,-2.697,-4.614
1157.0,7.05,3.507,4.759,0.52,-2.697,-4.614
1160.0,7.345,5.261,4.516,1.167,-2.679,-4.541
1164.0,7.345,5.261,4.516,1.167,-2.679,-4.541
1168.0,7.345,5.261,4.516,1.167,-2.679,-4.541
1172.0,7.388,6.735,3.83,1.851,-2.714,-4.404
1176.0,7.388,6.735,3.83,1.851,-2.714,-4.404
1179.0,7.679,8.661,2.442,1.851,-2.714,-4.265
1183.0,7.679,8.661,2.442,2.494,-2.79,-4.265
1187.0,7.679,8.661,2.442,2.494,-2.79,-4.265
1191.0,7.893,10.682,0.96,3.032,-2.876,-4.131
1195.0,7.893,10.682,0.96,3.032,-2.876,-4.131
1199.0,7.893,13.368,-0.964,3.032,-2.876,-4.131
1203.0,8.55,13.368,-0.964,3.442,-2.985,-3.952
1207.0,8.55,13.368,-0.964,3.442,-2.985,-3.952
1211.0,9.37,15.945,-3.276,3.745,-2.996,-3.61
1215.0,9.37,15.945,-3.276,3.745,-2.996,-3.61
1219.0,10.338,18.163,-5.807,3.745,-2.996,-3.61
1223.0,10.338,18.163,-5.807,3.988,-2.884,-3.132
1227.0,10.338,18.163,-5.807,3.988,-2.884,-3.132
1231.0,11.753,19.558,-8.998,4.153,-2.655,-2.599
1235.0,11.753,19.558,-8.998,4.153,-2.655,-2.599
1239.0,13.613,19.596,-13.351,4.054,-2.24,-1.994
1243.0,13.613,19.596,-13.351,4.054,-2.24,-1.994
1247.0,13.613,19.596,-13.351,4.054,-2.24,-1.994
1252.0,15.467,19.402,-16.799,3.535,-1.604,-1.356
1256.0,15.467,19.402,-16.799,3.535,-1.604,-1.356
1260.0,16.226,19.563,-18.252,2.682,-0.862,-0.832
1264.0,16.226,19.563,-18.252,2.682,-0.862,-0.832
1268.0,15.476,19.596,-18.16,2.682,-0.862,-0.345
1272.0,15.476,19.596,-18.16,1.756,-0.083,-0.345
1277.0,15.476,19.596,-18.16,1.756,-0.083,-0.345
1281.0,13.243,19.596,-16.1,0.99,0.726,0.116
1285.0,13.243,19.596,-16.1,0.99,0.726,0.116
1289.0,10.213,19.596,-14.01,0.475,1.472,0.575
1293.0,10.213,19.596,-14.01,0.475,1.472,0.575
1297.0,10.213,19.596,-14.01,0.475,1.472,0.575
1301.0,7.735,19.596,-13.056,0.139,2.097,1.083
1305.0,7.735,19.596,-13.056,0.139,2.097,1.083
1309.0,7.542,19.596,-12.544,-0.091,2.655,1.682
1313.0,7.542,19.596,-12.544,-0.091,2.655,1.682
1317.0,7.542,19.596,-12.544,-0.091,2.655,1.682
1321.0,8.897,19.596,-13.109,-0.203,3.23,2.312
1324.0,8.897,19.596,-13.109,-0.203,3.23,2.312
1328.0,9.857,19.596,-13.21,-0.222,3.872,2.949
1332.0,9.857,19.596,-13.21,-0.222,3.872,2.949
1336.0,9.857,19.596,-13.21,-0.222,3.872,2.949
1340.0,9.255,19.506,-11.827,-0.167,4.528,3.56
1344.0,9.255,19.506,-11.827,-0.167,4.528,3.56
1348.0,7.851,17.793,-10.132,-0.027,4.962,4.145
1352.0,7.851,17.793,-10.132,-0.027,4.962,4.145
1356.0,7.851,17.793,-7.927,-0.027,4.962,4.145
1360.0,6.251,15.161,-7.927,0.172,5.015,4.7
1364.0,6.251,15.161,-7.927,0.172,5.015,4.7
1368.0,4.164,12.485,-5.294,0.363,5.015,4.995
1372.0,4.164,12.485,-5.294,0.363,5.015,4.995
1376.0,4.164,12.485,-5.294,0.363,5.015,4.995
1379.0,1.299,9.794,-2.83,0.488,5.015,5.013
1383.0,1.299,9.794,-2.83,0.488,5.015,5.013
1387.0,-2.504,7.035,-0.306,0.488,5.015,5.013
1391.0,-2.504,7.035,-0.306,0.492,5.015,5.013
1395.0,-2.504,7.035,-0.306,0.492,5.015,5.013
1398.0,-7.244,4.741,2.78,0.349,5.015,5.013
1402.0,-7.244,4.741,2.78,0.349,5.015,5.013
1406.0,-7.244,4.741,4.913,0.349,5.015,5.013
1410.0,-12.66,3.962,4.913,0.052,5.015,5.013
1413.0,-12.66,3.962,4.913,0.052,5.015,5.013
1417.0,-18.677,3.352,4.757,-0.363,4.976,5.007
1421.0,-18.677,3.352,4.757,-0.363,4.976,5.007
1425.0,-18.677,3.352,4.757,-0.363,4.976,5.007
1429.0,-19.6,0.386,3.159,-0.775,4.393,4.859
1433.0,-19.6,0.386,3.159,-0.775,4.393,4.859
1437.0,-19.6,-2.554,4.749,-1.113,3.229,4.431
1441.0,-19.6,-2.554,4.749,-1.113,3.229,4.431
1445.0,-19.6,-2.554,4.749,-1.113,3.229,4.431
1449.0,-17.289,-3.661,5.976,-1.473,1.82,3.794
1453.0,-17.289,-3.661,5.976,-1.473,1.82,3.794
1457.0,-9.777,-4.104,4.614,-1.901,0.682,2.909
1461.0,-9.777,-4.104,4.614,-1.901,0.682,2.909
1465.0,-9.777,-4.104,4.614,-1.901,0.682,2.909
1468.0,-5.153,-4.119,3.513,-2.395,-0.032,1.811
1472.0,-5.153,-4.119,3.513,-2.395,-0.032,1.811
1476.0,-2.473,-3.578,3.335,-2.947,-0.541,0.727
1480.0,-2.473,-3.578,3.335,-2.947,-0.541,0.727
1484.0,-2.473,-3.578,3.335,-2.947,-0.541,0.727
1488.0,-0.504,-3.016,3.355,-3.46,-0.952,-0.212
1492.0,-0.504,-3.016,3.355,-3.46,-0.952,-0.212
1497.0,1.33,-2.492,3.309,-3.828,-1.276,-1.01
1501.0,1.33,-2.492,3.309,-3.828,-1.276,-1.01
1505.0,1.33,-2.492,3.33,-3.828,-1.276,-1.01
1509.0,3.237,-1.569,3.33,-4.029,-1.497,-1.633
1513.0,3.237,-1.569,3.33,-4.029,-1.497,-1.633
1517.0,5.61,-0.607,3.541,-4.073,-1.606,-1.992
1520.0,5.61,-0.607,3.541,-4.073,-1.606,-1.992
1524.0,5.61,0.225,3.549,-4.073,-1.606,-1.992
1528.0,8.993,0.225,3.549,-3.944,-1.666,-2.076
1532.0,8.993,0.225,3.549,-3.944,-1.666,-2.076
1536.0,12.02,1.003,2.818,-3.615,-1.637,-1.974
1540.0,12.02,1.003,2.818,-3.615,-1.637,-1.974
1544.0,12.02,1.514,2.089,-3.615,-1.637,-1.974
1548.0,13.92,1.514,2.089,-3.087,-1.409,-1.743
1552.0,13.92,1.514,2.089,-3.087,-1.409,-1.743
1556.0,15.105,1.696,1.998,-2.402,-0.997,-1.437
1560.0,15.105,1.696,1.998,-2.402,-0.997,-1.437
1564.0,15.367,1.635,2.338,-2.402,-0.997,-1.437
1568.0,15.367,1.635,2.338,-1.612,-0.516,-1.103
1572.0,15.367,1.635,2.338,-1.612,-0.516,-1.103
1576.0,15.112,1.504,3.0,-0.766,-0.084,-0.796
1580.0,15.112,1.504,3.0,-0.766,-0.084,-0.796
1584.0,14.114,1.99,3.463,-0.766,-0.084,-0.558
1588.0,14.114,1.99,3.463,0.088,0.242,-0.558
1592.0,14.114,1.99,3.463,0.088,0.242,-0.558
1596.0,12.741,2.902,3.696,0.902,0.455,-0.344
1600.0,12.741,2.902,3.696,0.902,0.455,-0.344
1603.0,12.741,3.679,3.891,0.902,0.455,-0.344
1607.0,11.466,3.679,3.891,1.628,0.588,-0.139
1611.0,11.466,3.679,3.891,1.628,0.588,-0.139
1615.0,10.283,4.315,3.957,2.243,0.669,0.027
1619.0,10.283,4.315,3.957,2.243,0.669,0.027
1622.0,10.283,4.315,3.957,2.243,0.669,0.027
1626.0,9.199,4.909,3.764,2.73,0.693,0.138
1630.0,9.199,4.909,3.764,2.73,0.693,0.138
1633.0,8.495,5.304,3.537,2.73,0.693,0.195
1637.0,8.495,5.304,3.537,3.061,0.672,0.195
1641.0,8.495,5.304,3.537,3.061,0.672,0.195
1644.0,7.861,5.524,3.243,3.229,0.629,0.222
1648.0,7.861,5.524,3.243,3.229,0.629,0.222
1652.0,7.861,5.524,3.243,3.229,0.629,0.222
1655.0,7.326,5.679,2.946,3.258,0.58,0.239
1659.0,7.326,5.679,2.946,3.258,0.58,0.239
1663.0,7.326,5.679,2.74,3.258,0.58,0.239
1666.0,6.954,5.79,2.74,3.17,0.541,0.236
1670.0,6.954,5.79,2.74,3.17,0.541,0.236
1673.0,6.791,5.776,2.673,2.986,0.503,0.225
1677.0,6.791,5.776,2.673,2.986,0.503,0.225
1681.0,6.791,5.776,2.673,2.986,0.503,0.225
1684.0,6.638,5.821,2.63,2.724,0.456,0.194
1688.0,6.638,5.821,2.63,2.724,0.456,0.194
1692.0,6.638,5.821,2.63,2.724,0.456,0.194
1695.0,6.313,6.081,2.649,2.401,0.407,0.128
1699.0,6.313,6.081,2.649,2.401,0.407,0.128
1703.0,5.865,6.422,2.617,2.401,0.349,0.053
1706.0,5.865,6.422,2.617,2.026,0.349,0.053
1710.0,5.865,6.422,2.617,2.026,0.349,0.053
1714.0,5.546,6.673,2.53,1.606,0.281,-0.016
1717.0,5.546,6.673,2.53,1.606,0.281,-0.016
1721.0,5.546,6.673,2.53,1.606,0.281,-0.016
1725.0,5.472,6.867,2.351,1.159,0.215,-0.089
1728.0,5.472,6.867,2.351,1.159,0.215,-0.089
1732.0,5.712,7.027,2.015,1.159,0.215,-0.162
1736.0,5.712,7.027,2.015,0.702,0.161,-0.162
1740.0,5.712,7.027,2.015,0.702,0.161,-0.162
1743.0,6.224,6.954,1.97,0.256,0.127,-0.231
1747.0,6.224,6.954,1.97,0.256,0.127,-0.231
1751.0,6.224,6.954,1.97,0.256,0.127,-0.231
1755.0,6.673,6.594,2.238,-0.156,0.099,-0.305
1758.0,6.673,6.594,2.238,-0.156,0.099,-0.305
1762.0,6.999,6.176,2.533,-0.502,0.056,-0.379
1766.0,6.999,6.176,2.533,-0.502,0.056,-0.379
1770.0,6.999,6.176,2.533,-0.502,0.056,-0.379
1774.0,7.228,5.88,2.779,-0.758,0.008,-0.449
1778.0,7.228,5.88,2.779,-0.758,0.008,-0.449
1781.0,7.378,5.763,3.065,-0.758,0.008,-0.449
1785.0,7.378,5.763,3.065,-0.921,-0.035,-0.498
1789.0,7.378,5.763,3.065,-0.921,-0.035,-0.498
1793.0,7.502,5.782,3.253,-1.009,-0.08,-0.501
1797.0,7.502,5.782,3.253,-1.009,-0.08,-0.501
1801.0,7.502,5.707,3.285,-1.009,-0.08,-0.501
1805.0,7.741,5.707,3.285,-1.041,-0.127,-0.457
1809.0,7.741,5.707,3.285,-1.041,-0.127,-0.457
1813.0,8.097,5.63,3.169,-1.033,-0.162,-0.395
1816.0,8.097,5.63,3.169,-1.033,-0.162,-0.395
1820.0,8.097,5.63,2.993,-1.033,-0.162,-0.395
1824.0,8.423,5.618,2.993,-1.002,-0.178,-0.328
1828.0,8.423,5.618,2.993,-1.002,-0.178,-0.328
1832.0,8.718,5.551,2.879,-0.957,-0.176,-0.251
1836.0,8.718,5.551,2.879,-0.957,-0.176,-0.251
1840.0,8.718,5.551,2.879,-0.957,-0.176,-0.251
1844.0,8.92,5.511,2.79,-0.894,-0.158,-0.18
1848.0,8.92,5.511,2.79,-0.894,-0.158,-0.18
1852.0,8.951,5.454,2.77,-0.814,-0.124,-0.12
1855.0,8.951,5.454,2.77,-0.814,-0.124,-0.12
1859.0,8.951,5.454,2.77,-0.814,-0.124,-0.12
1863.0,8.739,5.337,2.847,-0.723,-0.083,-0.065
1867.0,8.739,5.337,2.847,-0.723,-0.083,-0.065
1871.0,8.396,5.139,2.963,-0.627,-0.049,-0.024
1875.0,8.396,5.139,2.963,-0.627,-0.049,-0.024
1879.0,8.396,5.139,2.963,-0.627,-0.049,-0.024
1883.0,8.013,4.965,3.109,-0.525,-0.025,-0.008
1887.0,8.013,4.965,3.109,-0.525,-0.025,-0.008
1891.0,7.656,4.834,3.278,-0.424,-0.01,-0.013
1895.0,7.656,4.834,3.278,-0.424,-0.01,-0.013
1898.0,7.656,4.834,3.278,-0.424,-0.01,-0.013
1902.0,7.36,4.756,3.431,-0.323,-0.009,-0.025
1906.0,7.36,4.756,3.431,-0.323,-0.009,-0.025
1910.0,7.213,4.717,3.468,-0.22,-0.024,-0.038
1914.0,7.213,4.717,3.468,-0.22,-0.024,-0.038
1918.0,7.213,4.717,3.468,-0.22,-0.024,-0.038
1922.0,7.281,4.7,3.36,-0.118,-0.043,-0.056
1926.0,7.281,4.7,3.36,-0.118,-0.043,-0.056
1930.0,7.592,4.704,3.178,-0.118,-0.053,-0.068
1934.0,7.592,4.704,3.178,-0.017,-0.053,-0.068
1938.0,7.592,4.704,3.178,-0.017,-0.053,-0.068
1941.0,7.88,4.722,3.04,0.074,-0.041,-0.073
1945.0,7.88,4.722,3.04,0.074,-0.041,-0.073
1949.0,7.991,4.768,2.937,0.074,-0.041,-0.073
1953.0,7.991,4.768,2.937,0.153,-0.018,-0.073
1957.0,7.991,4.768,2.937,0.153,-0.018,-0.073
1961.0,7.969,4.869,2.919,0.218,0.008,-0.066
1964.0,7.969,4.869,2.919,0.218,0.008,-0.066
1968.0,7.969,4.869,2.919,0.218,0.008,-0.066
1972.0,7.868,4.988,2.922,0.273,0.03,-0.055
1975.0,7.868,4.988,2.922,0.273,0.03,-0.055
1979.0,7.732,5.096,2.871,0.309,0.043,-0.04
1983.0,7.732,5.096,2.871,0.309,0.043,-0.04
1987.0,7.732,5.096,2.871,0.309,0.043,-0.04
1990.0,7.61,5.209,2.809,0.322,0.046,-0.03
1994.0,7.61,5.209,2.809,0.322,0.046,-0.03
1998.0,7.61,5.209,2.809,0.322,0.046,-0.03
2002.0,7.527,5.247,2.795,0.322,0.045,-0.023
2005.0,7.527,5.247,2.795,0.322,0.045,-0.023
2009.0,7.538,5.221,2.792,0.312,0.045,-0.024
2013.0,7.538,5.221,2.792,0.312,0.045,-0.024
2017.0,7.538,5.221,2.792,0.312,0.045,-0.024
2020.0,7.582,5.249,2.813,0.299,0.047,-0.031
2024.0,7.582,5.249,2.813,0.299,0.047,-0.031
2028.0,7.582,5.249,2.858,0.299,0.047,-0.031
2031.0,7.638,5.306,2.858,0.288,0.053,-0.04
2035.0,7.638,5.306,2.858,0.288,0.053,-0.04
2039.0,7.653,5.36,2.865,0.277,0.061,-0.046
2043.0,7.653,5.36,2.865,0.277,0.061,-0.046
2046.0,7.653,5.36,2.865,0.277,0.061,-0.046
2050.0,7.701,5.447,2.821,0.263,0.07,-0.047
2054.0,7.701,5.447,2.821,0.263,0.07,-0.047
2058.0,7.769,5.535,2.837,0.263,0.07,-0.047
2061.0,7.769,5.535,2.837,0.247,0.081,-0.042
2065.0,7.769,5.535,2.837,0.247,0.081,-0.042
2069.0,7.817,5.566,2.83,0.224,0.086,-0.028
2072.0,7.817,5.566,2.83,0.224,0.086,-0.028
2076.0,7.817,5.566,2.83,0.224,0.086,-0.028
2080.0,7.9,5.568,2.807,0.196,0.084,-0.014
2084.0,7.9,5.568,2.807,0.196,0.084,-0.014
2087.0,7.949,5.504,2.76,0.196,0.084,-0.006
2091.0,7.949,5.504,2.76,0.167,0.082,-0.006
2095.0,7.949,5.504,2.76,0.167,0.082,-0.006
2099.0,7.996,5.445,2.689,0.138,0.087,-0.005
2102.0,7.996,5.445,2.689,0.138,0.087,-0.005
2106.0,7.996,5.445,2.689,0.138,0.087,-0.005
2110.0,8.063,5.391,2.68,0.111,0.102,-0.01
2114.0,8.063,5.391,2.68,0.111,0.102,-0.01
2117.0,8.029,5.405,2.757,0.111,0.125,-0.026
2121.0,8.029,5.405,2.757,0.094,0.125,-0.026
2125.0,8.029,5.405,2.757,0.094,0.125,-0.026
2128.0,7.896,5.39,2.813,0.086,0.14,-0.03
2132.0,7.896,5.39,2.813,0.086,0.14,-0.03
2136.0,7.896,5.39,2.813,0.086,0.14,-0.03
2140.0,7.785,5.386,2.884,0.091,0.137,-0.025
2143.0,7.785,5.386,2.884,0.091,0.137,-0.025
2147.0,7.682,5.374,3.021,0.106,0.127,-0.022
2151.0,7.682,5.374,3.021,0.106,0.127,-0.022
2155.0,7.682,5.374,3.021,0.106,0.127,-0.022
2158.0,7.537,5.294,3.09,0.126,0.11,-0.017
2162.0,7.537,5.294,3.09,0.126,0.11,-0.017
2166.0,7.537,5.294,3.063,0.126,0.11,-0.017
2170.0,7.44,5.153,3.063,0.145,0.084,-0.011
2173.0,7.44,5.153,3.063,0.145,0.084,-0.011
2177.0,7.313,5.058,3.012,0.162,0.057,-0.024
2181.0,7.313,5.058,3.012,0.162,0.057,-0.024
2184.0,7.313,5.058,3.012,0.162,0.057,-0.024
2188.0,7.158,4.987,2.977,0.171,0.033,-0.045
2192.0,7.158,4.987,2.977,0.171,0.033,-0.045
2196.0,7.158,4.991,2.943,0.171,0.033,-0.045
2199.0,7.036,4.991,2.943,0.172,0.01,-0.061
2203.0,7.036,4.991,2.943,0.172,0.01,-0.061
2207.0,7.023,5.066,2.82,0.164,-0.017,-0.062
2211.0,7.023,5.066,2.82,0.164,-0.017,-0.062
2215.0,7.023,5.066,2.82,0.164,-0.017,-0.062
2218.0,7.149,5.105,2.678,0.147,-0.047,-0.049
2222.0,7.149,5.105,2.678,0.147,-0.047,-0.049
2226.0,7.351,5.057,2.517,0.118,-0.075,-0.034
2230.0,7.351,5.057,2.517,0.118,-0.075,-0.034
2234.0,7.351,5.057,2.517,0.118,-0.075,-0.034
2237.0,7.509,4.957,2.242,0.074,-0.093,-0.028
2241.0,7.509,4.957,2.242,0.074,-0.093,-0.028
2245.0,7.511,4.822,1.982,0.074,-0.093,-0.028
2249.0,7.511,4.822,1.982,0.016,-0.103,-0.035
2253.0,7.511,4.822,1.982,0.016,-0.103,-0.035
2257.0,7.344,4.734,1.801,-0.053,-0.117,-0.054
2260.0,7.344,4.734,1.801,-0.053,-0.117,-0.054
2264.0,7.344,4.734,1.801,-0.053,-0.117,-0.054
2268.0,7.235,4.683,1.595,-0.128,-0.137,-0.085
2272.0,7.235,4.683,1.595,-0.128,-0.137,-0.085
2276.0,7.171,4.687,1.429,-0.206,-0.147,-0.126
2280.0,7.171,4.687,1.429,-0.206,-0.147,-0.126
2284.0,7.171,4.687,1.429,-0.206,-0.147,-0.126
2288.0,7.168,4.647,1.274,-0.282,-0.162,-0.164
2292.0,7.168,4.647,1.274,-0.282,-0.162,-0.164
2296.0,7.224,4.735,1.038,-0.356,-0.18,-0.207
2299.0,7.224,4.735,1.038,-0.356,-0.18,-0.207
2303.0,7.224,4.735,1.038,-0.356,-0.18,-0.207
2307.0,7.327,4.869,0.755,-0.43,-0.181,-0.241
2311.0,7.327,4.869,0.755,-0.43,-0.181,-0.241
2315.0,7.419,4.899,0.537,-0.507,-0.159,-0.252
2319.0,7.419,4.899,0.537,-0.507,-0.159,-0.252
2323.0,7.419,4.899,0.537,-0.507,-0.159,-0.252
2327.0,7.402,4.749,0.282,-0.593,-0.124,-0.254
2331.0,7.402,4.749,0.282,-0.593,-0.124,-0.254
2335.0,7.351,4.449,0.028,-0.688,-0.074,-0.273
2339.0,7.351,4.449,0.028,-0.688,-0.074,-0.273
2342.0,7.351,4.449,0.028,-0.688,-0.074,-0.273
2346.0,7.28,4.098,-0.166,-0.785,0.004,-0.34
2350.0,7.28,4.098,-0.166,-0.785,0.004,-0.34
2354.0,7.117,3.769,-0.29,-0.785,0.096,-0.439
2358.0,7.117,3.769,-0.29,-0.879,0.096,-0.439
2362.0,7.117,3.769,-0.29,-0.879,0.096,-0.439
2366.0,6.887,3.504,-0.436,-0.959,0.188,-0.561
2370.0,6.887,3.504,-0.436,-0.959,0.188,-0.561
2374.0,6.708,3.393,-0.657,-0.959,0.188,-0.691
2378.0,6.708,3.393,-0.657,-1.013,0.28,-0.691
2382.0,6.708,3.393,-0.657,-1.013,0.28,-0.691
2385.0,6.541,3.296,-0.73,-1.045,0.379,-0.811
2389.0,6.541,3.296,-0.73,-1.045,0.379,-0.811
2393.0,6.365,3.121,-0.751,-1.045,0.379,-0.811
2397.0,6.365,3.121,-0.751,-1.06,0.481,-0.915
2401.0,6.365,3.121,-0.751,-1.06,0.481,-0.915
2405.0,6.133,2.873,-0.827,-1.06,0.585,-1.015
2409.0,6.133,2.873,-0.827,-1.06,0.585,-1.015
2413.0,6.133,2.819,-0.933,-1.06,0.585,-1.015
2417.0,5.853,2.819,-0.933,-1.047,0.698,-1.115
2421.0,5.853,2.819,-0.933,-1.047,0.698,-1.115
2424.0,5.726,3.091,-1.194,-1.013,0.828,-1.199
2428.0,5.726,3.091,-1.194,-1.013,0.828,-1.199
2432.0,5.726,3.091,-1.679,-1.013,0.828,-1.199
2436.0,6.008,3.513,-1.679,-0.95,0.993,-1.231
2440.0,6.008,3.513,-1.679,-0.95,0.993,-1.231
2444.0,6.614,3.843,-1.997,-0.865,1.199,-1.198
2448.0,6.614,3.843,-1.997,-0.865,1.199,-1.198
2452.0,6.614,3.843,-1.997,-0.865,1.199,-1.198
2456.0,7.21,3.995,-2.089,-0.766,1.435,-1.123
2460.0,7.21,3.995,-2.089,-0.766,1.435,-1.123
2464.0,7.362,3.811,-2.057,-0.659,1.687,-1.037
2467.0,7.362,3.811,-2.057,-0.659,1.687,-1.037
2471.0,7.362,3.811,-2.057,-0.659,1.687,-1.037
2475.0,6.955,3.413,-2.042,-0.55,1.94,-0.964
2479.0,6.955,3.413,-2.042,-0.55,1.94,-0.964
2483.0,6.168,2.953,-2.111,-0.447,2.189,-0.917
2487.0,6.168,2.953,-2.111,-0.447,2.189,-0.917
2491.0,6.168,2.953,-2.111,-0.447,2.189,-0.917
2495.0,5.176,2.55,-2.109,-0.359,2.433,-0.899
2499.0,5.176,2.55,-2.109,-0.359,2.433,-0.899
2503.0,4.202,2.205,-2.141,-0.297,2.661,-0.899
2507.0,4.202,2.205,-2.141,-0.297,2.661,-0.899
2510.0,4.202,2.205,-2.141,-0.297,2.661,-0.899
2514.0,3.365,1.934,-2.132,-0.263,2.873,-0.918
2518.0,3.365,1.934,-2.132,-0.263,2.873,-0.918
2522.0,2.643,1.801,-2.079,-0.254,3.069,-0.959
2526.0,2.643,1.801,-2.079,-0.254,3.069,-0.959
2530.0,2.643,1.801,-2.079,-0.254,3.069,-0.959
2534.0,2.055,1.721,-1.981,-0.269,3.251,-1.014
2538.0,2.055,1.721,-1.981,-0.269,3.251,-1.014
2542.0,1.516,1.68,-1.778,-0.269,3.429,-1.083
2546.0,1.516,1.68,-1.778,-0.303,3.429,-1.083
2549.0,1.516,1.68,-1.778,-0.303,3.429,-1.083
2553.0,1.024,1.618,-1.565,-0.349,3.605,-1.168
2557.0,1.024,1.618,-1.565,-0.349,3.605,-1.168
2561.0,0.525,1.513,-1.407,-0.349,3.605,-1.266
2565.0,0.525,1.513,-1.407,-0.403,3.782,-1.266
2569.0,0.525,1.513,-1.407,-0.403,3.782,-1.266
2573.0,-0.016,1.428,-1.227,-0.46,3.964,-1.371
2577.0,-0.016,1.428,-1.227,-0.46,3.964,-1.371
2581.0,-0.621,1.282,-1.134,-0.46,3.964,-1.371
2585.0,-0.621,1.282,-1.134,-0.516,4.146,-1.458
2589.0,-0.621,1.282,-1.134,-0.516,4.146,-1.458
2593.0,-1.251,1.018,-1.099,-0.573,4.325,-1.522
2597.0,-1.251,1.018,-1.099,-0.573,4.325,-1.522
2601.0,-1.938,0.703,-1.134,-0.573,4.505,-1.573
2605.0,-1.938,0.703,-1.134,-0.633,4.505,-1.573
2609.0,-1.938,0.703,-1.134,-0.633,4.505,-1.573
2613.0,-2.702,0.361,-1.275,-0.7,4.681,-1.617
2617.0,-2.702,0.361,-1.275,-0.7,4.681,-1.617
2621.0,-3.508,0.02,-1.431,-0.775,4.859,-1.663
2625.0,-3.508,0.02,-1.431,-0.775,4.859,-1.663
2629.0,-3.508,0.02,-1.431,-0.775,4.859,-1.663
2633.0,-4.527,-0.217,-1.574,-0.847,4.997,-1.737
2637.0,-4.527,-0.217,-1.574,-0.847,4.997,-1.737
2641.0,-5.634,-0.385,-1.563,-0.911,5.015,-1.824
2645.0,-5.634,-0.385,-1.563,-0.911,5.015,-1.824
2649.0,-5.634,-0.385,-1.563,-0.911,5.015,-1.824
2653.0,-6.568,-0.635,-1.473,-0.963,5.015,-1.898
2657.0,-6.568,-0.635,-1.473,-0.963,5.015,-1.898
2661.0,-7.415,-0.926,-1.428,-1.001,5.015,-1.955
2665.0,-7.415,-0.926,-1.428,-1.001,5.015,-1.955
2670.0,-8.298,-1.156,-1.416,-1.001,5.015,-1.955
2674.0,-8.298,-1.156,-1.416,-1.024,5.015,-2.005
2678.0,-8.298,-1.156,-1.416,-1.024,5.015,-2.005
2682.0,-9.223,-1.356,-1.415,-1.03,5.015,-2.045
2686.0,-9.223,-1.356,-1.415,-1.03,5.015,-2.045
2690.0,-10.309,-1.462,-1.147,-1.011,5.015,-2.085
2694.0,-10.309,-1.462,-1.147,-1.011,5.015,-2.085
2698.0,-10.309,-1.462,-1.147,-1.011,5.015,-2.085
2702.0,-11.548,-1.566,-0.51,-0.944,5.015,-2.131
2707.0,-11.548,-1.566,-0.51,-0.944,5.015,-2.131
2711.0,-12.936,-1.714,0.437,-0.805,5.015,-2.188
2715.0,-12.936,-1.714,0.437,-0.805,5.015,-2.188
2719.0,-14.437,-1.921,1.381,-0.805,5.015,-2.188
2723.0,-14.437,-1.921,1.381,-0.569,5.015,-2.265
2727.0,-14.437,-1.921,1.381,-0.569,5.015,-2.265
2731.0,-16.187,-2.065,2.118,-0.23,5.015,-2.36
2735.0,-16.187,-2.065,2.118,-0.23,5.015,-2.36
2739.0,-18.132,-2.094,2.448,0.187,5.015,-2.442
2743.0,-18.132,-2.094,2.448,0.187,5.015,-2.442
2747.0,-18.132,-2.094,2.448,0.187,5.015,-2.442
2751.0,-19.527,-1.985,2.341,0.637,5.015,-2.481
2755.0,-19.527,-1.985,2.341,0.637,5.015,-2.481
2759.0,-19.6,-1.759,1.88,1.059,5.015,-2.464
2763.0,-19.6,-1.759,1.88,1.059,5.015,-2.464
2767.0,-19.6,-1.759,1.88,1.059,5.015,-2.464
2771.0,-19.6,-1.544,1.197,1.4,5.015,-2.403
2775.0,-19.6,-1.544,1.197,1.4,5.015,-2.403
2779.0,-19.6,-1.285,0.529,1.62,5.015,-2.329
2783.0,-19.6,-1.285,0.529,1.62,5.015,-2.329
2787.0,-19.6,-1.285,0.529,1.62,5.015,-2.329
2791.0,-19.6,-0.983,0.309,1.699,5.015,-2.245
2795.0,-19.6,-0.983,0.309,1.699,5.015,-2.245
2799.0,-19.6,-0.659,0.563,1.632,5.015,-2.171
2803.0,-19.6,-0.659,0.563,1.632,5.015,-2.171
2807.0,-19.6,-0.659,0.563,1.632,5.015,-2.171
2811.0,-19.6,-0.199,1.279,1.459,5.015,-2.148
2815.0,-19.6,-0.199,1.279,1.459,5.015,-2.148
2819.0,-19.6,0.285,2.079,1.225,5.015,-2.21
2823.0,-19.6,0.285,2.079,1.225,5.015,-2.21
2827.0,-19.6,0.285,2.079,1.225,5.015,-2.21
2831.0,-19.6,0.863,2.698,0.972,5.015,-2.396
2835.0,-19.6,0.863,2.698,0.972,5.015,-2.396
2839.0,-19.6,1.542,3.165,0.718,5.015,-2.71
2843.0,-19.6,1.542,3.165,0.718,5.015,-2.71
2847.0,-19.6,1.542,3.165,0.718,5.015,-2.71
2850.0,-19.6,2.2,3.349,0.476,5.013,-3.134
2854.0,-19.6,2.2,3.349,0.476,5.013,-3.134
2858.0,-19.6,3.139,3.51,0.252,4.876,-3.614
2862.0,-19.6,3.139,3.51,0.252,4.876,-3.614
2866.0,-19.6,3.139,3.51,0.252,4.876,-3.614
2870.0,-19.6,3.929,3.607,0.047,4.518,-4.024
2874.0,-19.6,3.929,3.607,0.047,4.518,-4.024
2878.0,-19.6,4.239,3.471,-0.126,4.165,-4.281
2882.0,-19.6,4.239,3.471,-0.126,4.165,-4.281
2886.0,-19.6,4.239,3.471,-0.126,4.165,-4.281
2890.0,-19.6,4.323,3.383,-0.246,3.857,-4.398
2894.0,-19.6,4.323,3.383,-0.246,3.857,-4.398
2898.0,-19.6,4.298,3.293,-0.314,3.572,-4.421
2902.0,-19.6,4.298,3.293,-0.314,3.572,-4.421
2906.0,-19.6,4.298,3.293,-0.314,3.572,-4.421
2910.0,-19.6,4.159,3.343,-0.366,3.3,-4.388
2914.0,-19.6,4.159,3.343,-0.366,3.3,-4.388
2918.0,-19.6,3.988,3.516,-0.429,3.039,-4.335
2922.0,-19.6,3.988,3.516,-0.429,3.039,-4.335
2926.0,-19.6,3.988,3.516,-0.429,3.039,-4.335
2930.0,-19.6,3.899,3.705,-0.524,2.785,-4.272
2934.0,-19.6,3.899,3.705,-0.524,2.785,-4.272
2938.0,-19.548,3.797,4.158,-0.662,2.537,-4.19
2942.0,-19.548,3.797,4.158,-0.662,2.537,-4.19
2946.0,-19.548,3.797,4.454,-0.662,2.537,-4.19
2950.0,-19.414,3.717,4.454,-0.814,2.282,-4.082
2954.0,-19.414,3.717,4.454,-0.814,2.282,-4.082
2958.0,-19.575,4.178,4.781,-0.987,2.055,-3.963
2962.0,-19.575,4.178,4.781,-0.987,2.055,-3.963
2966.0,-18.873,4.127,5.361,-0.987,2.055,-3.963
2970.0,-18.873,4.127,5.361,-1.221,1.851,-3.87
2974.0,-18.873,4.127,5.361,-1.221,1.851,-3.87
2978.0,-18.174,4.043,5.589,-1.435,1.69,-3.778
2982.0,-18.174,4.043,5.589,-1.435,1.69,-3.778
2986.0,-16.429,6.727,5.238,-1.435,1.69,-3.778
2990.0,-16.429,6.727,5.238,-1.664,1.607,-3.632
2994.0,-16.429,6.727,5.238,-1.664,1.607,-3.632
2998.0,-16.614,8.076,5.241,-2.17,1.596,-3.373
