deltaTime,Acc_X,Acc_Y,Acc_Z,Gyro_X,Gyro_Y,Gyro_Z
0.0,-9.654,-3.046,-0.657,-0.475,-0.091,0.08
3.0,-9.654,-2.868,-0.786,-0.475,-0.091,0.08
6.0,-9.382,-2.868,-0.786,-0.457,-0.102,0.072
9.0,-9.382,-2.868,-0.786,-0.457,-0.102,0.072
12.0,-9.382,-2.868,-0.786,-0.457,-0.102,0.072
15.0,-8.977,-2.635,-0.802,-0.486,-0.096,0.05
18.0,-8.977,-2.635,-0.802,-0.486,-0.096,0.05
21.0,-8.977,-2.635,-0.802,-0.486,-0.096,0.05
24.0,-8.964,-2.52,-0.447,-0.56,-0.087,0.033
27.0,-8.964,-2.52,-0.447,-0.56,-0.087,0.033
30.0,-8.964,-2.52,-0.447,-0.56,-0.087,0.033
34.0,-9.391,-2.715,-0.03,-0.64,-0.082,0.025
38.0,-9.391,-2.715,-0.03,-0.64,-0.082,0.025
42.0,-9.391,-2.715,-0.03,-0.64,-0.082,0.025
46.0,-9.05,-2.503,0.044,-0.696,-0.079,0.018
49.0,-9.05,-2.503,0.044,-0.696,-0.079,0.018
53.0,-9.17,-2.423,0.265,-0.781,-0.058,0.011
57.0,-9.17,-2.423,0.265,-0.781,-0.058,0.011
61.0,-9.17,-2.423,0.265,-0.781,-0.058,0.011
65.0,-9.025,-2.648,0.488,-0.853,-0.057,0.004
68.0,-9.025,-2.648,0.488,-0.853,-0.057,0.004
72.0,-9.289,-2.825,0.679,-0.853,-0.057,-0.017
76.0,-9.289,-2.825,0.679,-0.867,-0.074,-0.017
80.0,-9.289,-2.825,0.679,-0.867,-0.074,-0.017
84.0,-9.546,-2.961,0.478,-0.842,-0.099,-0.043
88.0,-9.546,-2.961,0.478,-0.842,-0.099,-0.043
92.0,-9.397,-2.897,0.099,-0.842,-0.099,-0.043
96.0,-9.397,-2.897,0.099,-0.793,-0.125,-0.074
100.0,-9.397,-2.897,0.099,-0.793,-0.125,-0.074
104.0,-9.274,-2.623,-0.549,-0.767,-0.141,-0.111
108.0,-9.274,-2.623,-0.549,-0.767,-0.141,-0.111
112.0,-9.105,-2.596,-0.985,-0.767,-0.141,-0.129
116.0,-9.105,-2.596,-0.985,-0.782,-0.128,-0.129
120.0,-9.105,-2.596,-0.985,-0.782,-0.128,-0.129
124.0,-9.193,-2.65,-0.845,-0.786,-0.119,-0.148
128.0,-9.193,-2.65,-0.845,-0.786,-0.119,-0.148
132.0,-8.863,-2.407,-0.927,-0.782,-0.115,-0.162
136.0,-8.863,-2.407,-0.927,-0.782,-0.115,-0.162
140.0,-8.863,-2.407,-0.927,-0.782,-0.115,-0.162
144.0,-9.466,-2.847,-0.583,-0.775,-0.106,-0.144
148.0,-9.466,-2.847,-0.583,-0.775,-0.106,-0.144
153.0,-9.542,-2.674,-0.486,-0.727,-0.075,-0.115
157.0,-9.542,-2.674,-0.486,-0.727,-0.075,-0.115
161.0,-9.542,-2.776,-0.164,-0.727,-0.075,-0.115
165.0,-9.846,-2.776,-0.164,-0.713,-0.061,-0.077
169.0,-9.846,-2.776,-0.164,-0.713,-0.061,-0.077
173.0,-9.884,-2.881,0.148,-0.684,-0.075,-0.047
177.0,-9.884,-2.881,0.148,-0.684,-0.075,-0.047
181.0,-9.662,-2.978,-0.086,-0.684,-0.094,-0.026
185.0,-9.662,-2.978,-0.086,-0.613,-0.094,-0.026
189.0,-9.662,-2.978,-0.086,-0.613,-0.094,-0.026
193.0,-9.348,-2.935,-0.69,-0.491,-0.089,0.01
197.0,-9.348,-2.935,-0.69,-0.491,-0.089,0.01
201.0,-9.187,-2.506,-0.781,-0.392,-0.047,0.046
205.0,-9.187,-2.506,-0.781,-0.392,-0.047,0.046
209.0,-9.187,-2.506,-0.781,-0.392,-0.047,0.046
213.0,-9.889,-2.593,-0.036,-0.376,-0.016,0.063
217.0,-9.889,-2.593,-0.036,-0.376,-0.016,0.063
221.0,-10.387,-2.704,0.622,-0.362,-0.049,0.072
225.0,-10.387,-2.704,0.622,-0.362,-0.049,0.072
229.0,-10.387,-2.704,0.622,-0.362,-0.049,0.072
233.0,-10.473,-2.879,0.315,-0.351,-0.112,0.059
237.0,-10.473,-2.879,0.315,-0.351,-0.112,0.059
241.0,-10.231,-2.962,-0.449,-0.332,-0.151,0.046
245.0,-10.231,-2.962,-0.449,-0.332,-0.151,0.046
249.0,-10.231,-2.962,-0.691,-0.332,-0.151,0.046
253.0,-9.866,-2.349,-0.691,-0.363,-0.133,0.054
257.0,-9.866,-2.349,-0.691,-0.363,-0.133,0.054
261.0,-9.983,-2.729,-0.095,-0.49,-0.107,0.065
265.0,-9.983,-2.729,-0.095,-0.49,-0.107,0.065
269.0,-10.208,-3.116,0.335,-0.49,-0.107,0.065
273.0,-10.208,-3.116,0.335,-0.54,-0.114,0.075
277.0,-10.208,-3.116,0.335,-0.54,-0.114,0.075
281.0,-9.704,-3.41,0.035,-0.517,-0.121,0.094
285.0,-9.704,-3.41,0.035,-0.517,-0.121,0.094
289.0,-9.768,-3.625,-0.087,-0.517,-0.121,0.094
293.0,-9.768,-3.625,-0.087,-0.474,-0.103,0.1
297.0,-9.768,-3.625,-0.087,-0.474,-0.103,0.1
301.0,-9.98,-3.586,-0.041,-0.433,-0.096,0.083
305.0,-9.98,-3.586,-0.041,-0.433,-0.096,0.083
309.0,-10.122,-3.518,0.06,-0.433,-0.096,0.063
313.0,-10.122,-3.518,0.06,-0.416,-0.101,0.063
317.0,-10.122,-3.518,0.06,-0.416,-0.101,0.063
321.0,-9.782,-3.501,-0.038,-0.38,-0.114,0.056
325.0,-9.782,-3.501,-0.038,-0.38,-0.114,0.056
329.0,-9.549,-3.523,-0.121,-0.38,-0.096,0.061
333.0,-9.549,-3.523,-0.121,-0.328,-0.096,0.061
337.0,-9.549,-3.523,-0.121,-0.328,-0.096,0.061
341.0,-9.785,-3.555,0.11,-0.245,-0.072,0.069
345.0,-9.785,-3.555,0.11,-0.245,-0.072,0.069
349.0,-9.669,-3.244,0.067,-0.245,-0.063,0.085
353.0,-9.669,-3.244,0.067,-0.143,-0.063,0.085
357.0,-9.669,-3.244,0.067,-0.143,-0.063,0.085
361.0,-9.403,-3.03,0.4,-0.055,-0.05,0.103
364.0,-9.403,-3.03,0.4,-0.055,-0.05,0.103
368.0,-9.747,-2.936,0.577,-0.055,-0.05,0.114
372.0,-9.747,-2.936,0.577,0.016,-0.041,0.114
376.0,-9.747,-2.936,0.577,0.016,-0.041,0.114
380.0,-9.968,-2.922,0.569,0.1,-0.05,0.109
384.0,-9.968,-2.922,0.569,0.1,-0.05,0.109
388.0,-9.968,-2.922,0.534,0.1,-0.05,0.109
391.0,-9.684,-2.647,0.534,0.202,-0.05,0.108
395.0,-9.684,-2.647,0.534,0.202,-0.05,0.108
399.0,-10.216,-2.511,0.759,0.262,-0.018,0.132
403.0,-10.216,-2.511,0.759,0.262,-0.018,0.132
407.0,-10.216,-2.511,0.759,0.262,-0.018,0.132
411.0,-10.369,-2.342,0.942,0.292,-0.015,0.138
415.0,-10.369,-2.342,0.942,0.292,-0.015,0.138
419.0,-10.284,-2.297,0.768,0.32,-0.014,0.131
422.0,-10.284,-2.297,0.768,0.32,-0.014,0.131
426.0,-10.284,-2.297,0.768,0.32,-0.014,0.131
430.0,-10.453,-2.369,0.861,0.366,0.018,0.144
434.0,-10.453,-2.369,0.861,0.366,0.018,0.144
438.0,-10.897,-2.971,1.062,0.46,0.043,0.189
442.0,-10.897,-2.971,1.062,0.46,0.043,0.189
446.0,-10.897,-2.971,1.062,0.46,0.043,0.189
449.0,-10.982,-3.506,1.068,0.662,0.019,0.238
453.0,-10.982,-3.506,1.068,0.662,0.019,0.238
457.0,-10.752,-3.77,1.149,0.662,0.019,0.238
461.0,-10.752,-3.77,1.149,0.932,-0.003,0.281
465.0,-10.752,-3.77,1.149,0.932,-0.003,0.281
469.0,-10.183,-3.876,1.13,1.208,-0.004,0.32
473.0,-10.183,-3.876,1.13,1.208,-0.004,0.32
476.0,-10.183,-3.876,1.071,1.208,-0.004,0.32
480.0,-9.772,-3.495,1.071,1.437,-0.015,0.393
484.0,-9.772,-3.495,1.071,1.437,-0.015,0.393
488.0,-10.108,-3.533,1.135,1.553,-0.115,0.48
492.0,-10.108,-3.533,1.135,1.553,-0.115,0.48
496.0,-10.108,-3.533,1.135,1.553,-0.115,0.48
500.0,-9.589,-3.482,0.709,1.649,-0.309,0.513
503.0,-9.589,-3.482,0.709,1.649,-0.309,0.513
507.0,-9.043,-3.241,0.167,1.709,-0.415,0.477
511.0,-9.043,-3.241,0.167,1.709,-0.415,0.477
515.0,-9.043,-3.241,0.167,1.709,-0.415,0.477
519.0,-8.697,-2.951,-0.232,1.717,-0.432,0.433
523.0,-8.697,-2.951,-0.232,1.717,-0.432,0.433
527.0,-8.487,-2.707,-0.441,1.669,-0.407,0.402
530.0,-8.487,-2.707,-0.441,1.669,-0.407,0.402
534.0,-8.487,-2.707,-0.441,1.669,-0.407,0.402
538.0,-8.477,-2.469,-0.426,1.579,-0.371,0.367
542.0,-8.477,-2.469,-0.426,1.579,-0.371,0.367
546.0,-8.688,-2.272,-0.242,1.579,-0.339,0.325
550.0,-8.688,-2.272,-0.242,1.468,-0.339,0.325
554.0,-8.688,-2.272,-0.242,1.468,-0.339,0.325
558.0,-8.995,-2.223,-0.039,1.355,-0.322,0.282
562.0,-8.995,-2.223,-0.039,1.355,-0.322,0.282
566.0,-9.213,-2.338,0.144,1.355,-0.322,0.245
569.0,-9.213,-2.338,0.144,1.259,-0.318,0.245
573.0,-9.213,-2.338,0.144,1.259,-0.318,0.245
577.0,-9.362,-2.428,0.366,1.19,-0.323,0.208
581.0,-9.362,-2.428,0.366,1.19,-0.323,0.208
585.0,-9.362,-2.428,0.366,1.19,-0.323,0.208
589.0,-9.477,-2.502,0.571,1.142,-0.337,0.181
592.0,-9.477,-2.502,0.571,1.142,-0.337,0.181
596.0,-9.558,-2.582,0.677,1.102,-0.357,0.175
600.0,-9.558,-2.582,0.677,1.102,-0.357,0.175
604.0,-9.558,-2.582,0.677,1.102,-0.357,0.175
608.0,-9.583,-2.666,0.753,1.059,-0.372,0.187
611.0,-9.583,-2.666,0.753,1.059,-0.372,0.187
615.0,-9.543,-2.681,0.826,1.059,-0.385,0.206
619.0,-9.543,-2.681,0.826,1.01,-0.385,0.206
623.0,-9.543,-2.681,0.826,1.01,-0.385,0.206
627.0,-9.336,-2.694,0.897,0.951,-0.4,0.232
631.0,-9.336,-2.694,0.897,0.951,-0.4,0.232
634.0,-9.336,-2.788,0.927,0.951,-0.4,0.232
638.0,-8.965,-2.788,0.927,0.888,-0.419,0.256
642.0,-8.965,-2.788,0.927,0.888,-0.419,0.256
646.0,-8.54,-2.94,0.91,0.831,-0.435,0.261
650.0,-8.54,-2.94,0.91,0.831,-0.435,0.261
653.0,-8.54,-2.94,0.91,0.831,-0.435,0.261
657.0,-8.153,-3.089,0.858,0.795,-0.441,0.245
661.0,-8.153,-3.089,0.858,0.795,-0.441,0.245
665.0,-7.852,-3.205,0.808,0.789,-0.435,0.217
669.0,-7.852,-3.205,0.808,0.789,-0.435,0.217
673.0,-7.852,-3.205,0.808,0.789,-0.435,0.217
676.0,-7.686,-3.328,0.79,0.82,-0.413,0.189
680.0,-7.686,-3.328,0.79,0.82,-0.413,0.189
684.0,-7.647,-3.466,0.835,0.82,-0.413,0.189
688.0,-7.647,-3.466,0.835,0.892,-0.386,0.168
692.0,-7.647,-3.466,0.835,0.892,-0.386,0.168
696.0,-7.692,-3.61,0.84,1.004,-0.364,0.149
699.0,-7.692,-3.61,0.84,1.004,-0.364,0.149
703.0,-7.692,-3.61,0.84,1.004,-0.364,0.149
707.0,-7.868,-3.793,0.821,1.146,-0.346,0.132
711.0,-7.868,-3.793,0.821,1.146,-0.346,0.132
715.0,-8.125,-4.066,0.727,1.307,-0.328,0.112
718.0,-8.125,-4.066,0.727,1.307,-0.328,0.112
722.0,-8.125,-4.066,0.727,1.307,-0.328,0.112
726.0,-8.468,-4.51,0.646,1.481,-0.304,0.087
730.0,-8.468,-4.51,0.646,1.481,-0.304,0.087
734.0,-8.771,-5.115,0.678,1.481,-0.276,0.048
738.0,-8.771,-5.115,0.678,1.675,-0.276,0.048
741.0,-8.771,-5.115,0.678,1.675,-0.276,0.048
745.0,-8.898,-5.731,0.746,1.899,-0.249,-0.014
749.0,-8.898,-5.731,0.746,1.899,-0.249,-0.014
753.0,-8.924,-6.23,0.979,1.899,-0.249,-0.014
757.0,-8.924,-6.23,0.979,2.146,-0.224,-0.106
761.0,-8.924,-6.23,0.979,2.146,-0.224,-0.106
765.0,-8.931,-6.592,1.298,2.403,-0.216,-0.233
769.0,-8.931,-6.592,1.298,2.403,-0.216,-0.233
773.0,-8.931,-6.592,1.664,2.403,-0.216,-0.233
776.0,-9.072,-6.651,1.664,2.644,-0.233,-0.386
780.0,-9.072,-6.651,1.664,2.644,-0.233,-0.386
784.0,-9.296,-6.331,1.932,2.844,-0.283,-0.54
788.0,-9.296,-6.331,1.932,2.844,-0.283,-0.54
792.0,-9.296,-6.331,1.932,2.844,-0.283,-0.54
796.0,-9.572,-5.843,1.988,2.976,-0.353,-0.667
800.0,-9.572,-5.843,1.988,2.976,-0.353,-0.667
804.0,-9.817,-5.637,2.055,3.022,-0.42,-0.756
808.0,-9.817,-5.637,2.055,3.022,-0.42,-0.756
812.0,-9.817,-5.637,2.055,3.022,-0.42,-0.756
815.0,-9.898,-5.94,2.235,2.985,-0.485,-0.834
819.0,-9.898,-5.94,2.235,2.985,-0.485,-0.834
823.0,-9.855,-6.574,2.557,2.902,-0.545,-0.945
827.0,-9.855,-6.574,2.557,2.902,-0.545,-0.945
831.0,-9.855,-6.574,2.557,2.902,-0.545,-0.945
835.0,-9.901,-7.246,3.269,2.811,-0.606,-1.111
839.0,-9.901,-7.246,3.269,2.811,-0.606,-1.111
843.0,-10.085,-7.759,4.098,2.73,-0.697,-1.318
847.0,-10.085,-7.759,4.098,2.73,-0.697,-1.318
851.0,-10.085,-7.759,4.098,2.73,-0.697,-1.318
855.0,-10.444,-8.151,4.844,2.657,-0.833,-1.542
859.0,-10.444,-8.151,4.844,2.657,-0.833,-1.542
863.0,-10.857,-8.423,5.362,2.589,-1.005,-1.762
867.0,-10.857,-8.423,5.362,2.589,-1.005,-1.762
871.0,-10.857,-8.423,5.362,2.589,-1.005,-1.762
875.0,-11.392,-8.498,5.803,2.522,-1.187,-1.948
879.0,-11.392,-8.498,5.803,2.522,-1.187,-1.948
883.0,-11.93,-8.669,6.105,2.45,-1.366,-2.074
887.0,-11.93,-8.669,6.105,2.45,-1.366,-2.074
891.0,-11.93,-8.669,6.105,2.45,-1.366,-2.074
895.0,-12.413,-9.065,6.273,2.38,-1.535,-2.162
899.0,-12.413,-9.065,6.273,2.38,-1.535,-2.162
903.0,-12.818,-9.479,6.701,2.328,-1.701,-2.246
907.0,-12.818,-9.479,6.701,2.328,-1.701,-2.246
911.0,-12.818,-9.479,7.267,2.328,-1.701,-2.246
915.0,-13.133,-9.764,7.267,2.302,-1.887,-2.33
919.0,-13.133,-9.764,7.267,2.302,-1.887,-2.33
923.0,-13.25,-9.942,7.564,2.306,-2.095,-2.404
927.0,-13.25,-9.942,7.564,2.306,-2.095,-2.404
931.0,-13.068,-9.994,7.989,2.306,-2.095,-2.404
935.0,-13.068,-9.994,7.989,2.337,-2.283,-2.462
939.0,-13.068,-9.994,7.989,2.337,-2.283,-2.462
943.0,-12.988,-9.908,8.654,2.397,-2.455,-2.506
947.0,-12.988,-9.908,8.654,2.397,-2.455,-2.506
951.0,-13.06,-9.753,9.0,2.397,-2.455,-2.532
955.0,-13.06,-9.753,9.0,2.482,-2.643,-2.532
959.0,-13.06,-9.753,9.0,2.482,-2.643,-2.532
963.0,-13.144,-9.677,9.038,2.579,-2.842,-2.538
967.0,-13.144,-9.677,9.038,2.579,-2.842,-2.538
971.0,-13.231,-9.835,9.198,2.579,-3.033,-2.522
975.0,-13.231,-9.835,9.198,2.688,-3.033,-2.522
979.0,-13.231,-9.835,9.198,2.688,-3.033,-2.522
983.0,-13.23,-10.316,9.138,2.821,-3.21,-2.495
987.0,-13.23,-10.316,9.138,2.821,-3.21,-2.495
991.0,-13.009,-10.588,9.217,2.988,-3.363,-2.477
995.0,-13.009,-10.588,9.217,2.988,-3.363,-2.477
999.0,-13.009,-10.588,9.217,2.988,-3.363,-2.477
1003.0,-12.646,-10.545,9.602,3.189,-3.512,-2.466
1007.0,-12.646,-10.545,9.602,3.189,-3.512,-2.466
1011.0,-12.341,-10.411,9.91,3.431,-3.666,-2.452
1015.0,-12.341,-10.411,9.91,3.431,-3.666,-2.452
1020.0,-11.987,-10.068,9.939,3.431,-3.666,-2.452
1024.0,-11.987,-10.068,9.939,3.713,-3.804,-2.413
1028.0,-11.987,-10.068,9.939,3.713,-3.804,-2.413
1032.0,-11.721,-9.562,10.111,3.98,-3.917,-2.33
1036.0,-11.721,-9.562,10.111,3.98,-3.917,-2.33
1040.0,-11.76,-9.158,10.316,4.188,-4.017,-2.202
1045.0,-11.76,-9.158,10.316,4.188,-4.017,-2.202
1049.0,-11.76,-9.158,10.315,4.188,-4.017,-2.202
1053.0,-11.937,-8.94,10.315,4.328,-4.111,-2.06
1057.0,-11.937,-8.94,10.315,4.328,-4.111,-2.06
1061.0,-11.877,-8.592,10.055,4.404,-4.193,-1.936
1065.0,-11.877,-8.592,10.055,4.404,-4.193,-1.936
1070.0,-11.454,-8.289,9.812,4.426,-4.231,-1.841
1074.0,-11.454,-8.289,9.812,4.426,-4.231,-1.841
1078.0,-11.454,-8.289,9.812,4.426,-4.231,-1.841
1082.0,-10.922,-7.921,9.816,4.413,-4.224,-1.793
1086.0,-10.922,-7.921,9.816,4.413,-4.224,-1.793
1090.0,-10.357,-7.56,9.81,4.384,-4.215,-1.814
1094.0,-10.357,-7.56,9.81,4.384,-4.215,-1.814
1098.0,-10.357,-7.56,9.787,4.384,-4.215,-1.814
1102.0,-9.662,-7.049,9.787,4.354,-4.197,-1.891
1106.0,-9.662,-7.049,9.787,4.354,-4.197,-1.891
1110.0,-9.17,-6.662,9.689,4.343,-4.167,-1.975
1114.0,-9.17,-6.662,9.689,4.343,-4.167,-1.975
1118.0,-8.444,-6.288,9.739,4.343,-4.167,-1.975
1122.0,-8.444,-6.288,9.739,4.35,-4.152,-2.03
1126.0,-8.444,-6.288,9.739,4.35,-4.152,-2.03
1130.0,-8.086,-6.151,10.065,4.346,-4.092,-2.039
1134.0,-8.086,-6.151,10.065,4.346,-4.092,-2.039
1138.0,-7.806,-5.943,10.244,4.346,-4.031,-2.011
1142.0,-7.806,-5.943,10.244,4.358,-4.031,-2.011
1147.0,-7.806,-5.943,10.244,4.358,-4.031,-2.011
1151.0,-7.35,-5.575,10.115,4.395,-3.974,-1.951
1155.0,-7.35,-5.575,10.115,4.395,-3.974,-1.951
1159.0,-6.614,-5.031,9.875,4.448,-3.915,-1.885
1163.0,-6.614,-5.031,9.875,4.448,-3.915,-1.885
1167.0,-6.614,-5.031,9.875,4.448,-3.915,-1.885
1171.0,-5.91,-4.537,9.784,4.511,-3.852,-1.831
1175.0,-5.91,-4.537,9.784,4.511,-3.852,-1.831
1179.0,-5.326,-4.016,9.47,4.584,-3.804,-1.801
1183.0,-5.326,-4.016,9.47,4.584,-3.804,-1.801
1187.0,-5.326,-4.016,9.47,4.584,-3.804,-1.801
1191.0,-4.924,-3.894,9.222,4.663,-3.754,-1.793
1195.0,-4.924,-3.894,9.222,4.663,-3.754,-1.793
1199.0,-4.659,-3.607,9.019,4.755,-3.701,-1.806
1203.0,-4.659,-3.607,9.019,4.755,-3.701,-1.806
1207.0,-4.659,-3.607,8.767,4.755,-3.701,-1.806
1211.0,-4.44,-2.833,8.767,4.848,-3.645,-1.811
1215.0,-4.44,-2.833,8.767,4.848,-3.645,-1.811
1219.0,-4.201,-1.965,8.481,4.92,-3.6,-1.782
1223.0,-4.201,-1.965,8.481,4.92,-3.6,-1.782
1227.0,-4.201,-1.247,8.21,4.92,-3.6,-1.782
1231.0,-3.988,-1.247,8.21,4.945,-3.568,-1.721
1235.0,-3.988,-1.247,8.21,4.945,-3.568,-1.721
1239.0,-3.71,-0.768,7.918,4.929,-3.544,-1.658
1243.0,-3.71,-0.768,7.918,4.929,-3.544,-1.658
1247.0,-3.281,-0.135,7.582,4.929,-3.544,-1.658
1251.0,-3.281,-0.135,7.582,4.898,-3.511,-1.622
1255.0,-3.281,-0.135,7.582,4.898,-3.511,-1.622
1259.0,-3.06,0.422,7.248,4.866,-3.437,-1.596
1263.0,-3.06,0.422,7.248,4.866,-3.437,-1.596
1266.0,-2.75,0.94,6.803,4.866,-3.437,-1.543
1270.0,-2.75,0.94,6.803,4.853,-3.398,-1.543
1274.0,-2.75,0.94,6.803,4.853,-3.398,-1.543
1278.0,-2.662,1.216,6.338,4.815,-3.348,-1.47
1282.0,-2.662,1.216,6.338,4.815,-3.348,-1.47
1286.0,-2.615,1.501,5.792,4.815,-3.348,-1.47
1290.0,-2.615,1.501,5.792,4.753,-3.278,-1.416
1294.0,-2.615,1.501,5.792,4.753,-3.278,-1.416
1298.0,-2.343,1.765,5.248,4.674,-3.205,-1.395
1302.0,-2.343,1.765,5.248,4.674,-3.205,-1.395
1305.0,-2.343,1.765,4.752,4.674,-3.205,-1.395
1309.0,-1.823,2.108,4.752,4.571,-3.116,-1.407
1313.0,-1.823,2.108,4.752,4.571,-3.116,-1.407
1317.0,-1.749,2.41,4.287,4.45,-2.999,-1.435
1321.0,-1.749,2.41,4.287,4.45,-2.999,-1.435
1325.0,-1.749,2.41,4.287,4.45,-2.999,-1.435
1329.0,-2.227,2.529,3.815,4.302,-2.888,-1.447
1333.0,-2.227,2.529,3.815,4.302,-2.888,-1.447
1337.0,-2.749,2.48,3.823,4.147,-2.817,-1.455
1341.0,-2.749,2.48,3.823,4.147,-2.817,-1.455
1345.0,-2.749,2.48,3.823,4.147,-2.817,-1.455
1348.0,-3.074,2.248,4.122,4.008,-2.81,-1.477
1352.0,-3.074,2.248,4.122,4.008,-2.81,-1.477
1356.0,-3.086,2.208,4.291,3.897,-2.846,-1.51
1360.0,-3.086,2.208,4.291,3.897,-2.846,-1.51
1364.0,-3.086,2.208,4.291,3.897,-2.846,-1.51
1368.0,-2.84,2.433,3.939,3.823,-2.889,-1.526
1372.0,-2.84,2.433,3.939,3.823,-2.889,-1.526
1376.0,-2.438,2.875,3.016,3.788,-2.91,-1.507
1380.0,-2.438,2.875,3.016,3.788,-2.91,-1.507
1384.0,-2.438,2.875,3.016,3.788,-2.91,-1.507
1388.0,-1.77,3.494,1.75,3.798,-2.884,-1.454
1391.0,-1.77,3.494,1.75,3.798,-2.884,-1.454
1395.0,-1.252,4.313,0.45,3.873,-2.792,-1.365
1399.0,-1.252,4.313,0.45,3.873,-2.792,-1.365
1403.0,-1.252,4.313,0.45,3.873,-2.792,-1.365
1407.0,-0.678,5.265,-0.699,3.994,-2.653,-1.235
1411.0,-0.678,5.265,-0.699,3.994,-2.653,-1.235
1415.0,-0.179,6.528,-1.575,4.109,-2.467,-1.093
1419.0,-0.179,6.528,-1.575,4.109,-2.467,-1.093
1423.0,-0.179,6.528,-1.575,4.109,-2.467,-1.093
1427.0,0.165,7.971,-2.157,4.162,-2.262,-0.944
1431.0,0.165,7.971,-2.157,4.162,-2.262,-0.944
1435.0,0.381,9.448,-2.707,4.114,-2.049,-0.771
1439.0,0.381,9.448,-2.707,4.114,-2.049,-0.771
1443.0,0.381,9.448,-2.707,4.114,-2.049,-0.771
1447.0,0.757,10.834,-3.424,3.964,-1.827,-0.573
1451.0,0.757,10.834,-3.424,3.964,-1.827,-0.573
1455.0,1.522,12.267,-4.634,3.741,-1.582,-0.356
1459.0,1.522,12.267,-4.634,3.741,-1.582,-0.356
1463.0,1.522,12.267,-4.634,3.741,-1.582,-0.356
1467.0,2.741,13.568,-6.264,3.481,-1.275,-0.113
1471.0,2.741,13.568,-6.264,3.481,-1.275,-0.113
1474.0,4.101,14.312,-7.653,3.235,-0.889,0.164
1478.0,4.101,14.312,-7.653,3.235,-0.889,0.164
1482.0,4.101,14.312,-7.653,3.235,-0.889,0.164
1486.0,5.16,14.895,-8.856,3.055,-0.431,0.46
1490.0,5.16,14.895,-8.856,3.055,-0.431,0.46
1494.0,5.786,15.61,-9.598,2.967,0.089,0.789
1498.0,5.786,15.61,-9.598,2.967,0.089,0.789
1502.0,5.786,15.61,-9.598,2.967,0.089,0.789
1505.0,6.3,16.613,-10.461,2.964,0.658,1.178
1509.0,6.3,16.613,-10.461,2.964,0.658,1.178
1513.0,6.696,17.694,-11.602,2.964,0.658,1.626
1517.0,6.696,17.694,-11.602,3.003,1.253,1.626
1521.0,6.696,17.694,-11.602,3.003,1.253,1.626
1525.0,6.895,18.925,-13.196,2.988,1.834,2.091
1529.0,6.895,18.925,-13.196,2.988,1.834,2.091
1533.0,7.74,19.592,-15.525,2.988,1.834,2.091
1537.0,7.74,19.592,-15.525,2.81,2.444,2.509
1541.0,7.74,19.592,-15.525,2.81,2.444,2.509
1545.0,9.115,19.596,-17.246,2.381,3.184,2.897
1548.0,9.115,19.596,-17.246,2.381,3.184,2.897
1552.0,9.115,19.596,-17.047,2.381,3.184,2.897
1556.0,10.139,19.596,-17.047,1.646,4.024,3.323
1560.0,10.139,19.596,-17.047,1.646,4.024,3.323
1564.0,9.758,19.596,-14.598,0.789,4.762,3.76
1568.0,9.758,19.596,-14.598,0.789,4.762,3.76
1572.0,9.758,18.773,-11.867,0.789,4.762,3.76
1576.0,7.81,18.773,-11.867,0.053,5.012,4.23
1580.0,7.81,18.773,-11.867,0.053,5.012,4.23
1584.0,4.818,16.103,-9.517,-0.439,5.015,4.715
1588.0,4.818,16.103,-9.517,-0.439,5.015,4.715
1592.0,4.818,16.103,-7.737,-0.439,5.015,4.715
1596.0,1.805,13.535,-7.737,-0.722,5.015,4.996
1599.0,1.805,13.535,-7.737,-0.722,5.015,4.996
1603.0,-1.065,11.117,-6.17,-0.922,5.015,5.013
1607.0,-1.065,11.117,-6.17,-0.922,5.015,5.013
1611.0,-1.065,11.117,-4.625,-0.922,5.015,5.013
1615.0,-4.254,8.643,-4.625,-1.166,5.015,5.013
1619.0,-4.254,8.643,-4.625,-1.166,5.015,5.013
1623.0,-8.789,5.945,-2.813,-1.512,5.015,5.013
1627.0,-8.789,5.945,-2.813,-1.512,5.015,5.013
1631.0,-8.789,5.945,-2.813,-1.512,5.015,5.013
1635.0,-15.549,2.55,0.202,-1.973,5.015,5.013
1639.0,-15.549,2.55,0.202,-1.973,5.015,5.013
1643.0,-19.571,-1.162,4.059,-2.49,5.015,5.013
1647.0,-19.571,-1.162,4.059,-2.49,5.015,5.013
1651.0,-19.571,-1.162,4.059,-2.49,5.015,5.013
1655.0,-19.6,-6.01,6.062,-2.85,4.753,5.013
1659.0,-19.6,-6.01,6.062,-2.85,4.753,5.013
1663.0,-19.6,-10.813,5.744,-2.706,3.136,5.0
1667.0,-19.6,-10.813,5.744,-2.706,3.136,5.0
1671.0,-19.6,-12.882,5.462,-2.706,3.136,5.0
1675.0,-19.519,-12.882,5.462,-2.089,1.195,4.485
1679.0,-19.519,-12.882,5.462,-2.089,1.195,4.485
1683.0,-13.682,-13.844,5.54,-1.554,-0.204,3.104
1687.0,-13.682,-13.844,5.54,-1.554,-0.204,3.104
1691.0,-7.799,-12.828,5.165,-1.516,-1.15,1.314
1695.0,-7.799,-12.828,5.165,-1.516,-1.15,1.314
1699.0,-7.799,-12.828,5.165,-1.516,-1.15,1.314
1704.0,-6.318,-9.818,4.248,-1.905,-1.799,-0.536
1708.0,-6.318,-9.818,4.248,-1.905,-1.799,-0.536
1712.0,-6.118,-6.657,3.797,-2.425,-2.205,-2.049
1716.0,-6.118,-6.657,3.797,-2.425,-2.205,-2.049
1720.0,-6.118,-6.657,4.493,-2.425,-2.205,-2.049
1724.0,-5.193,-5.647,4.493,-2.878,-2.464,-3.043
1728.0,-5.193,-5.647,4.493,-2.878,-2.464,-3.043
1732.0,-3.773,-6.008,4.728,-3.142,-2.67,-3.677
1736.0,-3.773,-6.008,4.728,-3.142,-2.67,-3.677
1740.0,-2.245,-6.404,3.924,-3.142,-2.67,-4.137
1744.0,-2.245,-6.404,3.924,-3.14,-2.862,-4.137
1748.0,-2.245,-6.404,3.924,-3.14,-2.862,-4.137
1753.0,-0.355,-6.4,2.853,-2.888,-3.034,-4.524
1757.0,-0.355,-6.4,2.853,-2.888,-3.034,-4.524
1761.0,1.828,-5.666,2.63,-2.452,-3.14,-4.866
1765.0,1.828,-5.666,2.63,-2.452,-3.14,-4.866
1769.0,1.828,-5.666,2.63,-2.452,-3.14,-4.866
1773.0,3.668,-3.953,3.31,-1.887,-3.164,-4.993
1777.0,3.668,-3.953,3.31,-1.887,-3.164,-4.993
1781.0,5.073,-1.874,4.213,-1.223,-3.137,-4.995
1785.0,5.073,-1.874,4.213,-1.223,-3.137,-4.995
1789.0,5.073,-1.874,4.213,-1.223,-3.137,-4.995
1793.0,6.267,0.439,5.109,-0.48,-3.087,-4.995
1797.0,6.267,0.439,5.109,-0.48,-3.087,-4.995
1800.0,7.029,2.791,5.841,0.319,-3.049,-4.995
1804.0,7.029,2.791,5.841,0.319,-3.049,-4.995
1808.0,7.029,2.791,5.841,0.319,-3.049,-4.995
1812.0,7.817,5.163,5.231,1.147,-3.084,-4.995
1816.0,7.817,5.163,5.231,1.147,-3.084,-4.995
1820.0,8.672,7.892,3.306,1.98,-3.117,-4.969
1823.0,8.672,7.892,3.306,1.98,-3.117,-4.969
1827.0,8.672,7.892,3.306,1.98,-3.117,-4.969
1831.0,9.351,10.457,1.269,2.782,-3.109,-4.818
1835.0,9.351,10.457,1.269,2.782,-3.109,-4.818
1839.0,9.997,13.752,-1.852,2.782,-3.109,-4.818
1843.0,9.997,13.752,-1.852,3.446,-3.124,-4.61
1847.0,9.997,13.752,-1.852,3.446,-3.124,-4.61
1851.0,11.389,18.565,-7.169,3.908,-3.08,-4.316
1855.0,11.389,18.565,-7.169,3.908,-3.08,-4.316
1859.0,14.422,19.595,-12.136,3.908,-2.814,-3.732
1863.0,14.422,19.595,-12.136,4.181,-2.814,-3.732
1867.0,14.422,19.595,-12.136,4.181,-2.814,-3.732
1871.0,18.11,19.596,-16.018,4.286,-2.314,-2.904
1876.0,18.11,19.596,-16.018,4.286,-2.314,-2.904
1880.0,19.588,19.591,-19.174,4.21,-1.643,-1.945
1884.0,19.588,19.591,-19.174,4.21,-1.643,-1.945
1888.0,19.484,19.523,-19.278,4.21,-1.643,-1.945
1892.0,19.484,19.523,-19.278,3.816,-0.783,-0.927
1896.0,19.484,19.523,-19.278,3.816,-0.783,-0.927
1901.0,19.596,19.596,-19.596,3.157,0.21,0.121
1905.0,19.596,19.596,-19.596,3.157,0.21,0.121
1909.0,19.551,19.596,-19.596,2.357,1.262,1.088
1913.0,19.551,19.596,-19.596,2.357,1.262,1.088
1917.0,19.551,19.596,-19.596,2.357,1.262,1.088
1921.0,17.224,19.596,-19.016,1.542,2.275,1.897
1925.0,17.224,19.596,-19.016,1.542,2.275,1.897
1929.0,13.553,19.596,-16.661,0.804,3.164,2.507
1933.0,13.553,19.596,-16.661,0.804,3.164,2.507
1937.0,13.553,19.596,-16.661,0.804,3.164,2.507
1941.0,11.365,19.596,-14.95,0.149,3.92,3.04
1945.0,11.365,19.596,-14.95,0.149,3.92,3.04
1949.0,10.38,19.596,-13.143,-0.432,4.575,3.619
1953.0,10.38,19.596,-13.143,-0.432,4.575,3.619
1957.0,10.38,19.596,-11.431,-0.432,4.575,3.619
1961.0,9.036,19.393,-11.431,-0.907,4.977,4.212
1965.0,9.036,19.393,-11.431,-0.907,4.977,4.212
1969.0,6.901,16.88,-9.971,-1.225,5.015,4.753
1973.0,6.901,16.88,-9.971,-1.225,5.015,4.753
1977.0,6.901,16.88,-8.254,-1.225,5.015,4.753
1980.0,4.216,14.286,-8.254,-1.397,5.015,5.005
1984.0,4.216,14.286,-8.254,-1.397,5.015,5.005
1988.0,0.617,11.517,-5.218,-1.449,5.015,5.013
1992.0,0.617,11.517,-5.218,-1.449,5.015,5.013
1996.0,0.617,11.517,-5.218,-1.449,5.015,5.013
2000.0,-3.743,8.352,-1.417,-1.44,5.015,5.013
2004.0,-3.743,8.352,-1.417,-1.44,5.015,5.013
2008.0,-8.765,5.643,1.47,-1.417,5.015,5.013
2012.0,-8.765,5.643,1.47,-1.417,5.015,5.013
2015.0,-8.765,5.643,1.47,-1.417,5.015,5.013
2019.0,-14.642,4.252,2.543,-1.421,5.015,5.013
2023.0,-14.642,4.252,2.543,-1.421,5.015,5.013
2027.0,-19.353,3.635,1.574,-1.52,5.015,5.013
2031.0,-19.353,3.635,1.574,-1.52,5.015,5.013
2035.0,-19.353,3.635,1.574,-1.52,5.015,5.013
2039.0,-19.6,2.441,0.931,-1.705,4.931,5.013
2043.0,-19.6,2.441,0.931,-1.705,4.931,5.013
2047.0,-19.6,0.401,1.841,-1.968,4.393,5.013
2051.0,-19.6,0.401,1.841,-1.968,4.393,5.013
2054.0,-19.6,0.401,1.841,-1.968,4.393,5.013
2058.0,-19.6,-1.948,4.763,-2.31,3.672,5.013
2062.0,-19.6,-1.948,4.763,-2.31,3.672,5.013
2066.0,-17.294,-5.679,5.09,-2.61,2.78,5.013
2070.0,-17.294,-5.679,5.09,-2.61,2.78,5.013
2074.0,-17.294,-5.679,5.09,-2.61,2.78,5.013
2078.0,-8.115,-12.368,2.454,-2.872,1.766,4.956
2082.0,-8.115,-12.368,2.454,-2.872,1.766,4.956
2086.0,2.845,-12.849,2.47,-3.276,0.983,3.387
2090.0,2.845,-12.849,2.47,-3.276,0.983,3.387
2094.0,2.845,-12.849,2.47,-3.276,0.983,3.387
2098.0,9.891,-5.894,6.213,-3.945,0.175,0.442
2102.0,9.891,-5.894,6.213,-3.945,0.175,0.442
2106.0,12.51,-5.456,7.217,-3.945,-0.66,-1.27
2110.0,12.51,-5.456,7.217,-4.659,-0.66,-1.27
2114.0,12.51,-5.456,7.217,-4.659,-0.66,-1.27
2118.0,10.944,-11.375,4.935,-4.933,-1.059,-2.074
2122.0,10.944,-11.375,4.935,-4.933,-1.059,-2.074
2126.0,7.2,-14.793,2.798,-4.464,-0.958,-2.76
2130.0,7.2,-14.793,2.798,-4.464,-0.958,-2.76
2134.0,7.2,-14.793,2.289,-4.464,-0.958,-2.76
2138.0,4.466,-14.686,2.289,-3.3,-0.686,-3.107
2143.0,4.466,-14.686,2.289,-3.3,-0.686,-3.107
2147.0,4.342,-12.99,2.316,-1.706,-0.487,-3.01
2151.0,4.342,-12.99,2.316,-1.706,-0.487,-3.01
2155.0,6.138,-10.36,3.14,-1.706,-0.487,-2.787
2159.0,6.138,-10.36,3.14,-0.059,-0.386,-2.787
2163.0,6.138,-10.36,3.14,-0.059,-0.386,-2.787
2167.0,7.98,-7.256,4.001,1.31,-0.371,-2.639
2171.0,7.98,-7.256,4.001,1.31,-0.371,-2.639
2175.0,8.899,-4.147,4.262,2.326,-0.358,-2.547
2179.0,8.899,-4.147,4.262,2.326,-0.358,-2.547
2183.0,8.899,-4.147,4.262,2.326,-0.358,-2.547
2187.0,8.577,-1.569,4.711,3.049,-0.259,-2.463
2190.0,8.577,-1.569,4.711,3.049,-0.259,-2.463
2194.0,7.679,0.623,4.92,3.049,-0.209,-2.357
2198.0,7.679,0.623,4.92,3.523,-0.209,-2.357
2202.0,7.679,0.623,4.92,3.523,-0.209,-2.357
2206.0,7.442,2.613,4.278,3.758,-0.291,-2.232
2210.0,7.442,2.613,4.278,3.758,-0.291,-2.232
2213.0,7.442,2.613,3.233,3.758,-0.291,-2.232
2217.0,7.862,4.48,3.233,3.775,-0.421,-2.082
2221.0,7.862,4.48,3.233,3.775,-0.421,-2.082
2225.0,8.395,6.07,2.116,3.593,-0.522,-1.841
2229.0,8.395,6.07,2.116,3.593,-0.522,-1.841
2233.0,8.395,6.07,2.116,3.593,-0.522,-1.841
2236.0,9.141,7.299,1.054,3.238,-0.543,-1.503
2240.0,9.141,7.299,1.054,3.238,-0.543,-1.503
2244.0,10.175,8.621,0.37,2.762,-0.458,-1.142
2248.0,10.175,8.621,0.37,2.762,-0.458,-1.142
2252.0,10.175,8.621,0.37,2.762,-0.458,-1.142
2256.0,11.227,9.837,0.239,2.186,-0.319,-0.779
2260.0,11.227,9.837,0.239,2.186,-0.319,-0.779
2264.0,12.025,10.555,0.129,2.186,-0.18,-0.428
2268.0,12.025,10.555,0.129,1.505,-0.18,-0.428
2272.0,12.025,10.555,0.129,1.505,-0.18,-0.428
2276.0,12.172,10.465,0.182,0.752,-0.033,-0.141
2280.0,12.172,10.465,0.182,0.752,-0.033,-0.141
2284.0,11.139,9.667,0.474,0.024,0.123,0.033
2287.0,11.139,9.667,0.474,0.024,0.123,0.033
2291.0,11.139,9.667,0.474,0.024,0.123,0.033
2295.0,9.511,8.393,0.974,-0.572,0.258,0.118
2298.0,9.511,8.393,0.974,-0.572,0.258,0.118
2302.0,9.511,8.393,1.44,-0.572,0.258,0.118
2306.0,8.154,7.036,1.44,-0.973,0.328,0.14
2310.0,8.154,7.036,1.44,-0.973,0.328,0.14
2313.0,7.105,5.837,1.691,-1.177,0.342,0.12
2317.0,7.105,5.837,1.691,-1.177,0.342,0.12
2321.0,7.105,5.837,1.691,-1.177,0.342,0.12
2325.0,6.379,4.811,1.744,-1.216,0.327,0.094
2328.0,6.379,4.811,1.744,-1.216,0.327,0.094
2332.0,6.379,3.979,1.841,-1.216,0.327,0.094
2336.0,6.014,3.979,1.841,-1.121,0.295,0.068
2340.0,6.014,3.979,1.841,-1.121,0.295,0.068
2343.0,5.894,3.241,1.912,-0.924,0.25,0.034
2347.0,5.894,3.241,1.912,-0.924,0.25,0.034
2351.0,5.894,3.241,1.912,-0.924,0.25,0.034
2354.0,5.755,2.475,1.813,-0.674,0.199,-0.018
2358.0,5.755,2.475,1.813,-0.674,0.199,-0.018
2362.0,5.595,1.822,1.506,-0.674,0.199,-0.108
2366.0,5.595,1.822,1.506,-0.407,0.136,-0.108
2370.0,5.595,1.822,1.506,-0.407,0.136,-0.108
2374.0,5.516,1.194,1.184,-0.137,0.056,-0.259
2377.0,5.516,1.194,1.184,-0.137,0.056,-0.259
2381.0,5.516,1.194,1.009,-0.137,0.056,-0.259
2385.0,5.278,0.757,1.009,0.138,-0.033,-0.494
2389.0,5.278,0.757,1.009,0.138,-0.033,-0.494
2393.0,4.775,0.559,0.811,0.402,-0.127,-0.787
2396.0,4.775,0.559,0.811,0.402,-0.127,-0.787
2400.0,4.775,0.559,0.811,0.402,-0.127,-0.787
2404.0,4.18,0.413,0.544,0.643,-0.234,-1.101
2408.0,4.18,0.413,0.544,0.643,-0.234,-1.101
2412.0,3.425,0.388,0.37,0.851,-0.346,-1.425
2416.0,3.425,0.388,0.37,0.851,-0.346,-1.425
2419.0,3.425,0.388,0.37,0.851,-0.346,-1.425
2423.0,2.625,0.062,-0.006,1.015,-0.457,-1.758
2427.0,2.625,0.062,-0.006,1.015,-0.457,-1.758
2431.0,1.835,0.017,-0.339,1.015,-0.457,-1.758
2435.0,1.835,0.017,-0.339,1.122,-0.538,-2.107
2439.0,1.835,0.017,-0.339,1.122,-0.538,-2.107
2443.0,0.951,0.178,-0.565,1.176,-0.589,-2.432
2447.0,0.951,0.178,-0.565,1.176,-0.589,-2.432
2451.0,0.179,0.312,-0.76,1.176,-0.589,-2.432
2454.0,0.179,0.312,-0.76,1.185,-0.629,-2.712
2458.0,0.179,0.312,-0.76,1.185,-0.629,-2.712
2462.0,-0.486,0.378,-0.821,1.152,-0.659,-2.954
2466.0,-0.486,0.378,-0.821,1.152,-0.659,-2.954
2470.0,-0.486,0.37,-0.849,1.152,-0.659,-2.954
2474.0,-0.963,0.37,-0.849,1.086,-0.678,-3.155
2478.0,-0.963,0.37,-0.849,1.086,-0.678,-3.155
2482.0,-1.301,0.315,-0.908,0.999,-0.694,-3.327
2486.0,-1.301,0.315,-0.908,0.999,-0.694,-3.327
2490.0,-1.537,0.367,-0.925,0.999,-0.694,-3.327
2494.0,-1.537,0.367,-0.925,0.896,-0.723,-3.482
2498.0,-1.537,0.367,-0.925,0.896,-0.723,-3.482
2502.0,-1.643,0.559,-1.061,0.772,-0.758,-3.613
2506.0,-1.643,0.559,-1.061,0.772,-0.758,-3.613
2510.0,-1.676,0.788,-1.286,0.772,-0.758,-3.704
2514.0,-1.676,0.788,-1.286,0.62,-0.776,-3.704
2518.0,-1.676,0.788,-1.286,0.62,-0.776,-3.704
2522.0,-1.533,0.988,-1.53,0.431,-0.761,-3.745
2526.0,-1.533,0.988,-1.53,0.431,-0.761,-3.745
2530.0,-1.235,1.036,-1.702,0.208,-0.71,-3.75
2534.0,-1.235,1.036,-1.702,0.208,-0.71,-3.75
2538.0,-1.235,1.036,-1.702,0.208,-0.71,-3.75
2542.0,-0.801,1.059,-1.873,-0.045,-0.623,-3.741
2546.0,-0.801,1.059,-1.873,-0.045,-0.623,-3.741
2550.0,-0.282,1.114,-1.923,-0.328,-0.49,-3.727
2554.0,-0.282,1.114,-1.923,-0.328,-0.49,-3.727
2558.0,-0.282,1.114,-1.923,-0.328,-0.49,-3.727
2563.0,0.443,1.144,-1.864,-0.632,-0.316,-3.723
2566.0,0.443,1.144,-1.864,-0.632,-0.316,-3.723
2570.0,1.315,1.151,-1.675,-0.949,-0.098,-3.753
2574.0,1.315,1.151,-1.675,-0.949,-0.098,-3.753
2578.0,1.315,1.151,-1.675,-0.949,-0.098,-3.753
2582.0,2.046,1.211,-1.388,-1.268,0.162,-3.821
2586.0,2.046,1.211,-1.388,-1.268,0.162,-3.821
2590.0,2.411,1.359,-1.13,-1.59,0.444,-3.889
2594.0,2.411,1.359,-1.13,-1.59,0.444,-3.889
2598.0,2.411,1.359,-1.13,-1.59,0.444,-3.889
2602.0,2.481,1.635,-1.072,-1.932,0.72,-3.915
2606.0,2.481,1.635,-1.072,-1.932,0.72,-3.915
2610.0,2.511,1.943,-1.134,-2.319,1.003,-3.877
2614.0,2.511,1.943,-1.134,-2.319,1.003,-3.877
2618.0,2.511,1.943,-1.134,-2.319,1.003,-3.877
2622.0,2.64,2.264,-1.205,-2.771,1.312,-3.774
2625.0,2.64,2.264,-1.205,-2.771,1.312,-3.774
2629.0,3.154,2.421,-1.11,-3.286,1.669,-3.624
2633.0,3.154,2.421,-1.11,-3.286,1.669,-3.624
2637.0,3.154,2.421,-1.11,-3.286,1.669,-3.624
2641.0,3.926,2.618,-0.346,-3.819,2.107,-3.491
2645.0,3.926,2.618,-0.346,-3.819,2.107,-3.491
2649.0,4.519,3.028,0.73,-4.323,2.597,-3.402
2653.0,4.519,3.028,0.73,-4.323,2.597,-3.402
2657.0,4.519,3.028,0.73,-4.323,2.597,-3.402
2660.0,4.808,3.24,1.65,-4.804,3.088,-3.329
2664.0,4.808,3.24,1.65,-4.804,3.088,-3.329
2668.0,4.249,3.161,2.521,-4.804,3.088,-3.268
2672.0,4.249,3.161,2.521,-5.009,3.586,-3.268
2676.0,4.249,3.161,2.521,-5.009,3.586,-3.268
2679.0,2.579,3.059,3.452,-5.013,4.055,-3.17
2683.0,2.579,3.059,3.452,-5.013,4.055,-3.17
2687.0,2.579,3.059,4.552,-5.013,4.055,-3.17
2691.0,0.54,3.071,4.552,-5.013,4.438,-2.966
2695.0,0.54,3.071,4.552,-5.013,4.438,-2.966
2699.0,-0.987,2.824,5.769,-5.013,4.756,-2.653
2702.0,-0.987,2.824,5.769,-5.013,4.756,-2.653
2706.0,-0.987,2.824,5.769,-5.013,4.756,-2.653
2710.0,-2.042,1.78,7.453,-5.013,4.982,-2.307
2714.0,-2.042,1.78,7.453,-5.013,4.982,-2.307
2718.0,-2.785,0.282,9.421,-5.013,5.015,-2.007
2722.0,-2.785,0.282,9.421,-5.013,5.015,-2.007
2726.0,-2.785,0.282,9.421,-5.013,5.015,-2.007
2730.0,-3.625,-0.152,9.3,-5.013,5.015,-1.799
2734.0,-3.625,-0.152,9.3,-5.013,5.015,-1.799
2738.0,-4.497,-0.041,7.883,-5.013,5.015,-1.573
2742.0,-4.497,-0.041,7.883,-5.013,5.015,-1.573
2746.0,-4.497,-0.041,7.883,-5.013,5.015,-1.573
2750.0,-5.206,0.224,6.41,-5.013,5.015,-1.251
2754.0,-5.206,0.224,6.41,-5.013,5.015,-1.251
2758.0,-6.159,0.229,5.678,-5.013,5.015,-0.796
2761.0,-6.159,0.229,5.678,-5.013,5.015,-0.796
2765.0,-6.159,0.229,5.678,-5.013,5.015,-0.796
2769.0,-8.067,-0.505,6.111,-5.013,5.015,-0.246
2773.0,-8.067,-0.505,6.111,-5.013,5.015,-0.246
2777.0,-10.938,-1.972,7.08,-5.013,5.015,0.299
2781.0,-10.938,-1.972,7.08,-5.013,5.015,0.299
2785.0,-10.938,-1.972,7.08,-5.013,5.015,0.299
2789.0,-13.796,-3.194,7.167,-5.013,5.015,0.759
2793.0,-13.796,-3.194,7.167,-5.013,5.015,0.759
2797.0,-16.345,-4.265,7.287,-5.013,5.015,1.126
2801.0,-16.345,-4.265,7.287,-5.013,5.015,1.126
2805.0,-16.345,-4.265,7.287,-5.013,5.015,1.126
2809.0,-18.878,-4.664,7.012,-5.013,5.015,1.382
2813.0,-18.878,-4.664,7.012,-5.013,5.015,1.382
2817.0,-19.6,-4.311,6.866,-5.013,5.015,1.574
2821.0,-19.6,-4.311,6.866,-5.013,5.015,1.574
2825.0,-19.6,-4.311,6.866,-5.013,5.015,1.574
2829.0,-19.6,-4.128,7.144,-5.013,5.015,1.768
2833.0,-19.6,-4.128,7.144,-5.013,5.015,1.768
2837.0,-19.6,-4.064,7.333,-5.013,5.015,1.992
2841.0,-19.6,-4.064,7.333,-5.013,5.015,1.992
2845.0,-19.6,-4.064,7.554,-5.013,5.015,1.992
2849.0,-19.6,-4.236,7.554,-5.013,5.015,2.306
2853.0,-19.6,-4.236,7.554,-5.013,5.015,2.306
2857.0,-19.6,-4.306,7.327,-5.013,5.015,2.73
2861.0,-19.6,-4.306,7.327,-5.013,5.015,2.73
2865.0,-19.6,-4.385,7.021,-5.013,5.015,2.73
2869.0,-19.6,-4.385,7.021,-5.013,5.015,3.251
2873.0,-19.6,-4.385,7.021,-5.013,5.015,3.251
2877.0,-19.6,-4.695,6.925,-5.013,5.015,3.782
2881.0,-19.6,-4.695,6.925,-5.013,5.015,3.782
2885.0,-19.6,-4.817,6.686,-5.013,5.015,4.186
2889.0,-19.6,-4.817,6.686,-5.013,5.015,4.186
2893.0,-19.6,-4.817,6.686,-5.013,5.015,4.186
2897.0,-19.6,-4.388,5.867,-5.013,5.015,4.368
2901.0,-19.6,-4.388,5.867,-5.013,5.015,4.368
2905.0,-19.6,-3.572,4.823,-5.013,4.837,4.293
2909.0,-19.6,-3.572,4.823,-5.013,4.837,4.293
2913.0,-19.6,-3.572,4.823,-5.013,4.837,4.293
2917.0,-19.6,-3.016,4.6,-5.013,4.303,3.912
2921.0,-19.6,-3.016,4.6,-5.013,4.303,3.912
2925.0,-19.6,-1.75,3.581,-5.013,3.851,3.159
2929.0,-19.6,-1.75,3.581,-5.013,3.851,3.159
2933.0,-19.6,-1.75,3.581,-5.013,3.851,3.159
2937.0,-19.6,-0.718,2.842,-5.013,3.554,2.009
2941.0,-19.6,-0.718,2.842,-5.013,3.554,2.009
2945.0,-18.955,0.007,3.407,-5.013,3.338,0.892
2949.0,-18.955,0.007,3.407,-5.013,3.338,0.892
2953.0,-18.955,0.007,3.407,-5.013,3.338,0.892
2957.0,-17.493,0.545,5.11,-5.002,3.096,0.02
2961.0,-17.493,0.545,5.11,-5.002,3.096,0.02
2964.0,-16.64,0.765,6.144,-4.873,2.748,-0.613
2968.0,-16.64,0.765,6.144,-4.873,2.748,-0.613
2972.0,-16.64,0.765,6.144,-4.873,2.748,-0.613
2976.0,-15.691,0.492,5.78,-4.605,2.343,-1.047
2980.0,-15.691,0.492,5.78,-4.605,2.343,-1.047
2984.0,-14.687,0.106,4.872,-4.296,2.007,-1.379
2988.0,-14.687,0.106,4.872,-4.296,2.007,-1.379
2992.0,-14.687,0.106,4.872,-4.296,2.007,-1.379
2996.0,-14.041,-0.323,4.216,-4.005,1.797,-1.625
