deltaTime,Acc_X,Acc_Y,Acc_Z,Gyro_X,Gyro_Y,Gyro_Z
0.0,-9.099,-1.72,3.226,-0.764,-0.065,0.719
3.0,-9.166,-1.112,3.275,-0.764,-0.066,0.622
6.0,-9.166,-1.112,3.275,-0.692,-0.066,0.622
9.0,-9.166,-1.112,3.275,-0.692,-0.066,0.622
12.0,-9.166,-1.112,3.246,-0.692,-0.066,0.622
15.0,-9.511,-0.354,3.246,-0.716,-0.061,0.523
18.0,-9.511,-0.354,3.246,-0.716,-0.061,0.523
21.0,-9.511,-0.354,3.246,-0.716,-0.061,0.523
24.0,-9.73,0.321,3.205,-0.844,-0.085,0.424
27.0,-9.73,0.321,3.205,-0.844,-0.085,0.424
30.0,-9.73,0.321,3.205,-0.844,-0.085,0.424
33.0,-9.626,0.37,3.398,-1.049,-0.12,0.345
36.0,-9.626,0.37,3.398,-1.049,-0.12,0.345
40.0,-9.626,0.37,3.398,-1.049,-0.12,0.345
44.0,-9.307,-0.174,3.811,-1.222,-0.148,0.3
48.0,-9.307,-0.174,3.811,-1.222,-0.148,0.3
52.0,-9.307,-0.821,4.282,-1.222,-0.148,0.3
55.0,-8.975,-0.821,4.282,-1.279,-0.16,0.276
59.0,-8.975,-0.821,4.282,-1.279,-0.16,0.276
63.0,-8.685,-1.183,4.574,-1.228,-0.16,0.26
67.0,-8.685,-1.183,4.574,-1.228,-0.16,0.26
71.0,-8.685,-1.183,4.574,-1.228,-0.16,0.26
74.0,-8.422,-1.128,4.768,-1.137,-0.158,0.244
78.0,-8.422,-1.128,4.768,-1.137,-0.158,0.244
82.0,-8.247,-1.153,4.703,-1.063,-0.172,0.225
86.0,-8.247,-1.153,4.703,-1.063,-0.172,0.225
90.0,-8.247,-1.153,4.703,-1.063,-0.172,0.225
94.0,-7.954,-2.261,4.49,-0.953,-0.203,0.232
97.0,-7.954,-2.261,4.49,-0.953,-0.203,0.232
101.0,-8.444,-2.877,4.283,-0.953,-0.203,0.232
105.0,-8.444,-2.877,4.283,-0.632,-0.222,0.287
109.0,-8.444,-2.877,4.283,-0.632,-0.222,0.287
113.0,-8.557,-2.543,4.047,-0.287,-0.185,0.298
117.0,-8.557,-2.543,4.047,-0.287,-0.185,0.298
121.0,-8.036,-2.456,3.946,-0.287,-0.185,0.298
125.0,-8.036,-2.456,3.946,-0.032,-0.15,0.272
129.0,-8.036,-2.456,3.946,-0.032,-0.15,0.272
132.0,-7.544,-2.051,3.689,0.196,-0.129,0.228
136.0,-7.544,-2.051,3.689,0.196,-0.129,0.228
140.0,-7.544,-2.051,3.689,0.196,-0.129,0.228
144.0,-7.143,-1.382,3.418,0.349,-0.097,0.159
148.0,-7.143,-1.382,3.418,0.349,-0.097,0.159
152.0,-7.513,-0.855,3.403,0.402,-0.018,0.098
155.0,-7.513,-0.855,3.403,0.402,-0.018,0.098
159.0,-7.513,-0.855,3.403,0.402,-0.018,0.098
163.0,-7.911,-0.562,3.553,0.415,0.032,0.067
167.0,-7.911,-0.562,3.553,0.415,0.032,0.067
171.0,-8.002,-0.336,3.717,0.415,0.032,0.048
174.0,-8.002,-0.336,3.717,0.412,0.052,0.048
178.0,-8.002,-0.336,3.717,0.412,0.052,0.048
182.0,-8.134,-0.022,3.756,0.37,0.085,0.032
185.0,-8.134,-0.022,3.756,0.37,0.085,0.032
189.0,-8.134,-0.022,3.756,0.37,0.085,0.032
193.0,-8.423,0.303,3.813,0.265,0.09,0.022
197.0,-8.423,0.303,3.813,0.265,0.09,0.022
200.0,-8.756,0.558,3.702,0.265,0.092,0.02
204.0,-8.756,0.558,3.702,0.082,0.092,0.02
207.0,-8.756,0.558,3.702,0.082,0.092,0.02
211.0,-9.071,0.826,3.614,-0.176,0.1,0.003
215.0,-9.071,0.826,3.614,-0.176,0.1,0.003
219.0,-9.071,0.826,3.614,-0.176,0.1,0.003
222.0,-9.401,1.064,3.674,-0.502,0.116,-0.041
226.0,-9.401,1.064,3.674,-0.502,0.116,-0.041
230.0,-9.701,1.394,3.818,-0.872,0.121,-0.1
234.0,-9.701,1.394,3.818,-0.872,0.121,-0.1
238.0,-9.701,1.394,3.818,-0.872,0.121,-0.1
241.0,-9.948,1.813,3.991,-1.275,0.105,-0.164
245.0,-9.948,1.813,3.991,-1.275,0.105,-0.164
249.0,-9.948,2.0,4.016,-1.275,0.105,-0.164
253.0,-10.077,2.0,4.016,-1.719,0.086,-0.214
257.0,-10.077,2.0,4.016,-1.719,0.086,-0.214
261.0,-10.534,1.649,4.204,-2.139,0.079,-0.234
265.0,-10.534,1.649,4.204,-2.139,0.079,-0.234
269.0,-10.534,1.649,4.207,-2.139,0.079,-0.234
272.0,-10.385,1.074,4.207,-2.443,-0.004,-0.223
276.0,-10.385,1.074,4.207,-2.443,-0.004,-0.223
280.0,-10.354,-0.059,4.595,-2.669,-0.014,-0.165
284.0,-10.354,-0.059,4.595,-2.669,-0.014,-0.165
289.0,-10.283,-1.713,5.329,-2.669,-0.014,-0.165
293.0,-10.283,-1.713,5.329,-2.673,-0.037,-0.074
297.0,-10.283,-1.713,5.329,-2.673,-0.037,-0.074
301.0,-10.089,-2.261,5.312,-2.418,-0.095,0.02
305.0,-10.089,-2.261,5.312,-2.418,-0.095,0.02
309.0,-9.967,-2.226,4.873,-2.418,-0.251,0.018
313.0,-9.967,-2.226,4.873,-2.079,-0.251,0.018
317.0,-9.967,-2.226,4.873,-2.079,-0.251,0.018
321.0,-9.762,-2.185,4.424,-1.745,-0.433,-0.053
324.0,-9.762,-2.185,4.424,-1.745,-0.433,-0.053
328.0,-9.444,-2.019,4.103,-1.745,-0.564,-0.114
332.0,-9.444,-2.019,4.103,-1.417,-0.564,-0.114
336.0,-9.444,-2.019,4.103,-1.417,-0.564,-0.114
340.0,-9.037,-1.926,3.909,-1.095,-0.637,-0.135
344.0,-9.037,-1.926,3.909,-1.095,-0.637,-0.135
348.0,-8.938,-1.831,3.933,-0.783,-0.667,-0.134
352.0,-8.938,-1.831,3.933,-0.783,-0.667,-0.134
356.0,-8.938,-1.831,3.933,-0.783,-0.667,-0.134
360.0,-9.28,-1.667,4.073,-0.484,-0.686,-0.132
364.0,-9.28,-1.667,4.073,-0.484,-0.686,-0.132
368.0,-9.818,-1.416,4.333,-0.208,-0.724,-0.13
372.0,-9.818,-1.416,4.333,-0.208,-0.724,-0.13
376.0,-9.818,-1.416,4.333,-0.208,-0.724,-0.13
380.0,-10.328,-1.159,4.687,0.038,-0.797,-0.126
384.0,-10.328,-1.159,4.687,0.038,-0.797,-0.126
388.0,-10.753,-0.888,5.071,0.25,-0.914,-0.117
392.0,-10.753,-0.888,5.071,0.25,-0.914,-0.117
396.0,-10.753,-0.888,5.071,0.25,-0.914,-0.117
400.0,-11.2,-0.629,5.492,0.424,-1.074,-0.109
404.0,-11.2,-0.629,5.492,0.424,-1.074,-0.109
408.0,-11.54,-0.454,5.719,0.564,-1.262,-0.104
412.0,-11.54,-0.454,5.719,0.564,-1.262,-0.104
416.0,-11.54,-0.454,5.719,0.564,-1.262,-0.104
420.0,-11.551,-0.401,5.86,0.68,-1.445,-0.111
424.0,-11.551,-0.401,5.86,0.68,-1.445,-0.111
428.0,-11.21,-0.304,6.169,0.786,-1.6,-0.144
432.0,-11.21,-0.304,6.169,0.786,-1.6,-0.144
436.0,-11.21,-0.304,6.684,0.786,-1.6,-0.144
440.0,-10.881,-0.098,6.684,0.895,-1.736,-0.198
444.0,-10.881,-0.098,6.684,0.895,-1.736,-0.198
448.0,-10.956,0.121,7.209,1.011,-1.886,-0.25
452.0,-10.956,0.121,7.209,1.011,-1.886,-0.25
456.0,-10.956,0.121,7.691,1.011,-1.886,-0.25
460.0,-11.227,0.267,7.691,1.144,-2.061,-0.282
464.0,-11.227,0.267,7.691,1.144,-2.061,-0.282
468.0,-11.542,0.437,8.251,1.288,-2.251,-0.285
472.0,-11.542,0.437,8.251,1.288,-2.251,-0.285
476.0,-11.542,0.437,8.251,1.288,-2.251,-0.285
480.0,-11.635,0.613,8.728,1.413,-2.446,-0.254
483.0,-11.635,0.613,8.728,1.413,-2.446,-0.254
487.0,-11.416,0.788,9.061,1.497,-2.62,-0.19
491.0,-11.416,0.788,9.061,1.497,-2.62,-0.19
495.0,-11.416,0.788,9.061,1.497,-2.62,-0.19
499.0,-10.597,1.131,9.426,1.514,-2.736,-0.113
503.0,-10.597,1.131,9.426,1.514,-2.736,-0.113
507.0,-10.602,1.237,10.041,1.446,-2.797,-0.047
511.0,-10.602,1.237,10.041,1.446,-2.797,-0.047
515.0,-10.602,1.237,10.041,1.446,-2.797,-0.047
519.0,-10.231,1.625,10.944,1.339,-2.958,0.0
523.0,-10.231,1.625,10.944,1.339,-2.958,0.0
527.0,-10.24,1.913,11.78,1.156,-3.08,0.016
531.0,-10.24,1.913,11.78,1.156,-3.08,0.016
534.0,-10.24,1.913,11.78,1.156,-3.08,0.016
538.0,-10.298,2.266,12.58,0.922,-3.241,0.006
542.0,-10.298,2.266,12.58,0.922,-3.241,0.006
546.0,-10.134,2.497,13.207,0.661,-3.455,-0.019
550.0,-10.134,2.497,13.207,0.661,-3.455,-0.019
554.0,-10.134,2.497,13.207,0.661,-3.455,-0.019
558.0,-9.92,2.345,13.719,0.428,-3.699,-0.052
562.0,-9.92,2.345,13.719,0.428,-3.699,-0.052
566.0,-9.73,1.675,14.243,0.275,-3.951,-0.097
570.0,-9.73,1.675,14.243,0.275,-3.951,-0.097
574.0,-9.73,1.675,14.243,0.275,-3.951,-0.097
578.0,-9.51,0.842,14.694,0.222,-4.205,-0.169
582.0,-9.51,0.842,14.694,0.222,-4.205,-0.169
586.0,-9.513,-0.028,15.26,0.273,-4.447,-0.265
590.0,-9.513,-0.028,15.26,0.273,-4.447,-0.265
594.0,-9.513,-0.028,15.26,0.273,-4.447,-0.265
597.0,-9.714,-0.987,15.92,0.407,-4.69,-0.359
601.0,-9.714,-0.987,15.92,0.407,-4.69,-0.359
605.0,-9.864,-1.783,16.626,0.599,-4.912,-0.441
609.0,-9.864,-1.783,16.626,0.599,-4.912,-0.441
613.0,-9.864,-1.783,16.626,0.599,-4.912,-0.441
617.0,-9.747,-2.434,17.214,0.857,-4.991,-0.526
621.0,-9.747,-2.434,17.214,0.857,-4.991,-0.526
625.0,-9.55,-2.581,17.464,1.162,-4.992,-0.625
629.0,-9.55,-2.581,17.464,1.162,-4.992,-0.625
633.0,-9.55,-2.581,17.464,1.162,-4.992,-0.625
637.0,-9.172,-2.436,17.287,1.477,-4.992,-0.737
641.0,-9.172,-2.436,17.287,1.477,-4.992,-0.737
645.0,-8.454,-2.343,16.786,1.797,-4.992,-0.879
649.0,-8.454,-2.343,16.786,1.797,-4.992,-0.879
653.0,-8.454,-2.343,16.786,1.797,-4.992,-0.879
657.0,-7.608,-2.2,16.055,2.091,-4.992,-1.044
661.0,-7.608,-2.2,16.055,2.091,-4.992,-1.044
665.0,-7.238,-2.326,15.499,2.328,-4.992,-1.212
669.0,-7.238,-2.326,15.499,2.328,-4.992,-1.212
673.0,-7.238,-2.432,15.091,2.328,-4.992,-1.212
677.0,-6.708,-2.432,15.091,2.563,-4.992,-1.386
681.0,-6.708,-2.432,15.091,2.563,-4.992,-1.386
685.0,-6.45,-2.599,14.452,2.763,-4.992,-1.588
689.0,-6.45,-2.599,14.452,2.763,-4.992,-1.588
693.0,-5.974,-2.834,13.647,2.763,-4.992,-1.588
697.0,-5.974,-2.834,13.647,2.922,-4.992,-1.788
701.0,-5.974,-2.834,13.647,2.922,-4.992,-1.788
705.0,-5.337,-2.804,12.675,3.055,-4.992,-1.948
709.0,-5.337,-2.804,12.675,3.055,-4.992,-1.948
713.0,-4.588,-2.341,11.368,3.055,-4.992,-2.046
717.0,-4.588,-2.341,11.368,3.189,-4.992,-2.046
721.0,-4.588,-2.341,11.368,3.189,-4.992,-2.046
725.0,-3.845,-2.063,10.403,3.344,-4.992,-2.076
729.0,-3.845,-2.063,10.403,3.344,-4.992,-2.076
733.0,-3.333,-1.871,9.411,3.344,-4.992,-2.075
737.0,-3.333,-1.871,9.411,3.509,-4.992,-2.075
741.0,-3.333,-1.871,9.411,3.509,-4.992,-2.075
745.0,-2.735,-1.589,8.322,3.654,-4.992,-2.068
749.0,-2.735,-1.589,8.322,3.654,-4.992,-2.068
753.0,-2.358,-1.536,7.578,3.654,-4.992,-2.058
757.0,-2.358,-1.536,7.578,3.754,-4.992,-2.058
761.0,-2.358,-1.536,7.578,3.754,-4.992,-2.058
765.0,-1.674,-1.228,6.635,3.822,-4.992,-2.032
768.0,-1.674,-1.228,6.635,3.822,-4.992,-2.032
772.0,-0.933,-1.112,5.613,3.822,-4.992,-2.032
776.0,-0.933,-1.112,5.613,3.826,-4.992,-1.972
780.0,-0.933,-1.112,5.613,3.826,-4.992,-1.972
784.0,-0.123,-1.025,4.789,3.783,-4.969,-1.899
788.0,-0.123,-1.025,4.789,3.783,-4.969,-1.899
792.0,-0.123,-1.025,4.117,3.783,-4.969,-1.899
796.0,0.529,-1.025,4.117,3.71,-4.739,-1.822
800.0,0.529,-1.025,4.117,3.71,-4.739,-1.822
803.0,0.94,-1.216,3.943,3.629,-4.383,-1.748
807.0,0.94,-1.216,3.943,3.629,-4.383,-1.748
811.0,0.94,-1.216,3.943,3.629,-4.383,-1.748
815.0,1.147,-1.326,4.085,3.567,-4.035,-1.704
819.0,1.147,-1.326,4.085,3.567,-4.035,-1.704
822.0,1.164,-1.478,4.239,3.528,-3.729,-1.703
826.0,1.164,-1.478,4.239,3.528,-3.729,-1.703
830.0,1.164,-1.478,4.239,3.528,-3.729,-1.703
834.0,1.302,-1.391,4.101,3.508,-3.471,-1.749
838.0,1.302,-1.391,4.101,3.508,-3.471,-1.749
842.0,1.682,-0.952,3.823,3.508,-3.471,-1.815
845.0,1.682,-0.952,3.823,3.498,-3.25,-1.815
849.0,1.682,-0.952,3.823,3.498,-3.25,-1.815
853.0,2.171,-0.276,3.301,3.49,-3.059,-1.883
857.0,2.171,-0.276,3.301,3.49,-3.059,-1.883
861.0,2.171,-0.276,2.679,3.49,-3.059,-1.883
865.0,2.667,0.546,2.679,3.492,-2.892,-1.94
868.0,2.667,0.546,2.679,3.492,-2.892,-1.94
872.0,3.209,1.55,2.104,3.512,-2.738,-1.971
876.0,3.209,1.55,2.104,3.512,-2.738,-1.971
879.0,3.209,1.55,2.104,3.512,-2.738,-1.971
883.0,3.827,2.889,1.6,3.547,-2.6,-1.967
887.0,3.827,2.889,1.6,3.547,-2.6,-1.967
891.0,3.827,4.186,1.174,3.547,-2.6,-1.967
894.0,4.589,4.186,1.174,3.573,-2.478,-1.915
898.0,4.589,4.186,1.174,3.573,-2.478,-1.915
902.0,5.459,5.337,0.745,3.564,-2.365,-1.82
906.0,5.459,5.337,0.745,3.564,-2.365,-1.82
909.0,5.459,5.337,0.745,3.564,-2.365,-1.82
913.0,6.159,6.753,0.388,3.538,-2.25,-1.692
917.0,6.159,6.753,0.388,3.538,-2.25,-1.692
920.0,6.739,8.291,-0.068,3.538,-2.25,-1.505
924.0,6.739,8.291,-0.068,3.52,-2.118,-1.505
928.0,6.739,8.291,-0.068,3.52,-2.118,-1.505
932.0,7.609,10.102,-1.112,3.513,-1.956,-1.251
936.0,7.609,10.102,-1.112,3.513,-1.956,-1.251
940.0,7.609,10.102,-2.587,3.513,-1.956,-1.251
944.0,8.644,12.189,-2.587,3.532,-1.737,-0.928
948.0,8.644,12.189,-2.587,3.532,-1.737,-0.928
951.0,9.818,14.23,-3.872,3.569,-1.431,-0.527
955.0,9.818,14.23,-3.872,3.569,-1.431,-0.527
959.0,9.818,14.23,-3.872,3.569,-1.431,-0.527
963.0,10.705,16.054,-5.159,3.599,-1.011,-0.049
967.0,10.705,16.054,-5.159,3.599,-1.011,-0.049
971.0,11.853,17.729,-6.412,3.598,-0.557,0.492
975.0,11.853,17.729,-6.412,3.598,-0.557,0.492
979.0,11.853,17.729,-6.412,3.598,-0.557,0.492
983.0,12.832,19.341,-8.15,3.571,-0.002,1.075
987.0,12.832,19.341,-8.15,3.571,-0.002,1.075
991.0,13.869,19.596,-10.088,3.515,0.65,1.687
995.0,13.869,19.596,-10.088,3.515,0.65,1.687
999.0,13.869,19.596,-10.088,3.515,0.65,1.687
1002.0,14.701,19.596,-11.262,3.373,1.423,2.316
1006.0,14.701,19.596,-11.262,3.373,1.423,2.316
1010.0,14.568,19.596,-10.827,3.154,2.253,2.936
1014.0,14.568,19.596,-10.827,3.154,2.253,2.936
1018.0,14.568,19.596,-10.827,3.154,2.253,2.936
1022.0,13.441,19.596,-9.799,2.867,3.035,3.487
1026.0,13.441,19.596,-9.799,2.867,3.035,3.487
1030.0,11.594,19.596,-8.803,2.501,3.756,3.994
1034.0,11.594,19.596,-8.803,2.501,3.756,3.994
1038.0,11.594,19.596,-8.803,2.501,3.756,3.994
1042.0,8.791,19.594,-7.057,2.032,4.418,4.486
1046.0,8.791,19.594,-7.057,2.032,4.418,4.486
1050.0,5.293,18.772,-5.264,1.431,4.908,4.904
1053.0,5.293,18.772,-5.264,1.431,4.908,4.904
1057.0,5.293,18.772,-5.264,1.431,4.908,4.904
1061.0,1.426,16.691,-3.714,0.701,5.015,5.013
1065.0,1.426,16.691,-3.714,0.701,5.015,5.013
1069.0,-2.247,14.427,-2.793,0.701,5.015,5.013
1073.0,-2.247,14.427,-2.793,-0.122,5.015,5.013
1077.0,-2.247,14.427,-2.793,-0.122,5.015,5.013
1081.0,-6.098,12.043,-2.182,-1.035,5.015,5.013
1085.0,-6.098,12.043,-2.182,-1.035,5.015,5.013
1089.0,-10.863,9.833,-1.813,-1.035,5.015,5.013
1093.0,-10.863,9.833,-1.813,-2.063,5.015,5.013
1097.0,-10.863,9.833,-1.813,-2.063,5.015,5.013
1101.0,-17.166,7.318,-1.059,-3.239,5.015,5.013
1105.0,-17.166,7.318,-1.059,-3.239,5.015,5.013
1109.0,-19.6,2.957,0.906,-4.478,4.802,5.013
1112.0,-19.6,2.957,0.906,-4.478,4.802,5.013
1116.0,-19.6,2.957,0.906,-4.478,4.802,5.013
1120.0,-19.6,-3.714,3.018,-5.002,3.872,5.013
1124.0,-19.6,-3.714,3.018,-5.002,3.872,5.013
1128.0,-19.6,-9.051,4.438,-5.013,2.43,4.842
1132.0,-19.6,-9.051,4.438,-5.013,2.43,4.842
1136.0,-19.6,-9.051,4.438,-5.013,2.43,4.842
1140.0,-18.63,-13.349,2.84,-5.013,0.903,3.773
1144.0,-18.63,-13.349,2.84,-5.013,0.903,3.773
1148.0,-12.951,-16.949,1.989,-5.013,-0.308,2.064
1153.0,-12.951,-16.949,1.989,-5.013,-0.308,2.064
1157.0,-12.951,-16.949,1.989,-5.013,-0.308,2.064
1161.0,-9.072,-18.622,2.868,-5.013,-1.287,0.16
1165.0,-9.072,-18.622,2.868,-5.013,-1.287,0.16
1169.0,-6.956,-19.317,3.389,-4.762,-2.048,-1.484
1173.0,-6.956,-19.317,3.389,-4.762,-2.048,-1.484
1177.0,-5.343,-19.146,2.838,-4.762,-2.502,-2.685
1182.0,-5.343,-19.146,2.838,-3.463,-2.502,-2.685
1186.0,-5.343,-19.146,2.838,-3.463,-2.502,-2.685
1190.0,-4.265,-18.762,2.794,-1.745,-2.678,-3.438
1194.0,-4.265,-18.762,2.794,-1.745,-2.678,-3.438
1198.0,-3.983,-17.856,2.411,-0.041,-2.738,-3.853
1202.0,-3.983,-17.856,2.411,-0.041,-2.738,-3.853
1207.0,-4.454,-15.714,1.512,-0.041,-2.738,-3.853
1211.0,-4.454,-15.714,1.512,1.447,-2.798,-4.098
1215.0,-4.454,-15.714,1.512,1.447,-2.798,-4.098
1219.0,-5.194,-12.794,0.562,2.541,-2.901,-4.269
1223.0,-5.194,-12.794,0.562,2.541,-2.901,-4.269
1227.0,-5.512,-9.461,-0.123,3.153,-3.053,-4.41
1231.0,-5.512,-9.461,-0.123,3.153,-3.053,-4.41
1235.0,-5.512,-9.461,-0.123,3.153,-3.053,-4.41
1239.0,-5.179,-6.339,-0.562,3.342,-3.223,-4.543
1243.0,-5.179,-6.339,-0.562,3.342,-3.223,-4.543
1247.0,-4.046,-3.409,-1.063,3.226,-3.382,-4.682
1251.0,-4.046,-3.409,-1.063,3.226,-3.382,-4.682
1256.0,-4.046,-3.409,-1.107,3.226,-3.382,-4.682
1260.0,-2.332,-0.973,-1.107,2.916,-3.51,-4.827
1264.0,-2.332,-0.973,-1.107,2.916,-3.51,-4.827
1268.0,-0.164,0.817,-1.08,2.503,-3.625,-4.96
1272.0,-0.164,0.817,-1.08,2.503,-3.625,-4.96
1276.0,1.896,2.178,-0.902,2.503,-3.625,-4.96
1280.0,1.896,2.178,-0.902,2.068,-3.678,-4.995
1284.0,1.896,2.178,-0.902,2.068,-3.678,-4.995
1288.0,3.593,3.625,-0.986,1.679,-3.677,-4.995
1291.0,3.593,3.625,-0.986,1.679,-3.677,-4.995
1295.0,4.958,5.024,-1.31,1.679,-3.677,-4.995
1299.0,4.958,5.024,-1.31,1.36,-3.639,-4.995
1303.0,4.958,5.024,-1.31,1.36,-3.639,-4.995
1307.0,5.799,6.105,-1.535,1.097,-3.58,-4.995
1311.0,5.799,6.105,-1.535,1.097,-3.58,-4.995
1315.0,5.799,6.105,-1.954,1.097,-3.58,-4.995
1319.0,6.042,7.228,-1.954,0.84,-3.52,-4.995
1323.0,6.042,7.228,-1.954,0.84,-3.52,-4.995
1327.0,6.109,8.599,-2.846,0.573,-3.437,-4.995
1330.0,6.109,8.599,-2.846,0.573,-3.437,-4.995
1334.0,6.109,8.599,-2.846,0.573,-3.437,-4.995
1338.0,6.26,10.543,-3.75,0.328,-3.31,-4.995
1342.0,6.26,10.543,-3.75,0.328,-3.31,-4.995
1346.0,7.047,12.864,-5.048,0.137,-3.171,-4.97
1350.0,7.047,12.864,-5.048,0.137,-3.171,-4.97
1354.0,7.047,12.864,-7.631,0.137,-3.171,-4.97
1358.0,9.578,15.888,-7.631,0.005,-2.987,-4.785
1362.0,9.578,15.888,-7.631,0.005,-2.987,-4.785
1366.0,12.664,18.87,-10.129,-0.126,-2.697,-4.444
1370.0,12.664,18.87,-10.129,-0.126,-2.697,-4.444
1375.0,16.007,19.595,-12.38,-0.126,-2.302,-4.009
1379.0,16.007,19.595,-12.38,-0.317,-2.302,-4.009
1383.0,16.007,19.595,-12.38,-0.317,-2.302,-4.009
1388.0,16.502,19.596,-14.053,-0.459,-1.782,-3.504
1392.0,16.502,19.596,-14.053,-0.459,-1.782,-3.504
1396.0,14.182,19.596,-13.23,-0.525,-1.181,-2.92
1400.0,14.182,19.596,-13.23,-0.525,-1.181,-2.92
1405.0,13.274,19.596,-11.681,-0.555,-0.672,-2.222
1409.0,13.274,19.596,-11.681,-0.555,-0.672,-2.222
1413.0,13.274,19.596,-11.681,-0.555,-0.672,-2.222
1417.0,13.61,19.596,-10.706,-0.427,-0.216,-1.365
1422.0,13.61,19.596,-10.706,-0.427,-0.216,-1.365
1426.0,13.969,19.596,-10.113,-0.064,0.32,-0.407
1430.0,13.969,19.596,-10.113,-0.064,0.32,-0.407
1434.0,14.741,19.596,-9.377,0.47,0.923,0.59
1438.0,14.741,19.596,-9.377,0.47,0.923,0.59
1442.0,14.741,19.596,-9.377,0.47,0.923,0.59
1446.0,15.513,19.596,-8.324,1.033,1.506,1.529
1450.0,15.513,19.596,-8.324,1.033,1.506,1.529
1454.0,16.962,19.596,-8.846,1.033,1.506,2.374
1458.0,16.962,19.596,-8.846,1.446,2.039,2.374
1461.0,16.962,19.596,-8.846,1.446,2.039,2.374
1465.0,19.051,19.596,-10.321,1.588,2.651,3.127
1469.0,19.051,19.596,-10.321,1.588,2.651,3.127
1473.0,19.593,19.596,-11.136,1.588,2.651,3.644
1477.0,19.593,19.596,-11.136,1.44,3.372,3.644
1481.0,19.593,19.596,-11.136,1.44,3.372,3.644
1485.0,19.596,19.596,-10.825,1.037,4.148,3.982
1489.0,19.596,19.596,-10.825,1.037,4.148,3.982
1493.0,19.596,19.596,-9.01,1.037,4.838,4.304
1497.0,19.596,19.596,-9.01,0.541,4.838,4.304
1501.0,19.596,19.596,-9.01,0.541,4.838,4.304
1505.0,18.497,19.596,-6.918,0.191,5.015,4.653
1509.0,18.497,19.596,-6.918,0.191,5.015,4.653
1513.0,14.443,19.461,-4.405,0.191,5.015,4.958
1517.0,14.443,19.461,-4.405,0.028,5.015,4.958
1521.0,14.443,19.461,-4.405,0.028,5.015,4.958
1525.0,9.578,17.5,-1.091,-0.067,5.015,5.013
1528.0,9.578,17.5,-1.091,-0.067,5.015,5.013
1532.0,4.123,14.839,1.629,-0.067,5.015,5.013
1536.0,4.123,14.839,1.629,-0.214,5.015,5.013
1540.0,4.123,14.839,1.629,-0.214,5.015,5.013
1544.0,-1.372,12.45,3.419,-0.514,5.015,5.013
1548.0,-1.372,12.45,3.419,-0.514,5.015,5.013
1552.0,-1.372,12.45,4.655,-0.514,5.015,5.013
1556.0,-7.449,10.913,4.655,-1.071,5.015,5.013
1559.0,-7.449,10.913,4.655,-1.071,5.015,5.013
1563.0,-15.673,10.105,6.236,-1.922,5.015,5.013
1567.0,-15.673,10.105,6.236,-1.922,5.015,5.013
1571.0,-15.673,10.105,4.442,-1.922,5.015,5.013
1575.0,-19.591,9.59,4.442,-3.025,5.015,5.013
1579.0,-19.591,9.59,4.442,-3.025,5.015,5.013
1583.0,-19.6,2.079,1.912,-4.23,4.954,5.013
1587.0,-19.6,2.079,1.912,-4.23,4.954,5.013
1591.0,-19.6,2.079,1.912,-4.23,4.954,5.013
1595.0,-19.6,-5.294,5.43,-4.899,3.862,5.013
1599.0,-19.6,-5.294,5.43,-4.899,3.862,5.013
1603.0,-19.267,-8.643,5.991,-5.011,1.798,4.943
1607.0,-19.267,-8.643,5.991,-5.011,1.798,4.943
1611.0,-19.267,-8.643,1.916,-5.011,1.798,4.943
1615.0,-11.292,-10.621,1.916,-5.013,0.261,4.079
1619.0,-11.292,-10.621,1.916,-5.013,0.261,4.079
1623.0,-4.464,-10.936,0.814,-5.013,-0.369,2.455
1627.0,-4.464,-10.936,0.814,-5.013,-0.369,2.455
1631.0,-1.236,-10.026,2.753,-5.013,-0.369,0.77
1635.0,-1.236,-10.026,2.753,-5.013,-0.814,0.77
1639.0,-1.236,-10.026,2.753,-5.013,-0.814,0.77
1643.0,0.836,-8.858,4.621,-4.977,-1.353,-0.648
1647.0,0.836,-8.858,4.621,-4.977,-1.353,-0.648
1651.0,3.034,-8.2,4.794,-4.509,-1.841,-1.65
1655.0,3.034,-8.2,4.794,-4.509,-1.841,-1.65
1659.0,3.034,-8.2,4.794,-4.509,-1.841,-1.65
1663.0,5.377,-8.423,4.043,-3.648,-2.064,-2.208
1667.0,5.377,-8.423,4.043,-3.648,-2.064,-2.208
1671.0,7.326,-8.359,2.932,-2.65,-1.985,-2.433
1675.0,7.326,-8.359,2.932,-2.65,-1.985,-2.433
1679.0,7.326,-8.359,2.932,-2.65,-1.985,-2.433
1683.0,9.154,-8.006,1.513,-1.578,-1.758,-2.423
1687.0,9.154,-8.006,1.513,-1.578,-1.758,-2.423
1691.0,10.634,-6.843,0.529,-0.541,-1.381,-2.329
1695.0,10.634,-6.843,0.529,-0.541,-1.381,-2.329
1699.0,10.634,-6.843,0.529,-0.541,-1.381,-2.329
1704.0,11.107,-4.748,0.8,0.396,-0.879,-2.176
1708.0,11.107,-4.748,0.8,0.396,-0.879,-2.176
1712.0,11.017,-2.536,1.432,1.213,-0.443,-1.887
1716.0,11.017,-2.536,1.432,1.213,-0.443,-1.887
1720.0,11.017,-2.536,1.93,1.213,-0.443,-1.887
1724.0,10.905,-0.46,1.93,1.907,-0.143,-1.49
1728.0,10.905,-0.46,1.93,1.907,-0.143,-1.49
1732.0,11.115,0.696,2.171,2.504,0.037,-1.047
1735.0,11.115,0.696,2.171,2.504,0.037,-1.047
1739.0,11.115,0.696,2.067,2.504,0.037,-1.047
1743.0,11.649,1.296,2.067,2.989,0.147,-0.669
1747.0,11.649,1.296,2.067,2.989,0.147,-0.669
1751.0,11.965,1.872,1.93,3.329,0.252,-0.412
1754.0,11.965,1.872,1.93,3.329,0.252,-0.412
1758.0,11.965,1.872,1.93,3.329,0.252,-0.412
1762.0,11.494,2.542,1.991,3.508,0.37,-0.26
1766.0,11.494,2.542,1.991,3.508,0.37,-0.26
1770.0,10.376,3.24,2.119,3.508,0.468,-0.176
1774.0,10.376,3.24,2.119,3.529,0.468,-0.176
1777.0,10.376,3.24,2.119,3.529,0.468,-0.176
1781.0,9.213,3.928,2.308,3.408,0.515,-0.128
1785.0,9.213,3.928,2.308,3.408,0.515,-0.128
1789.0,9.213,3.928,2.463,3.408,0.515,-0.128
1792.0,8.332,4.492,2.463,3.155,0.514,-0.1
1796.0,8.332,4.492,2.463,3.155,0.514,-0.1
1800.0,7.743,4.866,2.514,2.779,0.487,-0.092
1804.0,7.743,4.866,2.514,2.779,0.487,-0.092
1807.0,7.743,4.866,2.514,2.779,0.487,-0.092
1811.0,7.426,5.092,2.543,2.306,0.454,-0.104
1815.0,7.426,5.092,2.543,2.306,0.454,-0.104
1818.0,7.334,5.227,2.633,2.306,0.454,-0.104
1822.0,7.334,5.227,2.633,1.774,0.419,-0.131
1826.0,7.334,5.227,2.633,1.774,0.419,-0.131
1830.0,7.403,5.154,2.745,1.23,0.388,-0.162
1833.0,7.403,5.154,2.745,1.23,0.388,-0.162
1837.0,7.403,5.154,2.745,1.23,0.388,-0.162
1841.0,7.496,4.827,2.853,0.706,0.37,-0.198
1845.0,7.496,4.827,2.853,0.706,0.37,-0.198
1848.0,7.364,4.524,3.003,0.706,0.37,-0.254
1852.0,7.364,4.524,3.003,0.229,0.368,-0.254
1856.0,7.364,4.524,3.003,0.229,0.368,-0.254
1860.0,7.022,4.336,3.262,-0.18,0.366,-0.324
1863.0,7.022,4.336,3.262,-0.18,0.366,-0.324
1867.0,7.022,4.336,3.262,-0.18,0.366,-0.324
1871.0,6.474,4.21,3.671,-0.516,0.348,-0.393
1875.0,6.474,4.21,3.671,-0.516,0.348,-0.393
1879.0,5.895,3.997,4.059,-0.781,0.294,-0.447
1882.0,5.895,3.997,4.059,-0.781,0.294,-0.447
1886.0,5.895,3.997,4.059,-0.781,0.294,-0.447
1890.0,5.515,3.709,4.314,-0.978,0.212,-0.488
1894.0,5.515,3.709,4.314,-0.978,0.212,-0.488
1898.0,5.478,3.449,4.361,-0.978,0.212,-0.52
1902.0,5.478,3.449,4.361,-1.106,0.126,-0.52
1905.0,5.478,3.449,4.361,-1.106,0.126,-0.52
1909.0,5.824,3.188,4.394,-1.161,0.063,-0.527
1913.0,5.824,3.188,4.394,-1.161,0.063,-0.527
1917.0,5.824,3.188,4.525,-1.161,0.063,-0.527
1921.0,6.322,2.962,4.525,-1.138,0.03,-0.506
1924.0,6.322,2.962,4.525,-1.138,0.03,-0.506
1928.0,6.878,2.657,4.658,-1.045,0.015,-0.452
1932.0,6.878,2.657,4.658,-1.045,0.015,-0.452
1936.0,6.878,2.657,4.658,-1.045,0.015,-0.452
1940.0,7.38,2.329,4.814,-0.89,0.012,-0.386
1944.0,7.38,2.329,4.814,-0.89,0.012,-0.386
1947.0,7.726,2.069,4.987,-0.683,0.015,-0.326
1951.0,7.726,2.069,4.987,-0.683,0.015,-0.326
1955.0,7.726,2.069,4.987,-0.683,0.015,-0.326
1959.0,7.796,1.988,5.078,-0.447,0.022,-0.284
1963.0,7.796,1.988,5.078,-0.447,0.022,-0.284
1966.0,7.65,2.186,5.008,-0.447,0.022,-0.284
1970.0,7.65,2.186,5.008,-0.209,0.034,-0.244
1974.0,7.65,2.186,5.008,-0.209,0.034,-0.244
1978.0,7.661,2.493,4.923,0.009,0.056,-0.184
1982.0,7.661,2.493,4.923,0.009,0.056,-0.184
1985.0,7.661,2.493,4.923,0.009,0.056,-0.184
1989.0,7.996,2.81,4.749,0.19,0.086,-0.108
1993.0,7.996,2.81,4.749,0.19,0.086,-0.108
1997.0,8.38,3.032,4.604,0.19,0.125,-0.04
2000.0,8.38,3.032,4.604,0.318,0.125,-0.04
2004.0,8.38,3.032,4.604,0.318,0.125,-0.04
2008.0,8.475,3.218,4.522,0.392,0.172,0.004
2011.0,8.475,3.218,4.522,0.392,0.172,0.004
2015.0,8.475,3.218,4.522,0.392,0.172,0.004
2019.0,8.212,3.409,4.523,0.42,0.224,0.031
2022.0,8.212,3.409,4.523,0.42,0.224,0.031
2026.0,7.805,3.461,4.612,0.42,0.224,0.053
2030.0,7.805,3.461,4.612,0.423,0.272,0.053
2033.0,7.805,3.461,4.612,0.423,0.272,0.053
2037.0,7.42,3.243,4.843,0.415,0.306,0.059
2041.0,7.42,3.243,4.843,0.415,0.306,0.059
2044.0,7.42,3.243,4.843,0.415,0.306,0.059
2048.0,7.105,2.938,5.082,0.402,0.313,0.039
2052.0,7.105,2.938,5.082,0.402,0.313,0.039
2055.0,7.105,2.786,5.122,0.402,0.313,0.039
2059.0,6.842,2.786,5.122,0.389,0.299,-0.001
2063.0,6.842,2.786,5.122,0.389,0.299,-0.001
2066.0,6.776,2.761,5.093,0.387,0.277,-0.043
2070.0,6.776,2.761,5.093,0.387,0.277,-0.043
2074.0,6.776,2.761,5.093,0.387,0.277,-0.043
2078.0,6.961,2.806,5.055,0.395,0.251,-0.074
2081.0,6.961,2.806,5.055,0.395,0.251,-0.074
2085.0,7.277,2.817,5.043,0.395,0.251,-0.074
2089.0,7.277,2.817,5.043,0.409,0.219,-0.09
2092.0,7.277,2.817,5.043,0.409,0.219,-0.09
2096.0,7.564,2.835,4.979,0.419,0.186,-0.1
2100.0,7.564,2.835,4.979,0.419,0.186,-0.1
2104.0,7.564,2.835,4.979,0.419,0.186,-0.1
2107.0,7.771,2.877,4.823,0.419,0.16,-0.106
2111.0,7.771,2.877,4.823,0.419,0.16,-0.106
2115.0,8.01,2.969,4.627,0.419,0.16,-0.111
2119.0,8.01,2.969,4.627,0.404,0.147,-0.111
2122.0,8.01,2.969,4.627,0.404,0.147,-0.111
2126.0,8.153,3.134,4.591,0.372,0.148,-0.113
2130.0,8.153,3.134,4.591,0.372,0.148,-0.113
2134.0,8.153,3.134,4.591,0.372,0.148,-0.113
2137.0,8.233,3.224,4.58,0.327,0.148,-0.101
2141.0,8.233,3.224,4.58,0.327,0.148,-0.101
2145.0,8.329,3.209,4.683,0.327,0.149,-0.084
2148.0,8.329,3.209,4.683,0.28,0.149,-0.084
2152.0,8.329,3.209,4.683,0.28,0.149,-0.084
2156.0,8.321,3.162,4.863,0.241,0.15,-0.072
2160.0,8.321,3.162,4.863,0.241,0.15,-0.072
2163.0,8.321,3.162,4.863,0.241,0.15,-0.072
2167.0,8.155,3.152,4.955,0.213,0.148,-0.061
2171.0,8.155,3.152,4.955,0.213,0.148,-0.061
2175.0,8.075,3.116,4.905,0.194,0.15,-0.044
2178.0,8.075,3.116,4.905,0.194,0.15,-0.044
2182.0,8.075,3.116,4.905,0.194,0.15,-0.044
2186.0,8.201,3.078,4.788,0.175,0.154,-0.032
2189.0,8.201,3.078,4.788,0.175,0.154,-0.032
2193.0,8.201,3.078,4.671,0.175,0.154,-0.032
2197.0,8.463,3.068,4.671,0.149,0.159,-0.039
2201.0,8.463,3.068,4.671,0.149,0.159,-0.039
2204.0,8.746,3.2,4.52,0.114,0.17,-0.063
2208.0,8.746,3.2,4.52,0.114,0.17,-0.063
2212.0,8.746,3.2,4.52,0.114,0.17,-0.063
2216.0,9.019,3.397,4.407,0.072,0.198,-0.08
2219.0,9.019,3.397,4.407,0.072,0.198,-0.08
2223.0,9.019,3.532,4.418,0.072,0.198,-0.08
2227.0,9.0,3.532,4.418,0.024,0.238,-0.075
2231.0,9.0,3.532,4.418,0.024,0.238,-0.075
2234.0,8.735,3.488,4.422,-0.026,0.28,-0.046
2238.0,8.735,3.488,4.422,-0.026,0.28,-0.046
2242.0,8.735,3.488,4.422,-0.026,0.28,-0.046
2246.0,8.378,3.33,4.556,-0.064,0.323,-0.007
2250.0,8.378,3.33,4.556,-0.064,0.323,-0.007
2253.0,8.042,3.175,4.753,-0.079,0.352,0.032
2257.0,8.042,3.175,4.753,-0.079,0.352,0.032
2261.0,8.042,3.175,4.753,-0.079,0.352,0.032
2265.0,7.779,3.062,4.901,-0.067,0.348,0.064
2268.0,7.779,3.062,4.901,-0.067,0.348,0.064
2272.0,7.779,3.062,4.901,-0.067,0.348,0.064
2276.0,7.665,3.02,4.957,-0.033,0.317,0.085
2280.0,7.665,3.02,4.957,-0.033,0.317,0.085
2283.0,7.668,3.018,4.962,0.01,0.277,0.094
2287.0,7.668,3.018,4.962,0.01,0.277,0.094
2291.0,7.668,3.018,4.962,0.01,0.277,0.094
2294.0,7.7,3.016,4.935,0.047,0.237,0.092
2298.0,7.7,3.016,4.935,0.047,0.237,0.092
2301.0,7.7,3.016,4.935,0.047,0.237,0.092
2305.0,7.671,3.003,4.869,0.067,0.204,0.076
2309.0,7.671,3.003,4.869,0.067,0.204,0.076
2312.0,7.647,2.988,4.727,0.067,0.18,0.052
2316.0,7.647,2.988,4.727,0.067,0.18,0.052
2320.0,7.647,2.988,4.727,0.067,0.18,0.052
2323.0,7.652,2.968,4.553,0.054,0.166,0.025
2327.0,7.652,2.968,4.553,0.054,0.166,0.025
2331.0,7.652,2.968,4.553,0.054,0.166,0.025
2334.0,7.761,2.951,4.451,0.035,0.164,-0.007
2338.0,7.761,2.951,4.451,0.035,0.164,-0.007
2342.0,7.909,2.99,4.403,0.035,0.164,-0.007
2345.0,7.909,2.99,4.403,0.016,0.163,-0.038
2349.0,7.909,2.99,4.403,0.016,0.163,-0.038
2353.0,8.089,2.986,4.388,0.009,0.161,-0.057
2357.0,8.089,2.986,4.388,0.009,0.161,-0.057
2360.0,8.089,2.986,4.388,0.009,0.161,-0.057
2364.0,8.289,2.896,4.299,0.019,0.158,-0.067
2368.0,8.289,2.896,4.299,0.019,0.158,-0.067
2372.0,8.401,2.745,4.192,0.019,0.155,-0.077
2375.0,8.401,2.745,4.192,0.044,0.155,-0.077
2379.0,8.401,2.745,4.192,0.044,0.155,-0.077
2383.0,8.288,2.626,4.097,0.082,0.158,-0.085
2387.0,8.288,2.626,4.097,0.082,0.158,-0.085
2390.0,8.288,2.626,4.097,0.082,0.158,-0.085
2394.0,8.092,2.544,4.07,0.133,0.163,-0.087
2398.0,8.092,2.544,4.07,0.133,0.163,-0.087
2401.0,7.975,2.5,4.035,0.193,0.161,-0.084
2405.0,7.975,2.5,4.035,0.193,0.161,-0.084
2409.0,7.975,2.5,4.035,0.193,0.161,-0.084
2413.0,7.888,2.538,3.904,0.255,0.147,-0.08
2416.0,7.888,2.538,3.904,0.255,0.147,-0.08
2420.0,7.888,2.538,3.904,0.255,0.147,-0.08
2424.0,7.758,2.627,3.722,0.308,0.125,-0.074
2428.0,7.758,2.627,3.722,0.308,0.125,-0.074
2431.0,7.64,2.748,3.5,0.342,0.094,-0.072
2435.0,7.64,2.748,3.5,0.342,0.094,-0.072
2439.0,7.64,2.748,3.5,0.342,0.094,-0.072
2443.0,7.722,2.882,3.267,0.349,0.069,-0.08
2446.0,7.722,2.882,3.267,0.349,0.069,-0.08
2450.0,7.722,2.882,3.086,0.349,0.069,-0.08
2454.0,7.98,2.996,3.086,0.328,0.059,-0.109
2457.0,7.98,2.996,3.086,0.328,0.059,-0.109
2461.0,8.174,3.16,2.965,0.281,0.067,-0.158
2465.0,8.174,3.16,2.965,0.281,0.067,-0.158
2469.0,8.174,3.16,2.965,0.281,0.067,-0.158
2472.0,8.118,3.294,2.888,0.217,0.094,-0.215
2476.0,8.118,3.294,2.888,0.217,0.094,-0.215
2480.0,7.991,3.389,2.85,0.217,0.094,-0.215
2484.0,7.991,3.389,2.85,0.147,0.132,-0.271
2487.0,7.991,3.389,2.85,0.147,0.132,-0.271
2491.0,7.804,3.433,2.825,0.079,0.18,-0.33
2495.0,7.804,3.433,2.825,0.079,0.18,-0.33
2499.0,7.804,3.433,2.825,0.079,0.18,-0.33
2502.0,7.614,3.466,2.781,0.017,0.221,-0.386
2506.0,7.614,3.466,2.781,0.017,0.221,-0.386
2510.0,7.501,3.523,2.716,0.017,0.221,-0.436
2513.0,7.501,3.523,2.716,-0.033,0.254,-0.436
2517.0,7.501,3.523,2.716,-0.033,0.254,-0.436
2521.0,7.398,3.55,2.667,-0.069,0.282,-0.474
2525.0,7.398,3.55,2.667,-0.069,0.282,-0.474
2529.0,7.398,3.55,2.667,-0.069,0.282,-0.474
2533.0,7.257,3.514,2.62,-0.089,0.301,-0.505
2536.0,7.257,3.514,2.62,-0.089,0.301,-0.505
2540.0,7.074,3.47,2.592,-0.096,0.315,-0.534
2544.0,7.074,3.47,2.592,-0.096,0.315,-0.534
2548.0,7.074,3.47,2.592,-0.096,0.315,-0.534
2552.0,6.751,3.402,2.574,-0.091,0.329,-0.563
2555.0,6.751,3.402,2.574,-0.091,0.329,-0.563
2559.0,6.386,3.332,2.585,-0.091,0.339,-0.59
2563.0,6.386,3.332,2.585,-0.075,0.339,-0.59
2567.0,6.386,3.332,2.585,-0.075,0.339,-0.59
2571.0,6.001,3.278,2.67,-0.053,0.349,-0.621
2575.0,6.001,3.278,2.67,-0.053,0.349,-0.621
2578.0,6.001,3.276,2.765,-0.053,0.349,-0.621
2582.0,5.606,3.276,2.765,-0.022,0.355,-0.656
2586.0,5.606,3.276,2.765,-0.022,0.355,-0.656
2590.0,5.319,3.266,2.858,0.01,0.353,-0.691
2594.0,5.319,3.266,2.858,0.01,0.353,-0.691
2597.0,5.319,3.266,2.858,0.01,0.353,-0.691
2601.0,5.076,3.268,2.913,0.039,0.353,-0.719
2605.0,5.076,3.268,2.913,0.039,0.353,-0.719
2608.0,5.011,3.327,2.809,0.039,0.355,-0.733
2612.0,5.011,3.327,2.809,0.078,0.355,-0.733
2616.0,5.011,3.327,2.809,0.078,0.355,-0.733
2620.0,5.087,3.389,2.709,0.135,0.359,-0.737
2623.0,5.087,3.389,2.709,0.135,0.359,-0.737
2627.0,5.087,3.389,2.709,0.135,0.359,-0.737
2631.0,5.326,3.508,2.684,0.204,0.355,-0.745
2635.0,5.326,3.508,2.684,0.204,0.355,-0.745
2638.0,5.64,3.701,2.853,0.275,0.347,-0.764
2642.0,5.64,3.701,2.853,0.275,0.347,-0.764
2646.0,5.64,3.701,2.853,0.275,0.347,-0.764
2650.0,5.894,4.028,3.048,0.338,0.333,-0.782
2653.0,5.894,4.028,3.048,0.338,0.333,-0.782
2657.0,5.894,4.028,3.048,0.338,0.333,-0.782
2661.0,6.063,4.396,3.233,0.39,0.312,-0.781
2664.0,6.063,4.396,3.233,0.39,0.312,-0.781
2668.0,6.243,4.706,3.346,0.43,0.289,-0.756
2672.0,6.243,4.706,3.346,0.43,0.289,-0.756
2676.0,6.243,4.706,3.346,0.43,0.289,-0.756
2679.0,6.435,4.973,3.461,0.453,0.266,-0.717
2683.0,6.435,4.973,3.461,0.453,0.266,-0.717
2687.0,6.435,4.973,3.554,0.453,0.266,-0.717
2691.0,6.535,5.205,3.554,0.465,0.248,-0.675
2694.0,6.535,5.205,3.554,0.465,0.248,-0.675
2698.0,6.586,5.451,3.63,0.466,0.223,-0.642
2702.0,6.586,5.451,3.63,0.466,0.223,-0.642
2706.0,6.586,5.451,3.63,0.466,0.223,-0.642
2709.0,6.555,5.822,3.714,0.458,0.185,-0.623
2713.0,6.555,5.822,3.714,0.458,0.185,-0.623
2717.0,6.5,6.244,3.749,0.458,0.185,-0.623
2720.0,6.5,6.244,3.749,0.441,0.13,-0.603
2724.0,6.5,6.244,3.749,0.441,0.13,-0.603
2728.0,6.528,6.596,3.762,0.408,0.063,-0.57
2732.0,6.528,6.596,3.762,0.408,0.063,-0.57
2735.0,6.528,6.596,3.762,0.408,0.063,-0.57
2739.0,6.596,6.787,3.699,0.359,-0.005,-0.528
2743.0,6.596,6.787,3.699,0.359,-0.005,-0.528
2747.0,6.721,6.941,3.684,0.359,-0.068,-0.495
2751.0,6.721,6.941,3.684,0.295,-0.068,-0.495
2754.0,6.721,6.941,3.684,0.295,-0.068,-0.495
2758.0,6.871,7.046,3.766,0.224,-0.124,-0.476
2762.0,6.871,7.046,3.766,0.224,-0.124,-0.476
2766.0,6.871,7.192,3.867,0.224,-0.124,-0.476
2770.0,7.019,7.192,3.867,0.152,-0.174,-0.474
2774.0,7.019,7.192,3.867,0.152,-0.174,-0.474
2777.0,7.164,7.428,4.003,0.085,-0.221,-0.474
2781.0,7.164,7.428,4.003,0.085,-0.221,-0.474
2785.0,7.164,7.428,4.003,0.085,-0.221,-0.474
2789.0,7.365,7.683,4.165,0.021,-0.278,-0.468
2793.0,7.365,7.683,4.165,0.021,-0.278,-0.468
2796.0,7.644,7.933,4.301,-0.04,-0.346,-0.461
2800.0,7.644,7.933,4.301,-0.04,-0.346,-0.461
2804.0,7.644,7.933,4.301,-0.04,-0.346,-0.461
2808.0,7.895,8.162,4.457,-0.095,-0.417,-0.457
2812.0,7.895,8.162,4.457,-0.095,-0.417,-0.457
2816.0,8.055,8.332,4.585,-0.141,-0.495,-0.459
2820.0,8.055,8.332,4.585,-0.141,-0.495,-0.459
2824.0,8.055,8.332,4.585,-0.141,-0.495,-0.459
2828.0,8.106,8.39,4.668,-0.183,-0.575,-0.461
2832.0,8.106,8.39,4.668,-0.183,-0.575,-0.461
2835.0,8.069,8.335,4.723,-0.183,-0.575,-0.465
2839.0,8.069,8.335,4.723,-0.227,-0.652,-0.465
2843.0,8.069,8.335,4.723,-0.227,-0.652,-0.465
2847.0,7.893,8.155,4.792,-0.273,-0.724,-0.48
2851.0,7.893,8.155,4.792,-0.273,-0.724,-0.48
2855.0,7.68,7.886,4.758,-0.273,-0.724,-0.48
2859.0,7.68,7.886,4.758,-0.316,-0.797,-0.512
2863.0,7.68,7.886,4.758,-0.316,-0.797,-0.512
2867.0,7.522,7.604,4.682,-0.356,-0.871,-0.568
2871.0,7.522,7.604,4.682,-0.356,-0.871,-0.568
2875.0,7.522,7.508,4.525,-0.356,-0.871,-0.568
2878.0,7.5,7.508,4.525,-0.394,-0.936,-0.631
2882.0,7.5,7.508,4.525,-0.394,-0.936,-0.631
2886.0,7.714,7.382,4.317,-0.425,-0.988,-0.679
2890.0,7.714,7.382,4.317,-0.425,-0.988,-0.679
2894.0,7.714,7.382,4.176,-0.425,-0.988,-0.679
2898.0,8.018,7.33,4.176,-0.451,-1.022,-0.726
2902.0,8.018,7.33,4.176,-0.451,-1.022,-0.726
2906.0,8.174,7.416,4.176,-0.47,-1.034,-0.758
2910.0,8.174,7.416,4.176,-0.47,-1.034,-0.758
2914.0,8.174,7.416,4.176,-0.47,-1.034,-0.758
2918.0,8.258,7.386,4.235,-0.485,-1.024,-0.749
2921.0,8.258,7.386,4.235,-0.485,-1.024,-0.749
2925.0,8.304,7.2,4.349,-0.496,-0.991,-0.713
2929.0,8.304,7.2,4.349,-0.496,-0.991,-0.713
2933.0,8.304,7.2,4.349,-0.496,-0.991,-0.713
2937.0,8.308,6.955,4.524,-0.502,-0.94,-0.676
2941.0,8.308,6.955,4.524,-0.502,-0.94,-0.676
2945.0,8.207,6.769,4.698,-0.502,-0.881,-0.645
2949.0,8.207,6.769,4.698,-0.502,-0.881,-0.645
2953.0,8.207,6.769,4.698,-0.502,-0.881,-0.645
2957.0,7.835,6.571,4.869,-0.502,-0.828,-0.602
2960.0,7.835,6.571,4.869,-0.502,-0.828,-0.602
2964.0,7.36,6.34,4.897,-0.506,-0.803,-0.539
2968.0,7.36,6.34,4.897,-0.506,-0.803,-0.539
2972.0,7.36,6.34,4.897,-0.506,-0.803,-0.539
2976.0,7.147,6.16,4.773,-0.514,-0.808,-0.496
2980.0,7.147,6.16,4.773,-0.514,-0.808,-0.496
2984.0,7.175,6.134,4.704,-0.535,-0.816,-0.507
2988.0,7.175,6.134,4.704,-0.535,-0.816,-0.507
2992.0,7.175,6.134,4.704,-0.535,-0.816,-0.507
2996.0,7.263,6.265,4.691,-0.576,-0.814,-0.545
3000.0,7.263,6.265,4.691,-0.576,-0.814,-0.545
