deltaTime,Acc_X,Acc_Y,Acc_Z,Gyro_X,Gyro_Y,Gyro_Z
0.0,-13.944,-4.304,9.09,1.25,0.779,0.351
3.0,-15.264,-4.866,9.846,1.083,0.848,0.568
6.0,-15.264,-4.866,9.846,1.083,0.848,0.568
9.0,-15.264,-4.866,9.846,1.083,0.848,0.568
12.0,-15.424,-5.748,10.726,0.946,0.872,0.778
15.0,-15.424,-5.748,10.726,0.946,0.872,0.778
17.0,-15.424,-5.748,10.726,0.946,0.872,0.778
20.0,-14.656,-6.273,11.118,0.867,0.925,0.961
23.0,-14.656,-6.273,11.118,0.867,0.925,0.961
26.0,-14.656,-6.273,11.118,0.867,0.925,0.961
29.0,-14.656,-6.788,11.166,0.867,0.925,0.961
32.0,-13.807,-6.788,11.166,0.835,0.997,1.12
36.0,-13.807,-6.788,11.166,0.835,0.997,1.12
40.0,-13.428,-7.225,11.212,0.835,1.081,1.238
44.0,-13.428,-7.225,11.212,0.871,1.081,1.238
48.0,-13.428,-7.225,11.212,0.871,1.081,1.238
51.0,-13.134,-7.609,11.357,0.997,1.134,1.296
55.0,-13.134,-7.609,11.357,0.997,1.134,1.296
59.0,-13.134,-7.321,11.343,0.997,1.134,1.296
63.0,-12.042,-7.321,11.343,1.199,1.111,1.282
67.0,-12.042,-7.321,11.343,1.199,1.111,1.282
71.0,-10.367,-6.26,11.173,1.374,1.01,1.139
74.0,-10.367,-6.26,11.173,1.374,1.01,1.139
78.0,-10.367,-6.26,11.173,1.374,1.01,1.139
82.0,-9.322,-5.368,10.618,1.453,0.852,0.848
86.0,-9.322,-5.368,10.618,1.453,0.852,0.848
90.0,-8.043,-3.399,9.352,1.497,0.644,0.501
93.0,-8.043,-3.399,9.352,1.497,0.644,0.501
97.0,-8.043,-3.399,9.352,1.497,0.644,0.501
100.0,-8.062,-1.448,7.587,1.299,0.495,0.234
104.0,-8.062,-1.448,7.587,1.299,0.495,0.234
108.0,-8.062,-1.448,7.587,1.299,0.495,0.234
112.0,-8.412,-0.572,6.057,0.811,0.374,0.035
115.0,-8.412,-0.572,6.057,0.811,0.374,0.035
119.0,-9.092,-0.844,5.079,0.237,0.281,-0.103
123.0,-9.092,-0.844,5.079,0.237,0.281,-0.103
127.0,-9.092,-0.844,5.079,0.237,0.281,-0.103
131.0,-10.058,-1.043,4.365,-0.269,0.199,-0.175
135.0,-10.058,-1.043,4.365,-0.269,0.199,-0.175
139.0,-11.064,-1.231,3.53,-0.269,0.199,-0.172
143.0,-11.064,-1.231,3.53,-0.734,0.13,-0.172
147.0,-11.064,-1.231,3.53,-0.734,0.13,-0.172
151.0,-11.69,-2.144,2.976,-1.182,0.109,-0.119
155.0,-11.69,-2.144,2.976,-1.182,0.109,-0.119
159.0,-12.153,-3.425,2.894,-1.531,0.147,-0.065
163.0,-12.153,-3.425,2.894,-1.531,0.147,-0.065
167.0,-12.153,-3.425,2.894,-1.531,0.147,-0.065
171.0,-12.451,-4.367,3.176,-1.708,0.215,-0.043
175.0,-12.451,-4.367,3.176,-1.708,0.215,-0.043
178.0,-12.402,-4.989,3.708,-1.692,0.282,-0.023
182.0,-12.402,-4.989,3.708,-1.692,0.282,-0.023
186.0,-12.402,-4.989,3.708,-1.692,0.282,-0.023
190.0,-12.104,-5.215,4.144,-1.471,0.323,0.009
194.0,-12.104,-5.215,4.144,-1.471,0.323,0.009
198.0,-11.364,-4.886,4.278,-1.104,0.359,0.038
202.0,-11.364,-4.886,4.278,-1.104,0.359,0.038
206.0,-11.364,-4.886,4.278,-1.104,0.359,0.038
210.0,-10.373,-4.147,4.091,-0.668,0.417,0.078
214.0,-10.373,-4.147,4.091,-0.668,0.417,0.078
218.0,-9.587,-2.735,3.668,-0.272,0.498,0.126
222.0,-9.587,-2.735,3.668,-0.272,0.498,0.126
225.0,-9.587,-2.735,3.668,-0.272,0.498,0.126
229.0,-8.928,-1.54,3.316,-0.042,0.589,0.179
233.0,-8.928,-1.54,3.316,-0.042,0.589,0.179
237.0,-8.177,-0.837,2.977,-0.042,0.589,0.179
241.0,-8.177,-0.837,2.977,0.047,0.67,0.247
244.0,-8.177,-0.837,2.977,0.047,0.67,0.247
248.0,-7.547,-0.33,2.623,0.044,0.741,0.322
252.0,-7.547,-0.33,2.623,0.044,0.741,0.322
256.0,-7.547,-0.33,2.623,0.044,0.741,0.322
259.0,-7.099,0.208,2.284,-0.035,0.796,0.387
263.0,-7.099,0.208,2.284,-0.035,0.796,0.387
267.0,-6.572,0.916,1.936,-0.035,0.796,0.431
271.0,-6.572,0.916,1.936,-0.214,0.84,0.431
274.0,-6.572,0.916,1.936,-0.214,0.84,0.431
278.0,-6.192,1.637,1.707,-0.521,0.882,0.457
282.0,-6.192,1.637,1.707,-0.521,0.882,0.457
286.0,-6.192,1.637,1.707,-0.521,0.882,0.457
289.0,-5.92,2.231,1.641,-0.948,0.918,0.474
293.0,-5.92,2.231,1.641,-0.948,0.918,0.474
297.0,-5.683,2.469,1.707,-1.453,0.941,0.479
300.0,-5.683,2.469,1.707,-1.453,0.941,0.479
304.0,-5.683,2.469,1.707,-1.453,0.941,0.479
308.0,-5.567,2.539,1.854,-1.968,0.946,0.486
312.0,-5.567,2.539,1.854,-1.968,0.946,0.486
315.0,-5.567,2.539,1.854,-1.968,0.946,0.486
319.0,-5.462,1.969,2.332,-2.442,0.929,0.503
323.0,-5.462,1.969,2.332,-2.442,0.929,0.503
327.0,-5.219,1.561,2.72,-2.764,0.88,0.551
330.0,-5.219,1.561,2.72,-2.764,0.88,0.551
334.0,-5.219,1.561,2.72,-2.764,0.88,0.551
338.0,-4.561,1.326,3.147,-2.943,0.805,0.623
342.0,-4.561,1.326,3.147,-2.943,0.805,0.623
345.0,-4.561,1.326,3.567,-2.943,0.805,0.623
349.0,-4.219,0.84,3.567,-2.994,0.733,0.703
353.0,-4.219,0.84,3.567,-2.994,0.733,0.703
356.0,-3.837,0.674,3.728,-2.884,0.629,0.732
360.0,-3.837,0.674,3.728,-2.884,0.629,0.732
364.0,-3.837,0.674,3.728,-2.884,0.629,0.732
368.0,-3.68,0.607,3.647,-2.66,0.46,0.645
371.0,-3.68,0.607,3.647,-2.66,0.46,0.645
375.0,-3.529,0.713,3.494,-2.66,0.46,0.645
379.0,-3.529,0.713,3.494,-2.344,0.224,0.479
383.0,-3.529,0.713,3.494,-2.344,0.224,0.479
386.0,-3.276,1.019,3.279,-1.993,0.0,0.369
390.0,-3.276,1.019,3.279,-1.993,0.0,0.369
394.0,-3.276,1.019,3.279,-1.993,0.0,0.369
398.0,-3.124,1.193,3.199,-1.656,-0.159,0.355
401.0,-3.124,1.193,3.199,-1.656,-0.159,0.355
405.0,-3.21,1.341,3.467,-1.656,-0.278,0.387
409.0,-3.21,1.341,3.467,-1.318,-0.278,0.387
413.0,-3.21,1.341,3.467,-1.318,-0.278,0.387
417.0,-3.479,1.545,3.873,-0.968,-0.402,0.412
420.0,-3.479,1.545,3.873,-0.968,-0.402,0.412
424.0,-3.479,1.545,4.234,-0.968,-0.402,0.412
428.0,-3.889,1.777,4.234,-0.612,-0.548,0.409
432.0,-3.889,1.777,4.234,-0.612,-0.548,0.409
436.0,-4.454,2.073,4.68,-0.273,-0.698,0.377
440.0,-4.454,2.073,4.68,-0.273,-0.698,0.377
443.0,-4.454,2.073,4.68,-0.273,-0.698,0.377
447.0,-5.289,2.488,5.308,0.034,-0.851,0.347
451.0,-5.289,2.488,5.308,0.034,-0.851,0.347
455.0,-6.59,3.051,6.136,0.034,-1.006,0.341
458.0,-6.59,3.051,6.136,0.303,-1.006,0.341
462.0,-6.59,3.051,6.136,0.303,-1.006,0.341
466.0,-8.422,3.718,7.349,0.533,-1.168,0.39
470.0,-8.422,3.718,7.349,0.533,-1.168,0.39
473.0,-8.422,3.718,7.349,0.533,-1.168,0.39
477.0,-10.73,4.152,8.916,0.729,-1.37,0.507
481.0,-10.73,4.152,8.916,0.729,-1.37,0.507
485.0,-13.458,4.393,10.624,0.896,-1.669,0.658
489.0,-13.458,4.393,10.624,0.896,-1.669,0.658
492.0,-13.458,4.393,10.624,0.896,-1.669,0.658
496.0,-15.955,4.463,11.769,1.041,-2.073,0.807
500.0,-15.955,4.463,11.769,1.041,-2.073,0.807
504.0,-17.63,4.634,12.682,1.171,-2.489,0.935
508.0,-17.63,4.634,12.682,1.171,-2.489,0.935
512.0,-17.63,4.634,12.682,1.171,-2.489,0.935
516.0,-18.124,4.701,14.404,1.279,-2.843,1.055
520.0,-18.124,4.701,14.404,1.279,-2.843,1.055
524.0,-18.104,4.594,16.792,1.279,-3.119,1.165
528.0,-18.104,4.594,16.792,1.341,-3.119,1.165
532.0,-18.104,4.594,16.792,1.341,-3.119,1.165
535.0,-18.813,4.083,19.056,1.329,-3.354,1.231
539.0,-18.813,4.083,19.056,1.329,-3.354,1.231
543.0,-19.589,4.049,19.6,1.329,-3.354,1.189
547.0,-19.589,4.049,19.6,1.201,-3.625,1.189
551.0,-19.589,4.049,19.6,1.201,-3.625,1.189
555.0,-19.6,4.232,19.6,0.947,-4.007,1.01
559.0,-19.6,4.232,19.6,0.947,-4.007,1.01
563.0,-19.6,3.983,19.6,0.947,-4.007,1.01
567.0,-19.6,3.983,19.6,0.6,-4.493,0.747
571.0,-19.6,3.983,19.6,0.6,-4.493,0.747
574.0,-19.6,3.022,19.6,0.264,-4.908,0.471
578.0,-19.6,3.022,19.6,0.264,-4.908,0.471
582.0,-19.6,1.426,19.6,0.264,-4.908,0.471
586.0,-19.574,1.426,19.6,0.074,-4.992,0.209
590.0,-19.574,1.426,19.6,0.074,-4.992,0.209
594.0,-18.928,-0.578,19.6,0.069,-4.992,-0.021
598.0,-18.928,-0.578,19.6,0.069,-4.992,-0.021
602.0,-17.862,-2.365,19.6,0.069,-4.992,-0.021
606.0,-17.862,-2.365,19.6,0.237,-4.992,-0.199
610.0,-17.862,-2.365,19.6,0.237,-4.992,-0.199
614.0,-16.732,-3.637,19.6,0.569,-4.992,-0.327
619.0,-16.732,-3.637,19.6,0.569,-4.992,-0.327
623.0,-15.492,-4.69,19.6,1.05,-4.992,-0.428
627.0,-15.492,-4.69,19.6,1.05,-4.992,-0.428
631.0,-15.492,-4.69,19.6,1.05,-4.992,-0.428
635.0,-14.255,-6.021,19.6,1.625,-4.992,-0.491
639.0,-14.255,-6.021,19.6,1.625,-4.992,-0.491
643.0,-13.442,-7.839,19.6,2.23,-4.992,-0.505
647.0,-13.442,-7.839,19.6,2.23,-4.992,-0.505
651.0,-13.442,-7.839,19.6,2.23,-4.992,-0.505
655.0,-12.429,-8.868,19.6,2.824,-4.992,-0.54
659.0,-12.429,-8.868,19.6,2.824,-4.992,-0.54
663.0,-10.391,-8.961,18.701,3.348,-4.992,-0.649
667.0,-10.391,-8.961,18.701,3.348,-4.992,-0.649
672.0,-8.182,-8.926,16.729,3.348,-4.992,-0.787
676.0,-8.182,-8.926,16.729,3.754,-4.992,-0.787
680.0,-8.182,-8.926,16.729,3.754,-4.992,-0.787
684.0,-6.72,-8.856,15.59,4.069,-4.992,-0.918
688.0,-6.72,-8.856,15.59,4.069,-4.992,-0.918
692.0,-6.038,-8.296,14.746,4.069,-4.992,-1.003
696.0,-6.038,-8.296,14.746,4.353,-4.992,-1.003
699.0,-6.038,-8.296,14.746,4.353,-4.992,-1.003
703.0,-5.317,-8.401,13.76,4.592,-4.992,-0.96
707.0,-5.317,-8.401,13.76,4.592,-4.992,-0.96
711.0,-4.288,-8.873,13.137,4.752,-4.992,-0.833
715.0,-4.288,-8.873,13.137,4.752,-4.992,-0.833
719.0,-4.288,-8.873,13.137,4.752,-4.992,-0.833
723.0,-3.023,-9.258,12.522,4.89,-4.992,-0.724
727.0,-3.023,-9.258,12.522,4.89,-4.992,-0.724
731.0,-1.163,-9.158,11.466,4.987,-4.992,-0.691
735.0,-1.163,-9.158,11.466,4.987,-4.992,-0.691
739.0,-1.163,-9.158,11.466,4.987,-4.992,-0.691
743.0,0.229,-8.704,10.473,4.995,-4.992,-0.702
747.0,0.229,-8.704,10.473,4.995,-4.992,-0.702
751.0,1.391,-8.158,9.383,4.995,-4.992,-0.708
755.0,1.391,-8.158,9.383,4.995,-4.992,-0.708
759.0,1.391,-8.158,9.383,4.995,-4.992,-0.708
763.0,2.156,-7.68,8.055,4.995,-4.985,-0.714
767.0,2.156,-7.68,8.055,4.995,-4.985,-0.714
770.0,2.636,-7.07,6.858,4.995,-4.985,-0.752
774.0,2.636,-7.07,6.858,4.995,-4.799,-0.752
778.0,2.636,-7.07,6.858,4.995,-4.799,-0.752
782.0,2.875,-6.232,5.8,4.995,-4.444,-0.791
786.0,2.875,-6.232,5.8,4.995,-4.444,-0.791
789.0,2.875,-6.232,4.624,4.995,-4.444,-0.791
793.0,3.058,-4.88,4.624,4.995,-4.127,-0.773
797.0,3.058,-4.88,4.624,4.995,-4.127,-0.773
801.0,3.394,-2.752,2.856,4.995,-3.822,-0.652
805.0,3.394,-2.752,2.856,4.995,-3.822,-0.652
809.0,3.394,-2.752,2.856,4.995,-3.822,-0.652
812.0,4.457,-0.416,0.384,4.995,-3.46,-0.419
816.0,4.457,-0.416,0.384,4.995,-3.46,-0.419
820.0,6.093,2.123,-2.609,4.995,-2.952,-0.145
824.0,6.093,2.123,-2.609,4.995,-2.952,-0.145
828.0,6.093,2.123,-2.609,4.995,-2.952,-0.145
831.0,7.811,5.126,-5.238,4.995,-2.287,0.16
835.0,7.811,5.126,-5.238,4.995,-2.287,0.16
839.0,7.811,7.297,-7.221,4.995,-2.287,0.16
843.0,8.822,7.297,-7.221,4.995,-1.529,0.569
846.0,8.822,7.297,-7.221,4.995,-1.529,0.569
850.0,9.69,8.968,-8.057,4.995,-0.828,1.077
854.0,9.69,8.968,-8.057,4.995,-0.828,1.077
858.0,9.69,8.968,-8.057,4.995,-0.828,1.077
861.0,9.391,9.956,-8.384,4.957,-0.155,1.684
865.0,9.391,9.956,-8.384,4.957,-0.155,1.684
869.0,8.278,9.82,-8.099,4.957,-0.155,1.684
872.0,8.278,9.82,-8.099,4.664,0.457,2.36
876.0,8.278,9.82,-8.099,4.664,0.457,2.36
880.0,6.538,9.018,-7.667,4.23,1.034,2.972
883.0,6.538,9.018,-7.667,4.23,1.034,2.972
887.0,6.538,9.018,-7.667,4.23,1.034,2.972
891.0,4.54,7.953,-7.394,3.758,1.568,3.466
894.0,4.54,7.953,-7.394,3.758,1.568,3.466
898.0,4.54,7.953,-7.125,3.758,1.568,3.466
902.0,2.798,6.63,-7.125,3.227,2.052,3.848
905.0,2.798,6.63,-7.125,3.227,2.052,3.848
909.0,1.147,4.915,-6.537,2.611,2.502,4.092
913.0,1.147,4.915,-6.537,2.611,2.502,4.092
916.0,1.147,4.915,-6.537,2.611,2.502,4.092
920.0,-1.064,3.034,-5.546,1.907,2.881,4.152
924.0,-1.064,3.034,-5.546,1.907,2.881,4.152
927.0,-1.064,3.034,-5.546,1.907,2.881,4.152
931.0,-3.791,1.212,-4.265,1.148,3.116,4.037
935.0,-3.791,1.212,-4.265,1.148,3.116,4.037
939.0,-7.314,-0.945,-1.908,0.412,3.208,3.789
942.0,-7.314,-0.945,-1.908,0.412,3.208,3.789
946.0,-7.314,-0.945,-1.908,0.412,3.208,3.789
950.0,-12.191,-3.16,0.562,-0.221,3.125,3.432
954.0,-12.191,-3.16,0.562,-0.221,3.125,3.432
958.0,-17.916,-5.369,2.374,-0.221,3.125,2.968
962.0,-17.916,-5.369,2.374,-0.625,2.831,2.968
966.0,-17.916,-5.369,2.374,-0.625,2.831,2.968
970.0,-19.6,-7.674,3.744,-0.71,2.252,2.432
973.0,-19.6,-7.674,3.744,-0.71,2.252,2.432
977.0,-19.6,-10.242,3.903,-0.71,2.252,2.432
981.0,-19.6,-10.242,3.903,-0.518,1.403,1.894
985.0,-19.6,-10.242,3.903,-0.518,1.403,1.894
989.0,-18.882,-12.444,3.159,-0.138,0.447,1.261
993.0,-18.882,-12.444,3.159,-0.138,0.447,1.261
997.0,-16.47,-12.995,2.399,-0.138,0.447,0.47
1001.0,-16.47,-12.995,2.399,0.227,-0.436,0.47
1005.0,-16.47,-12.995,2.399,0.227,-0.436,0.47
1009.0,-14.443,-11.935,2.082,0.374,-1.119,-0.333
1014.0,-14.443,-11.935,2.082,0.374,-1.119,-0.333
1018.0,-12.598,-9.918,2.096,0.274,-1.575,-1.003
1022.0,-12.598,-9.918,2.096,0.274,-1.575,-1.003
1026.0,-12.598,-9.918,2.096,0.274,-1.575,-1.003
1030.0,-10.507,-7.91,2.253,0.025,-1.893,-1.504
1034.0,-10.507,-7.91,2.253,0.025,-1.893,-1.504
1038.0,-8.143,-6.407,2.14,-0.301,-2.164,-1.917
1042.0,-8.143,-6.407,2.14,-0.301,-2.164,-1.917
1046.0,-5.961,-5.261,1.529,-0.301,-2.164,-1.917
1050.0,-5.961,-5.261,1.529,-0.669,-2.417,-2.333
1055.0,-5.961,-5.261,1.529,-0.669,-2.417,-2.333
1059.0,-4.457,-4.454,0.887,-1.056,-2.633,-2.766
1063.0,-4.457,-4.454,0.887,-1.056,-2.633,-2.766
1067.0,-3.577,-3.86,0.306,-1.425,-2.789,-3.213
1071.0,-3.577,-3.86,0.306,-1.425,-2.789,-3.213
1075.0,-3.577,-3.86,0.306,-1.425,-2.789,-3.213
1079.0,-3.028,-3.37,-0.029,-1.702,-2.858,-3.684
1083.0,-3.028,-3.37,-0.029,-1.702,-2.858,-3.684
1087.0,-2.371,-2.892,0.056,-1.808,-2.847,-4.154
1091.0,-2.371,-2.892,0.056,-1.808,-2.847,-4.154
1095.0,-2.371,-2.892,0.542,-1.808,-2.847,-4.154
1100.0,-1.272,-2.319,0.542,-1.763,-2.775,-4.532
1104.0,-1.272,-2.319,0.542,-1.763,-2.775,-4.532
1108.0,0.678,-1.208,1.2,-1.652,-2.637,-4.744
1112.0,0.678,-1.208,1.2,-1.652,-2.637,-4.744
1116.0,2.764,0.285,2.245,-1.652,-2.637,-4.836
1120.0,2.764,0.285,2.245,-1.459,-2.432,-4.836
1124.0,2.764,0.285,2.245,-1.459,-2.432,-4.836
1127.0,4.653,2.02,3.042,-1.148,-2.241,-4.909
1131.0,4.653,2.02,3.042,-1.148,-2.241,-4.909
1135.0,6.403,4.214,3.687,-1.148,-2.241,-4.909
1139.0,6.403,4.214,3.687,-0.742,-2.091,-4.983
1143.0,6.403,4.214,3.687,-0.742,-2.091,-4.983
1147.0,7.712,6.723,4.379,-0.284,-1.944,-4.995
1151.0,7.712,6.723,4.379,-0.284,-1.944,-4.995
1155.0,7.712,9.438,5.491,-0.284,-1.944,-4.995
1159.0,8.37,9.438,5.491,0.204,-1.808,-4.995
1163.0,8.37,9.438,5.491,0.204,-1.808,-4.995
1166.0,8.438,12.631,6.386,0.741,-1.763,-4.995
1170.0,8.438,12.631,6.386,0.741,-1.763,-4.995
1174.0,8.438,12.631,6.386,0.741,-1.763,-4.995
1178.0,8.456,16.729,6.58,1.301,-1.784,-4.995
1182.0,8.456,16.729,6.58,1.301,-1.784,-4.995
1186.0,9.332,19.521,6.211,1.888,-1.846,-4.985
1190.0,9.332,19.521,6.211,1.888,-1.846,-4.985
1194.0,9.332,19.521,6.211,1.888,-1.846,-4.985
1198.0,11.315,19.596,4.567,2.418,-1.929,-4.791
1202.0,11.315,19.596,4.567,2.418,-1.929,-4.791
1206.0,13.87,19.596,0.795,2.746,-1.936,-4.325
1210.0,13.87,19.596,0.795,2.746,-1.936,-4.325
1214.0,13.87,19.596,0.795,2.746,-1.936,-4.325
1218.0,15.791,19.596,-3.968,2.758,-1.729,-3.651
1222.0,15.791,19.596,-3.968,2.758,-1.729,-3.651
1226.0,15.73,19.596,-7.324,2.42,-1.334,-2.827
1230.0,15.73,19.596,-7.324,2.42,-1.334,-2.827
1234.0,14.008,19.596,-9.005,2.42,-1.334,-2.827
1238.0,14.008,19.596,-9.005,1.974,-0.863,-1.83
1242.0,14.008,19.596,-9.005,1.974,-0.863,-1.83
1246.0,12.986,19.596,-9.253,1.7,-0.392,-0.719
1250.0,12.986,19.596,-9.253,1.7,-0.392,-0.719
1254.0,12.98,19.596,-8.737,1.751,0.126,0.441
1258.0,12.98,19.596,-8.737,1.751,0.126,0.441
1262.0,12.98,19.596,-8.737,1.751,0.126,0.441
1266.0,12.941,19.596,-9.261,2.061,0.745,1.622
1270.0,12.941,19.596,-9.261,2.061,0.745,1.622
1274.0,12.867,19.596,-11.019,2.061,1.459,2.757
1278.0,12.867,19.596,-11.019,2.379,1.459,2.757
1282.0,12.867,19.596,-11.019,2.379,1.459,2.757
1286.0,12.623,19.596,-12.238,2.526,2.274,3.72
1290.0,12.623,19.596,-12.238,2.526,2.274,3.72
1294.0,12.297,19.596,-13.029,2.417,3.148,4.492
1298.0,12.297,19.596,-13.029,2.417,3.148,4.492
1302.0,12.297,19.596,-13.029,2.417,3.148,4.492
1306.0,11.746,19.596,-12.899,2.063,4.036,4.959
1310.0,11.746,19.596,-12.899,2.063,4.036,4.959
1314.0,10.615,19.594,-11.545,1.624,4.802,5.013
1318.0,10.615,19.594,-11.545,1.624,4.802,5.013
1322.0,10.615,19.594,-11.545,1.624,4.802,5.013
1326.0,8.226,18.061,-9.321,1.161,5.015,5.013
1330.0,8.226,18.061,-9.321,1.161,5.015,5.013
1333.0,4.753,15.014,-7.166,0.685,5.015,5.013
1337.0,4.753,15.014,-7.166,0.685,5.015,5.013
1341.0,4.753,15.014,-7.166,0.685,5.015,5.013
1345.0,0.7,12.042,-5.312,0.217,5.015,5.013
1349.0,0.7,12.042,-5.312,0.217,5.015,5.013
1352.0,-3.697,9.08,-3.117,0.217,5.015,5.013
1356.0,-3.697,9.08,-3.117,-0.256,5.015,5.013
1360.0,-3.697,9.08,-3.117,-0.256,5.015,5.013
1364.0,-8.319,6.111,-0.449,-0.763,5.015,5.013
1368.0,-8.319,6.111,-0.449,-0.763,5.015,5.013
1372.0,-8.319,6.111,0.595,-0.763,5.015,5.013
1376.0,-12.461,4.469,0.595,-1.337,5.015,5.013
1380.0,-12.461,4.469,0.595,-1.337,5.015,5.013
1384.0,-18.298,3.424,1.708,-1.969,5.015,5.013
1387.0,-18.298,3.424,1.708,-1.969,5.015,5.013
1391.0,-18.298,3.424,1.708,-1.969,5.015,5.013
1395.0,-19.6,0.412,2.742,-2.634,5.015,5.012
1399.0,-19.6,0.412,2.742,-2.634,5.015,5.012
1403.0,-19.6,-5.332,3.805,-3.09,4.647,4.736
1407.0,-19.6,-5.332,3.805,-3.09,4.647,4.736
1411.0,-19.6,-5.332,3.805,-3.09,4.647,4.736
1415.0,-19.572,-9.141,4.87,-3.028,3.241,3.72
1419.0,-19.572,-9.141,4.87,-3.028,3.241,3.72
1423.0,-14.338,-9.779,3.873,-2.544,1.759,2.555
1427.0,-14.338,-9.779,3.873,-2.544,1.759,2.555
1431.0,-14.338,-9.779,2.91,-2.544,1.759,2.555
1435.0,-6.492,-8.977,2.91,-1.893,0.624,1.308
1439.0,-6.492,-8.977,2.91,-1.893,0.624,1.308
1443.0,-1.689,-7.284,3.291,-1.301,-0.176,-0.081
1447.0,-1.689,-7.284,3.291,-1.301,-0.176,-0.081
1451.0,-1.689,-4.728,4.297,-1.301,-0.176,-0.081
1455.0,1.056,-4.728,4.297,-0.843,-0.782,-1.37
1459.0,1.056,-4.728,4.297,-0.843,-0.782,-1.37
1463.0,3.369,-2.09,5.25,-0.481,-1.234,-2.311
1467.0,3.369,-2.09,5.25,-0.481,-1.234,-2.311
1471.0,6.255,-0.325,5.975,-0.481,-1.234,-2.888
1475.0,6.255,-0.325,5.975,-0.16,-1.544,-2.888
1479.0,6.255,-0.325,5.975,-0.16,-1.544,-2.888
1483.0,7.991,1.102,5.034,0.157,-1.729,-3.172
1487.0,7.991,1.102,5.034,0.157,-1.729,-3.172
1491.0,8.153,2.311,2.364,0.157,-1.729,-3.172
1494.0,8.153,2.311,2.364,0.457,-1.706,-3.198
1498.0,8.153,2.311,2.364,0.457,-1.706,-3.198
1502.0,8.755,3.15,0.793,0.721,-1.39,-3.049
1506.0,8.755,3.15,0.793,0.721,-1.39,-3.049
1510.0,8.755,3.15,0.793,0.721,-1.39,-3.049
1514.0,9.872,3.749,0.644,0.964,-0.94,-2.807
1517.0,9.872,3.749,0.644,0.964,-0.94,-2.807
1521.0,10.283,4.666,0.747,1.214,-0.513,-2.527
1525.0,10.283,4.666,0.747,1.214,-0.513,-2.527
1529.0,10.283,4.666,0.747,1.214,-0.513,-2.527
1533.0,9.84,5.88,0.638,1.481,-0.174,-2.197
1537.0,9.84,5.88,0.638,1.481,-0.174,-2.197
1541.0,9.278,7.17,0.524,1.753,0.065,-1.802
1544.0,9.278,7.17,0.524,1.753,0.065,-1.802
1548.0,9.278,7.17,0.524,1.753,0.065,-1.802
1552.0,8.328,7.847,0.587,1.988,0.198,-1.374
1555.0,8.328,7.847,0.587,1.988,0.198,-1.374
1559.0,8.328,7.847,0.587,1.988,0.198,-1.374
1563.0,6.973,7.965,0.404,2.129,0.252,-1.008
1567.0,6.973,7.965,0.404,2.129,0.252,-1.008
1570.0,5.436,8.006,0.249,2.143,0.275,-0.775
1574.0,5.436,8.006,0.249,2.143,0.275,-0.775
1578.0,5.436,8.006,0.249,2.143,0.275,-0.775
1582.0,3.935,8.371,0.081,2.027,0.276,-0.66
1585.0,3.935,8.371,0.081,2.027,0.276,-0.66
1589.0,3.935,8.371,0.12,2.027,0.276,-0.66
1593.0,2.574,8.651,0.12,1.79,0.255,-0.571
1597.0,2.574,8.651,0.12,1.79,0.255,-0.571
1600.0,1.772,8.531,0.234,1.47,0.195,-0.48
1604.0,1.772,8.531,0.234,1.47,0.195,-0.48
1608.0,1.772,8.531,0.234,1.47,0.195,-0.48
1611.0,1.323,8.189,0.351,1.099,0.107,-0.421
1615.0,1.323,8.189,0.351,1.099,0.107,-0.421
1619.0,1.104,7.731,0.331,1.099,0.107,-0.421
1623.0,1.104,7.731,0.331,0.697,0.004,-0.398
1626.0,1.104,7.731,0.331,0.697,0.004,-0.398
1630.0,0.992,7.175,0.246,0.293,-0.092,-0.408
1634.0,0.992,7.175,0.246,0.293,-0.092,-0.408
1638.0,0.992,7.175,0.246,0.293,-0.092,-0.408
1642.0,0.998,6.717,-0.18,-0.082,-0.177,-0.448
1646.0,0.998,6.717,-0.18,-0.082,-0.177,-0.448
1650.0,1.312,6.485,-0.775,-0.415,-0.224,-0.495
1654.0,1.312,6.485,-0.775,-0.415,-0.224,-0.495
1658.0,1.312,6.485,-0.775,-0.415,-0.224,-0.495
1662.0,1.889,6.177,-1.05,-0.704,-0.222,-0.524
1666.0,1.889,6.177,-1.05,-0.704,-0.222,-0.524
1670.0,2.55,5.797,-1.08,-0.942,-0.184,-0.545
1674.0,2.55,5.797,-1.08,-0.942,-0.184,-0.545
1678.0,2.55,5.797,-1.08,-0.942,-0.184,-0.545
1682.0,2.968,5.503,-0.786,-1.11,-0.126,-0.573
1686.0,2.968,5.503,-0.786,-1.11,-0.126,-0.573
1690.0,3.023,5.335,-0.397,-1.195,-0.073,-0.601
1693.0,3.023,5.335,-0.397,-1.195,-0.073,-0.601
1697.0,3.023,5.335,-0.196,-1.195,-0.073,-0.601
1701.0,2.902,5.293,-0.196,-1.201,-0.025,-0.602
1705.0,2.902,5.293,-0.196,-1.201,-0.025,-0.602
1709.0,3.006,5.363,-0.074,-1.124,0.03,-0.565
1713.0,3.006,5.363,-0.074,-1.124,0.03,-0.565
1717.0,3.006,5.363,0.005,-1.124,0.03,-0.565
1721.0,3.522,5.459,0.005,-0.977,0.088,-0.495
1725.0,3.522,5.459,0.005,-0.977,0.088,-0.495
1729.0,4.39,5.655,0.0,-0.78,0.145,-0.411
1733.0,4.39,5.655,0.0,-0.78,0.145,-0.411
1736.0,4.39,5.655,0.0,-0.78,0.145,-0.411
1740.0,5.264,5.728,0.12,-0.557,0.216,-0.329
1744.0,5.264,5.728,0.12,-0.557,0.216,-0.329
1748.0,5.725,5.748,0.176,-0.334,0.291,-0.286
1752.0,5.725,5.748,0.176,-0.334,0.291,-0.286
1755.0,5.725,5.748,0.176,-0.334,0.291,-0.286
1759.0,5.552,5.99,0.141,-0.116,0.345,-0.314
1763.0,5.552,5.99,0.141,-0.116,0.345,-0.314
1767.0,5.129,6.435,0.029,-0.116,0.345,-0.314
1771.0,5.129,6.435,0.029,0.087,0.351,-0.391
1774.0,5.129,6.435,0.029,0.087,0.351,-0.391
1778.0,4.8,7.046,-0.151,0.254,0.318,-0.476
1782.0,4.8,7.046,-0.151,0.254,0.318,-0.476
1786.0,4.8,7.046,-0.151,0.254,0.318,-0.476
1790.0,4.871,7.654,-0.455,0.374,0.276,-0.535
1793.0,4.871,7.654,-0.455,0.374,0.276,-0.535
1797.0,5.48,8.232,-0.622,0.456,0.266,-0.571
1801.0,5.48,8.232,-0.622,0.456,0.266,-0.571
1805.0,5.48,8.232,-0.622,0.456,0.266,-0.571
1809.0,6.328,8.591,-0.339,0.525,0.291,-0.593
1813.0,6.328,8.591,-0.339,0.525,0.291,-0.593
1816.0,6.926,8.794,0.001,0.525,0.291,-0.593
1820.0,6.926,8.794,0.001,0.611,0.322,-0.645
1824.0,6.926,8.794,0.001,0.611,0.322,-0.645
1828.0,6.861,9.191,0.36,0.727,0.339,-0.76
1831.0,6.861,9.191,0.36,0.727,0.339,-0.76
1835.0,6.861,9.191,0.36,0.727,0.339,-0.76
1839.0,6.44,9.79,0.814,0.864,0.319,-0.898
1843.0,6.44,9.79,0.814,0.864,0.319,-0.898
1846.0,5.993,10.493,1.251,0.864,0.319,-1.012
1850.0,5.993,10.493,1.251,0.992,0.278,-1.012
1854.0,5.993,10.493,1.251,0.992,0.278,-1.012
1858.0,5.724,11.212,1.678,1.097,0.246,-1.086
1862.0,5.724,11.212,1.678,1.097,0.246,-1.086
1865.0,5.724,11.212,2.202,1.097,0.246,-1.086
1869.0,5.535,11.922,2.202,1.201,0.229,-1.114
1873.0,5.535,11.922,2.202,1.201,0.229,-1.114
1877.0,5.438,12.516,2.603,1.327,0.196,-1.09
1881.0,5.438,12.516,2.603,1.327,0.196,-1.09
1884.0,5.438,12.516,2.603,1.327,0.196,-1.09
1888.0,5.398,12.653,2.641,1.466,0.137,-0.998
1892.0,5.398,12.653,2.641,1.466,0.137,-0.998
1896.0,5.13,12.374,2.473,1.599,0.061,-0.853
1900.0,5.13,12.374,2.473,1.599,0.061,-0.853
1904.0,5.13,12.374,2.473,1.599,0.061,-0.853
1907.0,4.718,11.952,2.138,1.716,-0.029,-0.68
1911.0,4.718,11.952,2.138,1.716,-0.029,-0.68
1915.0,4.348,11.733,2.127,1.716,-0.029,-0.68
1919.0,4.348,11.733,2.127,1.79,-0.119,-0.488
1923.0,4.348,11.733,2.127,1.79,-0.119,-0.488
1927.0,3.883,11.727,2.283,1.778,-0.205,-0.288
1931.0,3.883,11.727,2.283,1.778,-0.205,-0.288
1935.0,3.596,11.671,2.386,1.778,-0.205,-0.288
1939.0,3.596,11.671,2.386,1.657,-0.297,-0.102
1943.0,3.596,11.671,2.386,1.657,-0.297,-0.102
1946.0,3.563,11.8,2.466,1.433,-0.38,0.006
1950.0,3.563,11.8,2.466,1.433,-0.38,0.006
1954.0,3.563,11.8,2.466,1.433,-0.38,0.006
1958.0,3.396,12.073,2.541,1.106,-0.397,0.072
1962.0,3.396,12.073,2.541,1.106,-0.397,0.072
1966.0,3.041,11.663,2.533,0.69,-0.353,0.184
1969.0,3.041,11.663,2.533,0.69,-0.353,0.184
1973.0,3.041,11.663,2.533,0.69,-0.353,0.184
1977.0,2.956,10.578,2.125,0.275,-0.358,0.267
1981.0,2.956,10.578,2.125,0.275,-0.358,0.267
1985.0,3.733,9.41,1.378,0.275,-0.461,0.235
1988.0,3.733,9.41,1.378,-0.096,-0.461,0.235
1992.0,3.733,9.41,1.378,-0.096,-0.461,0.235
1996.0,4.944,8.669,0.908,-0.459,-0.589,0.07
2000.0,4.944,8.669,0.908,-0.459,-0.589,0.07
2004.0,4.944,8.669,0.792,-0.459,-0.589,0.07
2007.0,5.919,8.172,0.792,-0.831,-0.704,-0.165
2011.0,5.919,8.172,0.792,-0.831,-0.704,-0.165
2015.0,6.537,7.705,0.97,-1.185,-0.77,-0.391
2019.0,6.537,7.705,0.97,-1.185,-0.77,-0.391
2023.0,6.537,7.705,0.97,-1.185,-0.77,-0.391
2027.0,6.599,7.223,1.297,-1.455,-0.745,-0.598
2031.0,6.599,7.223,1.297,-1.455,-0.745,-0.598
2035.0,6.579,6.882,1.509,-1.584,-0.639,-0.779
2039.0,6.579,6.882,1.509,-1.584,-0.639,-0.779
2043.0,6.579,6.882,1.509,-1.584,-0.639,-0.779
2047.0,6.654,6.745,1.823,-1.554,-0.476,-0.949
2050.0,6.654,6.745,1.823,-1.554,-0.476,-0.949
2054.0,6.687,6.791,2.364,-1.385,-0.294,-1.105
2058.0,6.687,6.791,2.364,-1.385,-0.294,-1.105
2062.0,6.687,6.791,2.364,-1.385,-0.294,-1.105
2066.0,6.747,7.05,2.877,-1.105,-0.136,-1.246
2070.0,6.747,7.05,2.877,-1.105,-0.136,-1.246
2074.0,6.611,7.46,3.409,-0.748,-0.008,-1.378
2078.0,6.611,7.46,3.409,-0.748,-0.008,-1.378
2082.0,6.611,7.46,3.409,-0.748,-0.008,-1.378
2086.0,6.192,7.936,3.894,-0.345,0.072,-1.475
2089.0,6.192,7.936,3.894,-0.345,0.072,-1.475
2093.0,5.678,8.246,4.301,-0.345,0.092,-1.523
2097.0,5.678,8.246,4.301,0.068,0.092,-1.523
2101.0,5.678,8.246,4.301,0.068,0.092,-1.523
2105.0,5.106,8.446,4.517,0.448,0.066,-1.526
2108.0,5.106,8.446,4.517,0.448,0.066,-1.526
2112.0,5.106,8.446,4.517,0.448,0.066,-1.526
2116.0,4.821,8.71,4.137,0.765,0.007,-1.492
2119.0,4.821,8.71,4.137,0.765,0.007,-1.492
2123.0,4.805,9.028,3.334,1.013,-0.039,-1.437
2127.0,4.805,9.028,3.334,1.013,-0.039,-1.437
2131.0,4.805,9.028,3.334,1.013,-0.039,-1.437
2135.0,4.965,9.303,2.425,1.165,-0.07,-1.363
2138.0,4.965,9.303,2.425,1.165,-0.07,-1.363
2142.0,5.272,9.751,1.516,1.165,-0.07,-1.269
2146.0,5.272,9.751,1.516,1.199,-0.081,-1.269
2150.0,5.272,9.751,1.516,1.199,-0.081,-1.269
2154.0,5.533,10.351,0.767,1.104,-0.077,-1.152
2158.0,5.533,10.351,0.767,1.104,-0.077,-1.152
2162.0,5.533,10.351,0.391,1.104,-0.077,-1.152
2165.0,5.757,10.903,0.391,0.866,-0.065,-1.012
2169.0,5.757,10.903,0.391,0.866,-0.065,-1.012
2173.0,5.597,11.298,0.474,0.515,-0.056,-0.88
2177.0,5.597,11.298,0.474,0.515,-0.056,-0.88
2181.0,5.597,11.298,0.474,0.515,-0.056,-0.88
2185.0,5.071,11.051,0.623,0.101,-0.068,-0.75
2189.0,5.071,11.051,0.623,0.101,-0.068,-0.75
2193.0,4.423,10.168,0.797,-0.315,-0.09,-0.631
2197.0,4.423,10.168,0.797,-0.315,-0.09,-0.631
2201.0,4.423,10.168,0.797,-0.315,-0.09,-0.631
2205.0,3.785,9.001,0.974,-0.685,-0.111,-0.554
2209.0,3.785,9.001,0.974,-0.685,-0.111,-0.554
2213.0,3.229,7.832,1.1,-0.998,-0.138,-0.519
2216.0,3.229,7.832,1.1,-0.998,-0.138,-0.519
2220.0,3.229,7.832,1.1,-0.998,-0.138,-0.519
2224.0,2.732,6.768,1.1,-1.259,-0.171,-0.512
2228.0,2.732,6.768,1.1,-1.259,-0.171,-0.512
2232.0,2.313,5.791,0.957,-1.486,-0.207,-0.519
2236.0,2.313,5.791,0.957,-1.486,-0.207,-0.519
2240.0,2.313,5.791,0.957,-1.486,-0.207,-0.519
2244.0,1.919,4.862,0.693,-1.693,-0.238,-0.54
2248.0,1.919,4.862,0.693,-1.693,-0.238,-0.54
2252.0,1.487,3.967,0.436,-1.887,-0.261,-0.577
2256.0,1.487,3.967,0.436,-1.887,-0.261,-0.577
2259.0,1.487,3.967,0.436,-1.887,-0.261,-0.577
2263.0,0.939,3.097,0.421,-2.081,-0.287,-0.628
2267.0,0.939,3.097,0.421,-2.081,-0.287,-0.628
2271.0,0.328,2.352,0.687,-2.267,-0.34,-0.689
2275.0,0.328,2.352,0.687,-2.267,-0.34,-0.689
2279.0,0.328,2.352,0.687,-2.267,-0.34,-0.689
2283.0,-0.113,1.58,1.218,-2.412,-0.411,-0.785
2287.0,-0.113,1.58,1.218,-2.412,-0.411,-0.785
2291.0,-0.745,0.784,2.129,-2.5,-0.482,-0.945
2295.0,-0.745,0.784,2.129,-2.5,-0.482,-0.945
2299.0,-0.745,0.784,2.129,-2.5,-0.482,-0.945
2303.0,-1.523,0.118,2.79,-2.54,-0.576,-1.136
2307.0,-1.523,0.118,2.79,-2.54,-0.576,-1.136
2311.0,-2.424,-0.395,3.148,-2.541,-0.694,-1.333
2315.0,-2.424,-0.395,3.148,-2.541,-0.694,-1.333
2319.0,-2.424,-0.395,3.148,-2.541,-0.694,-1.333
2323.0,-3.421,-0.583,3.245,-2.508,-0.82,-1.517
2327.0,-3.421,-0.583,3.245,-2.508,-0.82,-1.517
2331.0,-3.963,-0.433,3.018,-2.442,-0.926,-1.667
2335.0,-3.963,-0.433,3.018,-2.442,-0.926,-1.667
2339.0,-3.963,-0.113,2.841,-2.442,-0.926,-1.667
2343.0,-3.819,-0.113,2.841,-2.34,-0.976,-1.782
2348.0,-3.819,-0.113,2.841,-2.34,-0.976,-1.782
2352.0,-3.362,0.422,2.69,-2.205,-0.97,-1.88
2356.0,-3.362,0.422,2.69,-2.205,-0.97,-1.88
2360.0,-2.886,1.021,2.586,-2.205,-0.927,-1.96
2364.0,-2.886,1.021,2.586,-2.06,-0.927,-1.96
2368.0,-2.886,1.021,2.586,-2.06,-0.927,-1.96
2372.0,-2.527,1.526,2.532,-1.927,-0.864,-2.022
2376.0,-2.527,1.526,2.532,-1.927,-0.864,-2.022
2380.0,-2.24,2.045,2.441,-1.814,-0.782,-2.077
2384.0,-2.24,2.045,2.441,-1.814,-0.782,-2.077
2388.0,-2.24,2.045,2.441,-1.814,-0.782,-2.077
2392.0,-2.067,2.601,2.493,-1.717,-0.67,-2.129
2396.0,-2.067,2.601,2.493,-1.717,-0.67,-2.129
2400.0,-2.133,3.143,2.74,-1.635,-0.543,-2.17
2404.0,-2.133,3.143,2.74,-1.635,-0.543,-2.17
2408.0,-2.133,3.143,2.74,-1.635,-0.543,-2.17
2412.0,-2.343,3.595,3.142,-1.565,-0.423,-2.187
2416.0,-2.343,3.595,3.142,-1.565,-0.423,-2.187
2420.0,-2.558,3.844,3.418,-1.525,-0.328,-2.17
2424.0,-2.558,3.844,3.418,-1.525,-0.328,-2.17
2428.0,-2.558,3.844,3.418,-1.525,-0.328,-2.17
2432.0,-2.558,3.923,3.421,-1.545,-0.245,-2.117
2436.0,-2.558,3.923,3.421,-1.545,-0.245,-2.117
2439.0,-2.197,3.707,3.059,-1.65,-0.143,-2.041
2443.0,-2.197,3.707,3.059,-1.65,-0.143,-2.041
2447.0,-2.197,3.707,3.059,-1.65,-0.143,-2.041
2451.0,-1.499,3.334,2.687,-1.851,0.036,-2.008
2455.0,-1.499,3.334,2.687,-1.851,0.036,-2.008
2459.0,-0.91,3.229,2.664,-2.129,0.31,-2.06
2463.0,-0.91,3.229,2.664,-2.129,0.31,-2.06
2467.0,-0.91,3.229,2.664,-2.129,0.31,-2.06
2471.0,-0.702,3.537,3.426,-2.431,0.642,-2.199
2475.0,-0.702,3.537,3.426,-2.431,0.642,-2.199
2479.0,-0.995,3.778,3.909,-2.721,0.96,-2.371
2483.0,-0.995,3.778,3.909,-2.721,0.96,-2.371
2487.0,-0.995,3.778,3.909,-2.721,0.96,-2.371
2491.0,-1.604,4.17,4.254,-3.02,1.25,-2.511
2494.0,-1.604,4.17,4.254,-3.02,1.25,-2.511
2498.0,-2.293,4.297,4.29,-3.343,1.513,-2.558
2502.0,-2.293,4.297,4.29,-3.343,1.513,-2.558
2506.0,-2.293,4.297,4.29,-3.343,1.513,-2.558
2510.0,-2.551,4.051,4.028,-3.712,1.763,-2.504
2514.0,-2.551,4.051,4.028,-3.712,1.763,-2.504
2518.0,-2.495,3.604,3.852,-4.141,2.028,-2.395
2522.0,-2.495,3.604,3.852,-4.141,2.028,-2.395
2526.0,-2.495,3.604,3.852,-4.141,2.028,-2.395
2530.0,-2.28,2.894,4.024,-4.611,2.334,-2.287
2534.0,-2.28,2.894,4.024,-4.611,2.334,-2.287
2537.0,-2.532,2.046,4.873,-4.611,2.677,-2.234
2541.0,-2.532,2.046,4.873,-4.964,2.677,-2.234
2545.0,-2.532,2.046,4.873,-4.964,2.677,-2.234
2549.0,-3.282,1.151,5.904,-5.013,2.987,-2.229
2553.0,-3.282,1.151,5.904,-5.013,2.987,-2.229
2557.0,-4.212,0.327,6.492,-5.013,2.987,-2.244
2561.0,-4.212,0.327,6.492,-5.013,3.26,-2.244
2565.0,-4.212,0.327,6.492,-5.013,3.26,-2.244
2569.0,-5.247,-0.282,6.514,-5.013,3.537,-2.231
2573.0,-5.247,-0.282,6.514,-5.013,3.537,-2.231
2577.0,-6.15,-0.603,6.193,-5.013,3.537,-2.134
2581.0,-6.15,-0.603,6.193,-5.013,3.826,-2.134
2585.0,-6.15,-0.603,6.193,-5.013,3.826,-2.134
2589.0,-6.778,-0.819,5.792,-5.013,4.119,-1.93
2593.0,-6.778,-0.819,5.792,-5.013,4.119,-1.93
2597.0,-7.34,-1.049,5.927,-5.013,4.393,-1.624
2601.0,-7.34,-1.049,5.927,-5.013,4.393,-1.624
2605.0,-7.34,-1.049,5.927,-5.013,4.393,-1.624
2609.0,-7.878,-1.575,6.165,-5.013,4.626,-1.268
2613.0,-7.878,-1.575,6.165,-5.013,4.626,-1.268
2617.0,-8.613,-2.353,6.222,-5.013,4.835,-0.945
2621.0,-8.613,-2.353,6.222,-5.013,4.835,-0.945
2625.0,-8.613,-2.353,6.222,-5.013,4.835,-0.945
2629.0,-9.951,-3.597,7.175,-5.013,4.992,-0.728
2633.0,-9.951,-3.597,7.175,-5.013,4.992,-0.728
2637.0,-11.707,-4.649,7.961,-5.013,5.015,-0.646
2641.0,-11.707,-4.649,7.961,-5.013,5.015,-0.646
2645.0,-11.707,-4.649,7.961,-5.013,5.015,-0.646
2649.0,-13.692,-5.475,8.31,-5.013,5.015,-0.644
2653.0,-13.692,-5.475,8.31,-5.013,5.015,-0.644
2657.0,-15.343,-5.731,8.048,-5.003,5.015,-0.65
2661.0,-15.343,-5.731,8.048,-5.003,5.015,-0.65
2665.0,-15.343,-5.559,7.593,-5.003,5.015,-0.65
2669.0,-16.246,-5.559,7.593,-4.808,5.015,-0.567
2673.0,-16.246,-5.559,7.593,-4.808,5.015,-0.567
2677.0,-16.676,-5.381,7.275,-4.492,5.015,-0.372
2681.0,-16.676,-5.381,7.275,-4.492,5.015,-0.372
2686.0,-17.166,-5.141,7.488,-4.492,5.015,-0.124
2690.0,-17.166,-5.141,7.488,-4.21,5.015,-0.124
2694.0,-17.166,-5.141,7.488,-4.21,5.015,-0.124
2698.0,-18.285,-5.23,8.804,-3.908,5.015,0.085
2702.0,-18.285,-5.23,8.804,-3.908,5.015,0.085
2706.0,-19.461,-5.202,9.58,-3.577,5.015,0.201
2710.0,-19.461,-5.202,9.58,-3.577,5.015,0.201
2714.0,-19.461,-5.202,9.58,-3.577,5.015,0.201
2718.0,-19.6,-4.719,9.357,-3.279,5.001,0.274
2722.0,-19.6,-4.719,9.357,-3.279,5.001,0.274
2726.0,-19.6,-4.216,8.65,-3.091,4.844,0.367
2730.0,-19.6,-4.216,8.65,-3.091,4.844,0.367
2734.0,-19.6,-4.216,8.65,-3.091,4.844,0.367
2738.0,-19.6,-3.779,7.889,-3.038,4.618,0.509
2742.0,-19.6,-3.779,7.889,-3.038,4.618,0.509
2746.0,-19.6,-3.488,7.242,-3.085,4.457,0.686
2750.0,-19.6,-3.488,7.242,-3.085,4.457,0.686
2754.0,-19.6,-3.488,7.242,-3.085,4.457,0.686
2758.0,-19.6,-3.257,6.683,-3.172,4.375,0.844
2762.0,-19.6,-3.257,6.683,-3.172,4.375,0.844
2766.0,-19.598,-2.839,6.252,-3.254,4.331,0.914
2770.0,-19.598,-2.839,6.252,-3.254,4.331,0.914
2774.0,-19.598,-2.839,6.108,-3.254,4.331,0.914
2778.0,-19.231,-2.389,6.108,-3.267,4.278,0.871
2782.0,-19.231,-2.389,6.108,-3.267,4.278,0.871
2786.0,-18.779,-1.906,6.091,-3.173,4.16,0.739
2790.0,-18.779,-1.906,6.091,-3.173,4.16,0.739
2794.0,-18.715,-1.522,6.084,-3.173,4.16,0.739
2798.0,-18.715,-1.522,6.084,-2.995,3.928,0.555
2802.0,-18.715,-1.522,6.084,-2.995,3.928,0.555
2806.0,-18.932,-1.294,5.904,-2.764,3.587,0.348
2810.0,-18.932,-1.294,5.904,-2.764,3.587,0.348
2814.0,-18.855,-1.158,5.602,-2.764,3.587,0.143
2818.0,-18.855,-1.158,5.602,-2.507,3.162,0.143
2822.0,-18.855,-1.158,5.602,-2.507,3.162,0.143
2826.0,-18.126,-1.236,5.222,-2.256,2.714,-0.037
2830.0,-18.126,-1.236,5.222,-2.256,2.714,-0.037
2834.0,-16.894,-1.497,4.78,-2.034,2.306,-0.184
2838.0,-16.894,-1.497,4.78,-2.034,2.306,-0.184
2842.0,-16.894,-1.497,4.78,-2.034,2.306,-0.184
2846.0,-15.517,-1.732,4.306,-1.852,1.972,-0.304
2850.0,-15.517,-1.732,4.306,-1.852,1.972,-0.304
2854.0,-14.278,-1.808,3.782,-1.723,1.715,-0.401
2858.0,-14.278,-1.808,3.782,-1.723,1.715,-0.401
2862.0,-14.278,-1.808,3.782,-1.723,1.715,-0.401
2866.0,-13.267,-1.795,3.403,-1.648,1.523,-0.48
2870.0,-13.267,-1.795,3.403,-1.648,1.523,-0.48
2874.0,-12.48,-1.74,3.213,-1.617,1.377,-0.549
2879.0,-12.48,-1.74,3.213,-1.617,1.377,-0.549
2883.0,-11.909,-1.671,3.13,-1.617,1.377,-0.615
2887.0,-11.909,-1.671,3.13,-1.612,1.251,-0.615
2891.0,-11.909,-1.671,3.13,-1.612,1.251,-0.615
2895.0,-11.468,-1.613,3.146,-1.617,1.124,-0.681
2899.0,-11.468,-1.613,3.146,-1.617,1.124,-0.681
2903.0,-11.173,-1.532,3.152,-1.621,0.984,-0.741
2907.0,-11.173,-1.532,3.152,-1.621,0.984,-0.741
2911.0,-11.173,-1.532,3.152,-1.621,0.984,-0.741
2915.0,-10.922,-1.441,3.09,-1.616,0.835,-0.788
2919.0,-10.922,-1.441,3.09,-1.616,0.835,-0.788
2923.0,-10.655,-1.366,3.029,-1.602,0.691,-0.81
2928.0,-10.655,-1.366,3.029,-1.602,0.691,-0.81
2932.0,-10.655,-1.298,2.983,-1.602,0.691,-0.81
2936.0,-10.399,-1.298,2.983,-1.577,0.552,-0.807
2940.0,-10.399,-1.298,2.983,-1.577,0.552,-0.807
2944.0,-10.186,-1.281,2.919,-1.539,0.419,-0.781
2948.0,-10.186,-1.281,2.919,-1.539,0.419,-0.781
2952.0,-10.011,-1.303,2.855,-1.539,0.294,-0.735
2956.0,-10.011,-1.303,2.855,-1.489,0.294,-0.735
2960.0,-10.011,-1.303,2.855,-1.489,0.294,-0.735
2964.0,-9.899,-1.366,2.762,-1.433,0.178,-0.675
2968.0,-9.899,-1.366,2.762,-1.433,0.178,-0.675
2972.0,-9.884,-1.409,2.661,-1.373,0.068,-0.611
2976.0,-9.884,-1.409,2.661,-1.373,0.068,-0.611
2980.0,-9.884,-1.409,2.661,-1.373,0.068,-0.611
2984.0,-9.876,-1.461,2.484,-1.312,-0.041,-0.547
2988.0,-9.876,-1.461,2.484,-1.312,-0.041,-0.547
2992.0,-9.835,-1.571,2.271,-1.252,-0.151,-0.485
2996.0,-9.835,-1.571,2.271,-1.252,-0.151,-0.485
