deltaTime,Acc_X,Acc_Y,Acc_Z,Gyro_X,Gyro_Y,Gyro_Z
0.0,-8.243,-2.848,1.449,-0.125,-0.462,-0.535
3.0,-8.243,-2.848,1.449,0.023,-0.462,-0.535
6.0,-8.243,-2.848,1.449,0.023,-0.462,-0.535
9.0,-8.243,-2.848,1.449,0.023,-0.462,-0.535
12.0,-8.764,-2.591,1.825,0.099,-0.456,-0.551
15.0,-8.764,-2.591,1.825,0.099,-0.456,-0.551
18.0,-8.764,-2.591,1.825,0.099,-0.456,-0.551
21.0,-9.145,-2.314,2.155,0.148,-0.506,-0.523
24.0,-9.145,-2.314,2.155,0.148,-0.506,-0.523
27.0,-9.145,-2.314,2.155,0.148,-0.506,-0.523
30.0,-8.87,-1.892,2.107,0.157,-0.598,-0.469
33.0,-8.87,-1.892,2.107,0.157,-0.598,-0.469
37.0,-8.87,-1.892,2.107,0.157,-0.598,-0.469
41.0,-8.32,-1.305,1.738,0.074,-0.702,-0.393
45.0,-8.32,-1.305,1.738,0.074,-0.702,-0.393
49.0,-8.32,-1.305,1.304,0.074,-0.702,-0.393
52.0,-8.091,-1.127,1.304,-0.141,-0.741,-0.318
56.0,-8.091,-1.127,1.304,-0.141,-0.741,-0.318
60.0,-7.695,-1.263,1.123,-0.395,-0.764,-0.254
64.0,-7.695,-1.263,1.123,-0.395,-0.764,-0.254
68.0,-7.695,-1.263,1.123,-0.395,-0.764,-0.254
72.0,-7.472,-1.508,1.097,-0.64,-0.757,-0.203
76.0,-7.472,-1.508,1.097,-0.64,-0.757,-0.203
80.0,-7.329,-1.974,1.214,-0.822,-0.756,-0.179
84.0,-7.329,-1.974,1.214,-0.822,-0.756,-0.179
88.0,-7.329,-1.974,1.214,-0.822,-0.756,-0.179
92.0,-7.261,-2.347,1.375,-0.869,-0.765,-0.148
95.0,-7.261,-2.347,1.375,-0.869,-0.765,-0.148
99.0,-7.098,-2.202,1.454,-0.803,-0.771,-0.108
103.0,-7.098,-2.202,1.454,-0.803,-0.771,-0.108
107.0,-7.098,-2.202,1.454,-0.803,-0.771,-0.108
111.0,-6.998,-1.798,1.45,-0.728,-0.773,-0.081
115.0,-6.998,-1.798,1.45,-0.728,-0.773,-0.081
119.0,-6.871,-1.783,1.489,-0.682,-0.772,-0.052
123.0,-6.871,-1.783,1.489,-0.682,-0.772,-0.052
127.0,-6.871,-1.783,1.489,-0.682,-0.772,-0.052
131.0,-6.811,-2.237,1.623,-0.614,-0.761,-0.001
135.0,-6.811,-2.237,1.623,-0.614,-0.761,-0.001
139.0,-6.738,-2.649,1.72,-0.481,-0.74,0.056
143.0,-6.738,-2.649,1.72,-0.481,-0.74,0.056
147.0,-6.738,-2.649,1.72,-0.481,-0.74,0.056
151.0,-6.589,-2.83,1.836,-0.313,-0.712,0.096
155.0,-6.589,-2.83,1.836,-0.313,-0.712,0.096
159.0,-6.422,-2.862,1.924,-0.15,-0.683,0.118
163.0,-6.422,-2.862,1.924,-0.15,-0.683,0.118
167.0,-6.422,-2.862,1.924,-0.15,-0.683,0.118
170.0,-6.234,-2.615,1.959,-0.023,-0.642,0.115
174.0,-6.234,-2.615,1.959,-0.023,-0.642,0.115
178.0,-6.118,-2.374,2.008,0.046,-0.587,0.086
182.0,-6.118,-2.374,2.008,0.046,-0.587,0.086
186.0,-6.118,-2.374,2.008,0.046,-0.587,0.086
190.0,-6.066,-2.254,2.073,0.08,-0.525,0.048
194.0,-6.066,-2.254,2.073,0.08,-0.525,0.048
197.0,-5.971,-2.093,2.242,0.08,-0.525,0.018
201.0,-5.971,-2.093,2.242,0.104,-0.45,0.018
205.0,-5.971,-2.093,2.242,0.104,-0.45,0.018
209.0,-5.847,-1.724,2.456,0.106,-0.372,-0.021
213.0,-5.847,-1.724,2.456,0.106,-0.372,-0.021
217.0,-5.847,-1.101,2.782,0.106,-0.372,-0.021
221.0,-5.939,-1.101,2.782,0.049,-0.294,-0.085
224.0,-5.939,-1.101,2.782,0.049,-0.294,-0.085
228.0,-6.191,-0.589,3.106,-0.088,-0.237,-0.148
232.0,-6.191,-0.589,3.106,-0.088,-0.237,-0.148
236.0,-6.191,-0.589,3.497,-0.088,-0.237,-0.148
240.0,-6.567,-0.22,3.497,-0.288,-0.205,-0.19
244.0,-6.567,-0.22,3.497,-0.288,-0.205,-0.19
248.0,-6.794,-0.193,3.846,-0.522,-0.197,-0.201
252.0,-6.794,-0.193,3.846,-0.522,-0.197,-0.201
256.0,-6.833,-0.247,4.078,-0.522,-0.197,-0.201
260.0,-6.833,-0.247,4.078,-0.74,-0.211,-0.18
264.0,-6.833,-0.247,4.078,-0.74,-0.211,-0.18
268.0,-6.728,-0.386,4.176,-0.938,-0.228,-0.147
272.0,-6.728,-0.386,4.176,-0.938,-0.228,-0.147
276.0,-6.601,-1.297,4.431,-0.938,-0.228,-0.106
280.0,-6.601,-1.297,4.431,-1.092,-0.229,-0.106
284.0,-6.601,-1.297,4.431,-1.092,-0.229,-0.106
288.0,-6.965,-2.1,4.783,-1.11,-0.207,-0.057
292.0,-6.965,-2.1,4.783,-1.11,-0.207,-0.057
296.0,-7.787,-2.126,5.245,-1.11,-0.187,-0.046
300.0,-7.787,-2.126,5.245,-1.051,-0.187,-0.046
304.0,-7.787,-2.126,5.245,-1.051,-0.187,-0.046
308.0,-8.452,-2.052,5.825,-1.02,-0.201,-0.086
312.0,-8.452,-2.052,5.825,-1.02,-0.201,-0.086
316.0,-8.963,-2.329,6.438,-1.005,-0.249,-0.134
320.0,-8.963,-2.329,6.438,-1.005,-0.249,-0.134
324.0,-8.963,-2.329,6.438,-1.005,-0.249,-0.134
328.0,-9.291,-2.409,6.856,-0.951,-0.311,-0.162
332.0,-9.291,-2.409,6.856,-0.951,-0.311,-0.162
336.0,-9.521,-2.174,7.136,-0.877,-0.359,-0.178
340.0,-9.521,-2.174,7.136,-0.877,-0.359,-0.178
344.0,-9.521,-2.174,7.136,-0.877,-0.359,-0.178
348.0,-9.971,-2.297,7.331,-0.835,-0.387,-0.189
352.0,-9.971,-2.297,7.331,-0.835,-0.387,-0.189
356.0,-10.359,-2.56,7.574,-0.8,-0.41,-0.197
360.0,-10.359,-2.56,7.574,-0.8,-0.41,-0.197
364.0,-10.359,-2.56,7.574,-0.8,-0.41,-0.197
368.0,-10.65,-2.677,7.835,-0.762,-0.424,-0.209
372.0,-10.65,-2.677,7.835,-0.762,-0.424,-0.209
376.0,-11.107,-2.78,8.104,-0.743,-0.439,-0.238
381.0,-11.107,-2.78,8.104,-0.743,-0.439,-0.238
385.0,-11.56,-2.92,8.311,-0.743,-0.439,-0.238
389.0,-11.56,-2.92,8.311,-0.735,-0.455,-0.27
393.0,-11.56,-2.92,8.311,-0.735,-0.455,-0.27
397.0,-12.051,-3.324,8.59,-0.72,-0.489,-0.289
401.0,-12.051,-3.324,8.59,-0.72,-0.489,-0.289
405.0,-11.886,-3.951,8.502,-0.655,-0.544,-0.314
409.0,-11.886,-3.951,8.502,-0.655,-0.544,-0.314
413.0,-11.886,-3.951,8.502,-0.655,-0.544,-0.314
417.0,-11.486,-4.222,8.333,-0.518,-0.578,-0.336
421.0,-11.486,-4.222,8.333,-0.518,-0.578,-0.336
425.0,-11.09,-4.33,8.575,-0.338,-0.581,-0.301
430.0,-11.09,-4.33,8.575,-0.338,-0.581,-0.301
434.0,-11.09,-4.33,8.645,-0.338,-0.581,-0.301
438.0,-10.65,-4.495,8.645,-0.11,-0.565,-0.191
442.0,-10.65,-4.495,8.645,-0.11,-0.565,-0.191
446.0,-10.798,-4.795,8.692,0.143,-0.533,-0.084
450.0,-10.798,-4.795,8.692,0.143,-0.533,-0.084
454.0,-11.32,-4.932,8.587,0.143,-0.533,-0.084
458.0,-11.32,-4.932,8.587,0.407,-0.492,-0.025
462.0,-11.32,-4.932,8.587,0.407,-0.492,-0.025
466.0,-11.386,-4.854,8.238,0.641,-0.468,0.006
470.0,-11.386,-4.854,8.238,0.641,-0.468,0.006
474.0,-11.196,-4.919,7.865,0.641,-0.468,0.027
478.0,-11.196,-4.919,7.865,0.813,-0.451,0.027
481.0,-11.196,-4.919,7.865,0.813,-0.451,0.027
485.0,-10.941,-4.924,7.394,0.963,-0.455,0.028
489.0,-10.941,-4.924,7.394,0.963,-0.455,0.028
493.0,-10.588,-4.689,6.689,0.963,-0.455,0.028
497.0,-10.588,-4.689,6.689,1.096,-0.477,-0.008
501.0,-10.588,-4.689,6.689,1.096,-0.477,-0.008
505.0,-10.136,-4.447,5.835,1.192,-0.5,-0.076
509.0,-10.136,-4.447,5.835,1.192,-0.5,-0.076
513.0,-9.692,-4.354,5.018,1.192,-0.5,-0.076
517.0,-9.692,-4.354,5.018,1.238,-0.495,-0.147
521.0,-9.692,-4.354,5.018,1.238,-0.495,-0.147
525.0,-9.426,-4.275,4.377,1.234,-0.442,-0.191
529.0,-9.426,-4.275,4.377,1.234,-0.442,-0.191
533.0,-9.426,-4.436,4.084,1.234,-0.442,-0.191
536.0,-9.405,-4.436,4.084,1.187,-0.339,-0.184
540.0,-9.405,-4.436,4.084,1.187,-0.339,-0.184
544.0,-9.606,-4.682,4.115,1.137,-0.206,-0.115
548.0,-9.606,-4.682,4.115,1.137,-0.206,-0.115
552.0,-9.606,-4.682,4.423,1.137,-0.206,-0.115
556.0,-10.004,-5.042,4.423,1.111,-0.082,-0.011
560.0,-10.004,-5.042,4.423,1.111,-0.082,-0.011
564.0,-10.53,-5.413,4.75,1.117,-0.007,0.093
568.0,-10.53,-5.413,4.75,1.117,-0.007,0.093
572.0,-10.53,-5.413,4.896,1.117,-0.007,0.093
576.0,-10.96,-5.593,4.896,1.158,0.009,0.178
580.0,-10.96,-5.593,4.896,1.158,0.009,0.178
583.0,-11.096,-5.635,4.882,1.212,-0.025,0.244
587.0,-11.096,-5.635,4.882,1.212,-0.025,0.244
591.0,-11.096,-5.635,4.882,1.212,-0.025,0.244
595.0,-10.92,-5.525,4.713,1.268,-0.087,0.298
599.0,-10.92,-5.525,4.713,1.268,-0.087,0.298
603.0,-10.539,-5.298,4.376,1.306,-0.159,0.331
607.0,-10.539,-5.298,4.376,1.306,-0.159,0.331
611.0,-10.539,-5.298,4.376,1.306,-0.159,0.331
615.0,-10.035,-4.917,3.911,1.318,-0.225,0.343
619.0,-10.035,-4.917,3.911,1.318,-0.225,0.343
622.0,-9.499,-4.409,3.519,1.299,-0.275,0.34
626.0,-9.499,-4.409,3.519,1.299,-0.275,0.34
630.0,-9.499,-4.409,3.519,1.299,-0.275,0.34
634.0,-8.993,-3.877,3.27,1.25,-0.314,0.332
638.0,-8.993,-3.877,3.27,1.25,-0.314,0.332
642.0,-8.554,-3.416,3.13,1.25,-0.314,0.327
645.0,-8.554,-3.416,3.13,1.176,-0.354,0.327
649.0,-8.554,-3.416,3.13,1.176,-0.354,0.327
653.0,-8.158,-3.028,3.103,1.084,-0.4,0.322
657.0,-8.158,-3.028,3.103,1.084,-0.4,0.322
661.0,-8.158,-3.028,3.087,1.084,-0.4,0.322
664.0,-7.84,-2.703,3.087,0.974,-0.456,0.318
668.0,-7.84,-2.703,3.087,0.974,-0.456,0.318
672.0,-7.472,-2.428,3.072,0.848,-0.515,0.319
676.0,-7.472,-2.428,3.072,0.848,-0.515,0.319
680.0,-7.472,-2.428,3.072,0.848,-0.515,0.319
684.0,-7.063,-2.265,3.099,0.711,-0.569,0.325
687.0,-7.063,-2.265,3.099,0.711,-0.569,0.325
691.0,-6.626,-2.166,3.142,0.57,-0.613,0.329
695.0,-6.626,-2.166,3.142,0.57,-0.613,0.329
699.0,-6.626,-2.166,3.142,0.57,-0.613,0.329
703.0,-6.207,-2.124,3.303,0.43,-0.644,0.326
706.0,-6.207,-2.124,3.303,0.43,-0.644,0.326
710.0,-6.207,-2.147,3.564,0.43,-0.644,0.326
714.0,-5.812,-2.147,3.564,0.305,-0.666,0.309
718.0,-5.812,-2.147,3.564,0.305,-0.666,0.309
722.0,-5.49,-2.209,3.844,0.209,-0.683,0.276
726.0,-5.49,-2.209,3.844,0.209,-0.683,0.276
729.0,-5.49,-2.209,3.844,0.209,-0.683,0.276
733.0,-5.219,-2.28,4.127,0.154,-0.699,0.229
737.0,-5.219,-2.28,4.127,0.154,-0.699,0.229
741.0,-4.982,-2.185,4.555,0.15,-0.71,0.188
745.0,-4.982,-2.185,4.555,0.15,-0.71,0.188
748.0,-4.982,-2.185,4.555,0.15,-0.71,0.188
752.0,-4.755,-2.04,5.063,0.19,-0.72,0.177
756.0,-4.755,-2.04,5.063,0.19,-0.72,0.177
760.0,-4.555,-2.064,5.444,0.19,-0.72,0.201
764.0,-4.555,-2.064,5.444,0.267,-0.738,0.201
768.0,-4.555,-2.064,5.444,0.267,-0.738,0.201
771.0,-4.357,-2.313,5.764,0.376,-0.76,0.247
775.0,-4.357,-2.313,5.764,0.376,-0.76,0.247
779.0,-4.357,-2.313,5.764,0.376,-0.76,0.247
783.0,-4.156,-2.547,6.206,0.527,-0.776,0.292
787.0,-4.156,-2.547,6.206,0.527,-0.776,0.292
790.0,-4.071,-2.712,6.791,0.718,-0.79,0.316
794.0,-4.071,-2.712,6.791,0.718,-0.79,0.316
798.0,-4.071,-2.712,6.791,0.718,-0.79,0.316
802.0,-4.171,-2.756,7.35,0.932,-0.823,0.324
806.0,-4.171,-2.756,7.35,0.932,-0.823,0.324
810.0,-4.332,-2.721,7.816,0.932,-0.888,0.322
813.0,-4.332,-2.721,7.816,1.141,-0.888,0.322
817.0,-4.332,-2.721,7.816,1.141,-0.888,0.322
821.0,-4.434,-2.597,8.217,1.319,-0.976,0.309
825.0,-4.434,-2.597,8.217,1.319,-0.976,0.309
829.0,-4.434,-2.454,8.609,1.319,-0.976,0.309
832.0,-4.452,-2.454,8.609,1.453,-1.072,0.285
836.0,-4.452,-2.454,8.609,1.453,-1.072,0.285
840.0,-4.417,-2.338,9.078,1.544,-1.163,0.25
844.0,-4.417,-2.338,9.078,1.544,-1.163,0.25
848.0,-4.417,-2.338,9.078,1.544,-1.163,0.25
852.0,-4.491,-2.11,9.755,1.61,-1.256,0.201
855.0,-4.491,-2.11,9.755,1.61,-1.256,0.201
859.0,-4.859,-1.792,10.679,1.677,-1.367,0.155
863.0,-4.859,-1.792,10.679,1.677,-1.367,0.155
867.0,-4.859,-1.792,10.679,1.677,-1.367,0.155
871.0,-5.426,-1.643,11.672,1.756,-1.509,0.145
875.0,-5.426,-1.643,11.672,1.756,-1.509,0.145
879.0,-6.068,-1.722,12.733,1.839,-1.678,0.178
883.0,-6.068,-1.722,12.733,1.839,-1.678,0.178
887.0,-6.068,-1.722,12.733,1.839,-1.678,0.178
890.0,-6.736,-1.829,13.944,1.94,-1.855,0.238
894.0,-6.736,-1.829,13.944,1.94,-1.855,0.238
898.0,-7.545,-1.874,15.308,1.94,-2.043,0.307
902.0,-7.545,-1.874,15.308,2.061,-2.043,0.307
906.0,-7.545,-1.874,15.308,2.061,-2.043,0.307
910.0,-8.34,-1.968,16.503,2.186,-2.262,0.368
914.0,-8.34,-1.968,16.503,2.186,-2.262,0.368
918.0,-8.93,-2.06,17.439,2.186,-2.262,0.368
922.0,-8.93,-2.06,17.439,2.299,-2.504,0.397
926.0,-8.93,-2.06,17.439,2.299,-2.504,0.397
930.0,-9.457,-2.031,18.137,2.377,-2.757,0.4
933.0,-9.457,-2.031,18.137,2.377,-2.757,0.4
937.0,-10.274,-2.072,18.756,2.377,-2.757,0.4
941.0,-10.274,-2.072,18.756,2.412,-3.008,0.415
945.0,-10.274,-2.072,18.756,2.412,-3.008,0.415
949.0,-11.292,-2.132,19.4,2.414,-3.268,0.456
953.0,-11.292,-2.132,19.4,2.414,-3.268,0.456
957.0,-12.255,-2.318,19.6,2.414,-3.268,0.51
961.0,-12.255,-2.318,19.6,2.405,-3.549,0.51
965.0,-12.255,-2.318,19.6,2.405,-3.549,0.51
969.0,-12.976,-2.892,19.6,2.394,-3.852,0.563
973.0,-12.976,-2.892,19.6,2.394,-3.852,0.563
977.0,-13.077,-3.247,19.6,2.394,-4.146,0.58
981.0,-13.077,-3.247,19.6,2.371,-4.146,0.58
985.0,-13.077,-3.247,19.6,2.371,-4.146,0.58
989.0,-12.9,-3.265,19.6,2.347,-4.426,0.526
993.0,-12.9,-3.265,19.6,2.347,-4.426,0.526
997.0,-12.766,-3.453,19.6,2.321,-4.709,0.414
1001.0,-12.766,-3.453,19.6,2.321,-4.709,0.414
1005.0,-12.766,-3.453,19.6,2.321,-4.709,0.414
1009.0,-12.767,-3.993,19.6,2.277,-4.94,0.331
1013.0,-12.767,-3.993,19.6,2.277,-4.94,0.331
1018.0,-12.817,-5.072,19.6,2.216,-4.992,0.303
1022.0,-12.817,-5.072,19.6,2.216,-4.992,0.303
1026.0,-12.817,-5.072,19.6,2.216,-4.992,0.303
1030.0,-12.318,-5.934,19.6,2.174,-4.992,0.242
1034.0,-12.318,-5.934,19.6,2.174,-4.992,0.242
1038.0,-11.381,-6.2,19.6,2.185,-4.992,0.095
1042.0,-11.381,-6.2,19.6,2.185,-4.992,0.095
1046.0,-10.086,-6.106,19.328,2.185,-4.992,0.095
1050.0,-10.086,-6.106,19.328,2.25,-4.992,-0.11
1054.0,-10.086,-6.106,19.328,2.25,-4.992,-0.11
1059.0,-8.739,-6.016,18.191,2.376,-4.992,-0.36
1063.0,-8.739,-6.016,18.191,2.376,-4.992,-0.36
1067.0,-7.458,-5.847,16.646,2.588,-4.992,-0.65
1071.0,-7.458,-5.847,16.646,2.588,-4.992,-0.65
1075.0,-7.458,-5.847,16.646,2.588,-4.992,-0.65
1079.0,-5.986,-5.632,15.004,2.872,-4.992,-0.923
1083.0,-5.986,-5.632,15.004,2.872,-4.992,-0.923
1087.0,-4.847,-5.214,13.251,3.177,-4.992,-1.138
1091.0,-4.847,-5.214,13.251,3.177,-4.992,-1.138
1095.0,-4.847,-4.375,11.444,3.177,-4.992,-1.138
1099.0,-3.497,-4.375,11.444,3.52,-4.992,-1.301
1103.0,-3.497,-4.375,11.444,3.52,-4.992,-1.301
1107.0,-2.852,-3.814,9.898,3.811,-4.992,-1.389
1111.0,-2.852,-3.814,9.898,3.811,-4.992,-1.389
1115.0,-1.913,-3.196,8.369,3.811,-4.992,-1.41
1119.0,-1.913,-3.196,8.369,4.056,-4.992,-1.41
1123.0,-1.913,-3.196,8.369,4.056,-4.992,-1.41
1127.0,-1.063,-2.56,6.961,4.229,-4.983,-1.396
1131.0,-1.063,-2.56,6.961,4.229,-4.983,-1.396
1135.0,-0.431,-1.934,5.863,4.342,-4.852,-1.35
1139.0,-0.431,-1.934,5.863,4.342,-4.852,-1.35
1143.0,-0.431,-1.934,5.863,4.342,-4.852,-1.35
1147.0,0.167,-1.411,5.032,4.404,-4.606,-1.236
1151.0,0.167,-1.411,5.032,4.404,-4.606,-1.236
1155.0,0.633,-0.838,4.442,4.416,-4.313,-1.092
1159.0,0.633,-0.838,4.442,4.416,-4.313,-1.092
1163.0,0.633,-0.838,4.442,4.416,-4.313,-1.092
1167.0,1.035,0.166,4.068,4.413,-4.009,-0.979
1171.0,1.035,0.166,4.068,4.413,-4.009,-0.979
1175.0,1.446,1.537,3.476,4.413,-4.009,-0.9
1178.0,1.446,1.537,3.476,4.41,-3.727,-0.9
1182.0,1.446,1.537,3.476,4.41,-3.727,-0.9
1186.0,2.017,2.954,2.469,4.422,-3.455,-0.793
1190.0,2.017,2.954,2.469,4.422,-3.455,-0.793
1194.0,2.017,2.954,1.382,4.422,-3.455,-0.793
1197.0,2.905,4.295,1.382,4.457,-3.172,-0.616
1201.0,2.905,4.295,1.382,4.457,-3.172,-0.616
1205.0,4.044,5.789,0.141,4.532,-2.852,-0.397
1209.0,4.044,5.789,0.141,4.532,-2.852,-0.397
1213.0,4.044,5.789,0.141,4.532,-2.852,-0.397
1217.0,5.174,7.486,-0.965,4.664,-2.483,-0.129
1220.0,5.174,7.486,-0.965,4.664,-2.483,-0.129
1224.0,6.148,9.131,-1.857,4.857,-2.063,0.214
1228.0,6.148,9.131,-1.857,4.857,-2.063,0.214
1232.0,6.148,9.131,-1.857,4.857,-2.063,0.214
1236.0,7.18,10.91,-2.932,4.986,-1.581,0.659
1240.0,7.18,10.91,-2.932,4.986,-1.581,0.659
1244.0,7.692,12.115,-3.901,4.986,-1.581,1.222
1248.0,7.692,12.115,-3.901,4.995,-1.023,1.222
1251.0,7.692,12.115,-3.901,4.995,-1.023,1.222
1255.0,8.619,13.112,-4.951,4.995,-0.484,1.871
1259.0,8.619,13.112,-4.951,4.995,-0.484,1.871
1263.0,9.245,13.47,-6.126,4.995,-0.484,1.871
1267.0,9.245,13.47,-6.126,4.995,0.144,2.556
1271.0,9.245,13.47,-6.126,4.995,0.144,2.556
1275.0,9.721,13.266,-6.944,4.995,0.834,3.236
1279.0,9.721,13.266,-6.944,4.995,0.834,3.236
1282.0,9.721,13.266,-6.944,4.995,0.834,3.236
1286.0,9.626,12.869,-6.976,4.995,1.562,3.825
1290.0,9.626,12.869,-6.976,4.995,1.562,3.825
1294.0,8.637,12.479,-6.499,4.995,2.267,4.279
1298.0,8.637,12.479,-6.499,4.995,2.267,4.279
1301.0,8.637,12.479,-6.499,4.995,2.267,4.279
1305.0,6.97,12.078,-5.976,4.995,2.913,4.6
1309.0,6.97,12.078,-5.976,4.995,2.913,4.6
1313.0,4.747,11.535,-5.488,4.995,3.489,4.791
1317.0,4.747,11.535,-5.488,4.901,3.489,4.791
1321.0,4.747,11.535,-5.488,4.901,3.489,4.791
1324.0,2.073,11.008,-5.157,4.163,3.966,4.838
1328.0,2.073,11.008,-5.157,4.163,3.966,4.838
1332.0,2.073,10.321,-4.282,4.163,3.966,4.838
1336.0,-1.478,10.321,-4.282,2.978,4.329,4.77
1340.0,-1.478,10.321,-4.282,2.978,4.329,4.77
1344.0,-6.225,8.779,-2.492,1.541,4.493,4.65
1347.0,-6.225,8.779,-2.492,1.541,4.493,4.65
1351.0,-6.225,8.779,-2.492,1.541,4.493,4.65
1355.0,-11.526,6.199,0.601,-0.069,4.403,4.411
1359.0,-11.526,6.199,0.601,-0.069,4.403,4.411
1363.0,-17.471,3.145,4.315,-1.682,4.039,3.924
1367.0,-17.471,3.145,4.315,-1.682,4.039,3.924
1371.0,-17.471,3.145,4.315,-1.682,4.039,3.924
1375.0,-19.598,-0.314,6.051,-3.162,3.287,3.262
1379.0,-19.598,-0.314,6.051,-3.162,3.287,3.262
1383.0,-19.6,-4.049,5.626,-4.323,2.189,2.526
1387.0,-19.6,-4.049,5.626,-4.323,2.189,2.526
1391.0,-19.6,-4.049,5.626,-4.323,2.189,2.526
1395.0,-18.709,-7.816,5.046,-4.93,1.019,1.685
1399.0,-18.709,-7.816,5.046,-4.93,1.019,1.685
1403.0,-15.808,-10.918,4.545,-4.979,-0.084,0.73
1407.0,-15.808,-10.918,4.545,-4.979,-0.084,0.73
1411.0,-15.808,-10.918,4.522,-4.979,-0.084,0.73
1415.0,-12.764,-12.8,4.522,-4.621,-1.045,-0.282
1419.0,-12.764,-12.8,4.522,-4.621,-1.045,-0.282
1424.0,-9.683,-13.235,4.156,-3.911,-1.766,-1.225
1428.0,-9.683,-13.235,4.156,-3.911,-1.766,-1.225
1432.0,-7.022,-12.418,3.782,-3.031,-2.206,-1.969
1436.0,-7.022,-12.418,3.782,-3.031,-2.206,-1.969
1440.0,-7.022,-12.418,3.782,-3.031,-2.206,-1.969
1444.0,-5.259,-11.186,3.611,-2.06,-2.434,-2.48
1449.0,-5.259,-11.186,3.611,-2.06,-2.434,-2.48
1453.0,-4.232,-9.741,2.978,-1.097,-2.565,-2.82
1457.0,-4.232,-9.741,2.978,-1.097,-2.565,-2.82
1461.0,-3.648,-8.166,1.781,-1.097,-2.637,-3.075
1465.0,-3.648,-8.166,1.781,-0.247,-2.637,-3.075
1469.0,-3.648,-8.166,1.781,-0.247,-2.637,-3.075
1473.0,-3.391,-6.489,0.66,0.439,-2.666,-3.295
1477.0,-3.391,-6.489,0.66,0.439,-2.666,-3.295
1481.0,-3.286,-4.68,-0.192,0.939,-2.683,-3.489
1485.0,-3.286,-4.68,-0.192,0.939,-2.683,-3.489
1489.0,-3.286,-4.68,-0.192,0.939,-2.683,-3.489
1493.0,-3.077,-2.846,-0.918,1.241,-2.698,-3.663
1497.0,-3.077,-2.846,-0.918,1.241,-2.698,-3.663
1502.0,-2.421,-1.17,-1.299,1.388,-2.697,-3.823
1506.0,-2.421,-1.17,-1.299,1.388,-2.697,-3.823
1510.0,-2.421,0.626,-1.607,1.388,-2.697,-3.823
1514.0,-1.347,0.626,-1.607,1.479,-2.657,-3.988
1518.0,-1.347,0.626,-1.607,1.479,-2.657,-3.988
1522.0,-0.027,2.53,-1.882,1.603,-2.586,-4.124
1526.0,-0.027,2.53,-1.882,1.603,-2.586,-4.124
1530.0,1.73,4.3,-1.752,1.603,-2.586,-4.124
1534.0,1.73,4.3,-1.752,1.742,-2.509,-4.192
1538.0,1.73,4.3,-1.752,1.742,-2.509,-4.192
1541.0,3.62,5.984,-1.443,1.858,-2.423,-4.228
1545.0,3.62,5.984,-1.443,1.858,-2.423,-4.228
1549.0,3.62,7.886,-1.336,1.858,-2.423,-4.228
1553.0,5.542,7.886,-1.336,1.943,-2.33,-4.26
1557.0,5.542,7.886,-1.336,1.943,-2.33,-4.26
1561.0,6.9,10.046,-1.1,2.004,-2.258,-4.273
1565.0,6.9,10.046,-1.1,2.004,-2.258,-4.273
1569.0,6.9,12.249,-1.138,2.004,-2.258,-4.273
1573.0,7.932,12.249,-1.138,2.017,-2.226,-4.24
1577.0,7.932,12.249,-1.138,2.017,-2.226,-4.24
1581.0,9.205,15.124,-2.096,2.005,-2.236,-4.134
1585.0,9.205,15.124,-2.096,2.005,-2.236,-4.134
1589.0,10.905,18.184,-4.268,2.005,-2.236,-4.134
1593.0,10.905,18.184,-4.268,1.969,-2.176,-3.901
1597.0,10.905,18.184,-4.268,1.969,-2.176,-3.901
1601.0,11.547,19.581,-6.752,1.864,-2.021,-3.567
1605.0,11.547,19.581,-6.752,1.864,-2.021,-3.567
1609.0,11.104,19.596,-9.961,1.618,-1.759,-3.171
1613.0,11.104,19.596,-9.961,1.618,-1.759,-3.171
1617.0,11.104,19.596,-9.961,1.618,-1.759,-3.171
1622.0,10.925,19.596,-13.087,1.213,-1.359,-2.721
1626.0,10.925,19.596,-13.087,1.213,-1.359,-2.721
1630.0,10.165,19.596,-13.66,0.682,-0.857,-2.28
1634.0,10.165,19.596,-13.66,0.682,-0.857,-2.28
1638.0,9.02,19.596,-12.701,0.682,-0.857,-2.28
1642.0,9.02,19.596,-12.701,0.137,-0.385,-1.784
1646.0,9.02,19.596,-12.701,0.137,-0.385,-1.784
1650.0,8.042,19.596,-10.915,-0.278,0.036,-1.189
1655.0,8.042,19.596,-10.915,-0.278,0.036,-1.189
1659.0,6.931,19.596,-8.539,-0.462,0.406,-0.596
1663.0,6.931,19.596,-8.539,-0.462,0.406,-0.596
1667.0,6.931,19.596,-8.539,-0.462,0.406,-0.596
1671.0,7.003,19.596,-7.193,-0.434,0.717,-0.012
1675.0,7.003,19.596,-7.193,-0.434,0.717,-0.012
1679.0,7.933,19.596,-7.314,-0.292,1.022,0.607
1682.0,7.933,19.596,-7.314,-0.292,1.022,0.607
1686.0,7.933,19.596,-7.314,-0.292,1.022,0.607
1690.0,8.641,19.596,-8.977,-0.125,1.38,1.253
1694.0,8.641,19.596,-8.977,-0.125,1.38,1.253
1698.0,9.605,19.596,-11.78,0.007,1.835,1.861
1702.0,9.605,19.596,-11.78,0.007,1.835,1.861
1706.0,9.605,19.596,-11.78,0.007,1.835,1.861
1710.0,11.005,19.596,-13.84,0.066,2.402,2.373
1714.0,11.005,19.596,-13.84,0.066,2.402,2.373
1718.0,12.005,19.596,-14.337,0.083,3.039,2.817
1722.0,12.005,19.596,-14.337,0.083,3.039,2.817
1726.0,12.005,19.596,-14.337,0.083,3.039,2.817
1730.0,12.556,19.596,-13.532,0.126,3.676,3.243
1734.0,12.556,19.596,-13.532,0.126,3.676,3.243
1738.0,12.864,19.596,-12.0,0.226,4.294,3.639
1742.0,12.864,19.596,-12.0,0.226,4.294,3.639
1746.0,12.864,19.596,-12.0,0.226,4.294,3.639
1750.0,12.215,19.596,-9.625,0.375,4.847,4.021
1754.0,12.215,19.596,-9.625,0.375,4.847,4.021
1758.0,10.606,18.854,-6.798,0.538,5.015,4.389
1761.0,10.606,18.854,-6.798,0.538,5.015,4.389
1765.0,10.606,18.854,-6.798,0.538,5.015,4.389
1769.0,8.113,16.595,-3.802,0.67,5.015,4.744
1773.0,8.113,16.595,-3.802,0.67,5.015,4.744
1777.0,4.942,14.065,-1.281,0.67,5.015,4.982
1781.0,4.942,14.065,-1.281,0.734,5.015,4.982
1785.0,4.942,14.065,-1.281,0.734,5.015,4.982
1788.0,1.574,11.655,0.078,0.684,5.015,5.013
1792.0,1.574,11.655,0.078,0.684,5.015,5.013
1796.0,1.574,11.655,0.332,0.684,5.015,5.013
1800.0,-1.694,9.881,0.332,0.49,5.015,5.013
1803.0,-1.694,9.881,0.332,0.49,5.015,5.013
1807.0,-5.274,8.445,0.656,0.116,5.015,5.013
1811.0,-5.274,8.445,0.656,0.116,5.015,5.013
1814.0,-5.274,8.445,0.656,0.116,5.015,5.013
1818.0,-9.37,6.82,1.884,-0.455,5.015,5.013
1822.0,-9.37,6.82,1.884,-0.455,5.015,5.013
1826.0,-14.374,5.417,3.876,-0.455,5.015,5.013
1830.0,-14.374,5.417,3.876,-1.159,5.015,5.013
1834.0,-14.374,5.417,3.876,-1.159,5.015,5.013
1838.0,-19.206,4.284,5.985,-1.956,5.015,5.013
1841.0,-19.206,4.284,5.985,-1.956,5.015,5.013
1845.0,-19.206,1.816,6.974,-1.956,5.015,5.013
1849.0,-19.6,1.816,6.974,-2.768,4.884,4.971
1853.0,-19.6,1.816,6.974,-2.768,4.884,4.971
1857.0,-19.6,-2.12,7.322,-3.42,3.734,4.447
1861.0,-19.6,-2.12,7.322,-3.42,3.734,4.447
1865.0,-19.6,-6.136,6.673,-3.42,3.734,4.447
1869.0,-17.243,-6.136,6.673,-3.798,2.102,3.475
1873.0,-17.243,-6.136,6.673,-3.798,2.102,3.475
1877.0,-7.813,-8.673,5.395,-3.877,0.888,2.224
1881.0,-7.813,-8.673,5.395,-3.877,0.888,2.224
1885.0,-7.813,-9.625,5.764,-3.877,0.888,2.224
1889.0,-1.836,-9.625,5.764,-3.692,0.248,0.756
1893.0,-1.836,-9.625,5.764,-3.692,0.248,0.756
1897.0,0.851,-9.307,6.948,-3.329,-0.18,-0.616
1901.0,0.851,-9.307,6.948,-3.329,-0.18,-0.616
1905.0,0.851,-8.237,7.665,-3.329,-0.18,-0.616
1909.0,2.211,-8.237,7.665,-2.813,-0.554,-1.706
1913.0,2.211,-8.237,7.665,-2.813,-0.554,-1.706
1917.0,3.368,-6.661,7.889,-2.191,-0.829,-2.46
1921.0,3.368,-6.661,7.889,-2.191,-0.829,-2.46
1925.0,4.212,-5.109,7.984,-2.191,-0.829,-2.46
1929.0,4.212,-5.109,7.984,-1.52,-0.968,-2.851
1933.0,4.212,-5.109,7.984,-1.52,-0.968,-2.851
1937.0,4.795,-4.295,7.696,-0.843,-1.031,-2.902
1941.0,4.795,-4.295,7.696,-0.843,-1.031,-2.902
1945.0,5.469,-3.861,6.941,-0.843,-1.031,-2.761
1949.0,5.469,-3.861,6.941,-0.163,-1.08,-2.761
1953.0,5.469,-3.861,6.941,-0.163,-1.08,-2.761
1957.0,6.316,-3.26,6.028,0.518,-1.093,-2.586
1960.0,6.316,-3.26,6.028,0.518,-1.093,-2.586
1964.0,7.024,-1.995,5.41,0.518,-1.093,-2.406
1968.0,7.024,-1.995,5.41,1.189,-1.039,-2.406
1972.0,7.024,-1.995,5.41,1.189,-1.039,-2.406
1976.0,7.542,-0.112,4.911,1.822,-0.963,-2.169
1980.0,7.542,-0.112,4.911,1.822,-0.963,-2.169
1984.0,8.234,2.206,4.21,1.822,-0.963,-2.169
1988.0,8.234,2.206,4.21,2.37,-0.892,-1.838
1991.0,8.234,2.206,4.21,2.37,-0.892,-1.838
1995.0,8.996,4.108,3.794,2.802,-0.807,-1.419
1999.0,8.996,4.108,3.794,2.802,-0.807,-1.419
2003.0,8.996,4.108,3.794,2.802,-0.807,-1.419
2007.0,9.505,5.462,3.769,3.106,-0.749,-0.974
2011.0,9.505,5.462,3.769,3.106,-0.749,-0.974
2014.0,9.717,6.599,3.401,3.252,-0.74,-0.558
2018.0,9.717,6.599,3.401,3.252,-0.74,-0.558
2022.0,9.717,6.599,3.401,3.252,-0.74,-0.558
2026.0,9.494,7.482,2.83,3.208,-0.721,-0.216
2030.0,9.494,7.482,2.83,3.208,-0.721,-0.216
2034.0,8.892,8.174,2.428,3.208,-0.668,0.019
2037.0,8.892,8.174,2.428,2.976,-0.668,0.019
2041.0,8.892,8.174,2.428,2.976,-0.668,0.019
2045.0,8.423,8.632,2.182,2.585,-0.614,0.138
2048.0,8.423,8.632,2.182,2.585,-0.614,0.138
2052.0,8.423,8.632,2.182,2.585,-0.614,0.138
2056.0,8.341,8.976,2.131,2.075,-0.569,0.163
2060.0,8.341,8.976,2.131,2.075,-0.569,0.163
2063.0,8.648,9.114,2.103,1.483,-0.518,0.122
2067.0,8.648,9.114,2.103,1.483,-0.518,0.122
2071.0,8.648,9.114,2.103,1.483,-0.518,0.122
2075.0,9.075,9.076,2.046,0.852,-0.44,0.037
2078.0,9.075,9.076,2.046,0.852,-0.44,0.037
2082.0,9.075,9.076,2.113,0.852,-0.44,0.037
2086.0,9.502,8.705,2.113,0.228,-0.333,-0.065
2090.0,9.502,8.705,2.113,0.228,-0.333,-0.065
2093.0,9.68,8.149,2.381,-0.351,-0.202,-0.189
2097.0,9.68,8.149,2.381,-0.351,-0.202,-0.189
2101.0,9.68,8.149,2.381,-0.351,-0.202,-0.189
2105.0,9.312,7.528,2.812,-0.847,-0.07,-0.324
2109.0,9.312,7.528,2.812,-0.847,-0.07,-0.324
2113.0,8.465,7.026,3.281,-1.231,0.046,-0.45
2117.0,8.465,7.026,3.281,-1.231,0.046,-0.45
2121.0,8.465,7.026,3.281,-1.231,0.046,-0.45
2124.0,7.384,6.673,3.893,-1.492,0.132,-0.528
2128.0,7.384,6.673,3.893,-1.492,0.132,-0.528
2132.0,6.421,6.261,4.476,-1.492,0.132,-0.533
2136.0,6.421,6.261,4.476,-1.639,0.153,-0.533
2140.0,6.421,6.261,4.476,-1.639,0.153,-0.533
2143.0,5.878,5.698,4.804,-1.688,0.11,-0.495
2147.0,5.878,5.698,4.804,-1.688,0.11,-0.495
2151.0,5.878,5.698,5.026,-1.688,0.11,-0.495
2155.0,5.674,5.152,5.026,-1.65,0.038,-0.463
2159.0,5.674,5.152,5.026,-1.65,0.038,-0.463
2163.0,5.651,4.82,5.16,-1.547,-0.034,-0.433
2166.0,5.651,4.82,5.16,-1.547,-0.034,-0.433
2170.0,5.651,4.82,5.16,-1.547,-0.034,-0.433
2174.0,5.803,4.601,5.191,-1.392,-0.102,-0.37
2178.0,5.803,4.601,5.191,-1.392,-0.102,-0.37
2182.0,6.165,4.296,5.246,-1.197,-0.161,-0.275
2186.0,6.165,4.296,5.246,-1.197,-0.161,-0.275
2190.0,6.165,4.296,5.246,-1.197,-0.161,-0.275
2194.0,6.407,4.061,5.329,-0.981,-0.201,-0.184
2198.0,6.407,4.061,5.329,-0.981,-0.201,-0.184
2202.0,6.51,3.942,5.419,-0.776,-0.235,-0.087
2206.0,6.51,3.942,5.419,-0.776,-0.235,-0.087
2209.0,6.51,3.942,5.419,-0.776,-0.235,-0.087
2213.0,6.556,3.857,5.509,-0.598,-0.256,0.006
2217.0,6.556,3.857,5.509,-0.598,-0.256,0.006
2221.0,6.404,3.89,5.58,-0.598,-0.26,0.067
2225.0,6.404,3.89,5.58,-0.455,-0.26,0.067
2229.0,6.404,3.89,5.58,-0.455,-0.26,0.067
2232.0,6.281,3.955,5.563,-0.346,-0.263,0.107
2236.0,6.281,3.955,5.563,-0.346,-0.263,0.107
2240.0,6.281,3.955,5.471,-0.346,-0.263,0.107
2244.0,6.179,3.983,5.471,-0.271,-0.26,0.119
2248.0,6.179,3.983,5.471,-0.271,-0.26,0.119
2252.0,5.995,4.054,5.404,-0.219,-0.239,0.099
2255.0,5.995,4.054,5.404,-0.219,-0.239,0.099
2259.0,5.995,4.054,5.404,-0.219,-0.239,0.099
2263.0,5.895,4.148,5.408,-0.17,-0.216,0.065
2267.0,5.895,4.148,5.408,-0.17,-0.216,0.065
2271.0,5.885,4.248,5.398,-0.114,-0.194,0.028
2274.0,5.885,4.248,5.398,-0.114,-0.194,0.028
2278.0,5.885,4.248,5.398,-0.114,-0.194,0.028
2282.0,5.943,4.268,5.408,-0.045,-0.179,-0.008
2286.0,5.943,4.268,5.408,-0.045,-0.179,-0.008
2290.0,5.983,4.269,5.321,-0.045,-0.179,-0.049
2294.0,5.983,4.269,5.321,0.034,-0.172,-0.049
2298.0,5.983,4.269,5.321,0.034,-0.172,-0.049
2301.0,5.971,4.342,5.231,0.124,-0.154,-0.098
2305.0,5.971,4.342,5.231,0.124,-0.154,-0.098
2309.0,5.971,4.342,5.262,0.124,-0.154,-0.098
2313.0,5.909,4.471,5.262,0.226,-0.131,-0.139
2317.0,5.909,4.471,5.262,0.226,-0.131,-0.139
2321.0,6.333,4.621,5.228,0.346,-0.146,-0.162
2324.0,6.333,4.621,5.228,0.346,-0.146,-0.162
2328.0,6.333,4.621,5.228,0.346,-0.146,-0.162
2332.0,7.289,4.835,5.183,0.508,-0.198,-0.218
2336.0,7.289,4.835,5.183,0.508,-0.198,-0.218
2340.0,8.008,5.185,4.999,0.714,-0.237,-0.309
2343.0,8.008,5.185,4.999,0.714,-0.237,-0.309
2347.0,8.008,5.185,4.999,0.714,-0.237,-0.309
2351.0,8.027,5.608,4.866,0.938,-0.199,-0.342
2355.0,8.027,5.608,4.866,0.938,-0.199,-0.342
2359.0,7.805,5.636,4.957,0.938,-0.199,-0.342
2363.0,7.805,5.636,4.957,1.182,-0.101,-0.249
2366.0,7.805,5.636,4.957,1.182,-0.101,-0.249
2370.0,7.437,5.453,5.079,1.453,0.009,-0.111
2374.0,7.437,5.453,5.079,1.453,0.009,-0.111
2378.0,7.437,5.453,5.079,1.453,0.009,-0.111
2381.0,6.858,5.544,4.985,1.728,0.1,-0.012
2385.0,6.858,5.544,4.985,1.728,0.1,-0.012
2389.0,6.109,5.967,4.794,1.728,0.171,0.037
2393.0,6.109,5.967,4.794,1.954,0.171,0.037
2396.0,6.109,5.967,4.794,1.954,0.171,0.037
2400.0,5.541,6.559,4.54,2.096,0.199,0.059
2403.0,5.541,6.559,4.54,2.096,0.199,0.059
2407.0,5.541,6.559,4.54,2.096,0.199,0.059
2411.0,5.521,7.163,4.219,2.151,0.163,0.048
2414.0,5.521,7.163,4.219,2.151,0.163,0.048
2418.0,5.782,7.808,3.866,2.151,0.163,0.048
2422.0,5.782,7.808,3.866,2.116,0.086,-0.019
2425.0,5.782,7.808,3.866,2.116,0.086,-0.019
2429.0,6.075,8.457,3.608,1.989,-0.01,-0.115
2433.0,6.075,8.457,3.608,1.989,-0.01,-0.115
2437.0,6.075,8.457,3.608,1.989,-0.01,-0.115
2441.0,6.263,8.87,3.304,1.774,-0.107,-0.19
2444.0,6.263,8.87,3.304,1.774,-0.107,-0.19
2448.0,6.292,8.896,3.148,1.489,-0.186,-0.229
2452.0,6.292,8.896,3.148,1.489,-0.186,-0.229
2456.0,6.292,8.896,3.148,1.489,-0.186,-0.229
2460.0,6.026,8.658,3.097,1.164,-0.253,-0.241
2464.0,6.026,8.658,3.097,1.164,-0.253,-0.241
2467.0,5.81,8.234,3.048,1.164,-0.253,-0.241
2471.0,5.81,8.234,3.048,0.83,-0.321,-0.223
2475.0,5.81,8.234,3.048,0.83,-0.321,-0.223
2479.0,5.716,7.647,2.977,0.51,-0.383,-0.184
2483.0,5.716,7.647,2.977,0.51,-0.383,-0.184
2486.0,5.716,7.647,2.977,0.51,-0.383,-0.184
2490.0,5.73,7.083,2.768,0.217,-0.445,-0.14
2494.0,5.73,7.083,2.768,0.217,-0.445,-0.14
2498.0,5.858,6.632,2.45,-0.045,-0.501,-0.096
2502.0,5.858,6.632,2.45,-0.045,-0.501,-0.096
2506.0,5.858,6.632,2.45,-0.045,-0.501,-0.096
2510.0,6.045,6.26,2.114,-0.277,-0.543,-0.054
2514.0,6.045,6.26,2.114,-0.277,-0.543,-0.054
2517.0,6.4,5.941,1.8,-0.485,-0.573,-0.022
2521.0,6.4,5.941,1.8,-0.485,-0.573,-0.022
2525.0,6.4,5.941,1.8,-0.485,-0.573,-0.022
2529.0,6.81,5.722,1.598,-0.667,-0.585,-0.019
2533.0,6.81,5.722,1.598,-0.667,-0.585,-0.019
2537.0,7.176,5.674,1.512,-0.667,-0.584,-0.042
2541.0,7.176,5.674,1.512,-0.822,-0.584,-0.042
2545.0,7.176,5.674,1.512,-0.822,-0.584,-0.042
2549.0,7.387,5.617,1.527,-0.942,-0.568,-0.076
2553.0,7.387,5.617,1.527,-0.942,-0.568,-0.076
2557.0,7.443,5.563,1.576,-0.942,-0.568,-0.108
2560.0,7.443,5.563,1.576,-1.023,-0.536,-0.108
2564.0,7.443,5.563,1.576,-1.023,-0.536,-0.108
2568.0,7.494,5.436,1.666,-1.053,-0.487,-0.127
2572.0,7.494,5.436,1.666,-1.053,-0.487,-0.127
2576.0,7.549,5.235,1.868,-1.053,-0.487,-0.127
2580.0,7.549,5.235,1.868,-1.029,-0.432,-0.136
2584.0,7.549,5.235,1.868,-1.029,-0.432,-0.136
2588.0,7.569,5.022,1.973,-0.953,-0.376,-0.145
2592.0,7.569,5.022,1.973,-0.953,-0.376,-0.145
2596.0,7.569,4.881,2.097,-0.953,-0.376,-0.145
2599.0,7.53,4.881,2.097,-0.834,-0.311,-0.153
2603.0,7.53,4.881,2.097,-0.834,-0.311,-0.153
2607.0,7.387,4.863,2.245,-0.68,-0.245,-0.156
2611.0,7.387,4.863,2.245,-0.68,-0.245,-0.156
2615.0,7.387,4.863,2.434,-0.68,-0.245,-0.156
2619.0,7.274,4.979,2.434,-0.495,-0.183,-0.157
2623.0,7.274,4.979,2.434,-0.495,-0.183,-0.157
2627.0,7.172,5.124,2.566,-0.285,-0.134,-0.153
2631.0,7.172,5.124,2.566,-0.285,-0.134,-0.153
2635.0,7.172,5.124,2.566,-0.285,-0.134,-0.153
2639.0,7.098,5.257,2.594,-0.071,-0.099,-0.134
2642.0,7.098,5.257,2.594,-0.071,-0.099,-0.134
2646.0,7.004,5.39,2.6,0.135,-0.07,-0.11
2650.0,7.004,5.39,2.6,0.135,-0.07,-0.11
2654.0,7.004,5.39,2.6,0.135,-0.07,-0.11
2658.0,6.834,5.557,2.586,0.327,-0.037,-0.087
2662.0,6.834,5.557,2.586,0.327,-0.037,-0.087
2665.0,6.783,5.721,2.621,0.499,-0.009,-0.054
2669.0,6.783,5.721,2.621,0.499,-0.009,-0.054
2673.0,6.783,5.721,2.621,0.499,-0.009,-0.054
2677.0,6.815,5.935,2.622,0.649,0.01,-0.016
2681.0,6.815,5.935,2.622,0.649,0.01,-0.016
2684.0,6.815,6.16,2.572,0.649,0.01,-0.016
2688.0,6.854,6.16,2.572,0.773,0.021,0.024
2692.0,6.854,6.16,2.572,0.773,0.021,0.024
2695.0,6.873,6.306,2.442,0.869,0.029,0.07
2699.0,6.873,6.306,2.442,0.869,0.029,0.07
2703.0,6.873,6.306,2.442,0.869,0.029,0.07
2706.0,7.031,6.394,2.314,0.928,0.035,0.113
2710.0,7.031,6.394,2.314,0.928,0.035,0.113
2714.0,7.031,6.394,2.314,0.928,0.035,0.113
2717.0,7.13,6.521,2.256,0.959,0.044,0.126
2721.0,7.13,6.521,2.256,0.959,0.044,0.126
2725.0,7.111,6.759,2.105,0.959,0.049,0.126
2728.0,7.111,6.759,2.105,0.962,0.049,0.126
2732.0,7.111,6.759,2.105,0.962,0.049,0.126
2735.0,7.193,6.917,1.982,0.93,0.057,0.144
2739.0,7.193,6.917,1.982,0.93,0.057,0.144
2743.0,7.193,6.917,1.982,0.93,0.057,0.144
2746.0,7.303,6.961,1.979,0.865,0.072,0.17
2750.0,7.303,6.961,1.979,0.865,0.072,0.17
2754.0,7.269,6.937,1.942,0.865,0.072,0.17
2757.0,7.269,6.937,1.942,0.77,0.084,0.185
2761.0,7.269,6.937,1.942,0.77,0.084,0.185
2765.0,7.077,6.908,1.938,0.649,0.098,0.191
2768.0,7.077,6.908,1.938,0.649,0.098,0.191
2772.0,7.077,6.908,1.938,0.649,0.098,0.191
2776.0,6.807,6.791,1.952,0.506,0.111,0.207
2779.0,6.807,6.791,1.952,0.506,0.111,0.207
2783.0,6.807,6.791,1.905,0.506,0.111,0.207
2787.0,6.634,6.574,1.905,0.347,0.112,0.232
2790.0,6.634,6.574,1.905,0.347,0.112,0.232
2794.0,6.5,6.377,1.849,0.185,0.11,0.241
2797.0,6.5,6.377,1.849,0.185,0.11,0.241
2801.0,6.5,6.377,1.849,0.185,0.11,0.241
2805.0,6.415,6.263,1.872,0.027,0.104,0.237
2808.0,6.415,6.263,1.872,0.027,0.104,0.237
2812.0,6.415,6.263,1.872,0.027,0.104,0.237
2816.0,6.422,6.13,1.905,-0.117,0.086,0.234
2819.0,6.422,6.13,1.905,-0.117,0.086,0.234
2823.0,6.546,5.985,1.939,-0.117,0.061,0.224
2827.0,6.546,5.985,1.939,-0.245,0.061,0.224
2831.0,6.546,5.985,1.939,-0.245,0.061,0.224
2834.0,6.669,5.911,2.014,-0.349,0.039,0.198
2838.0,6.669,5.911,2.014,-0.349,0.039,0.198
2842.0,6.669,5.911,2.014,-0.349,0.039,0.198
2846.0,6.776,5.864,2.15,-0.427,0.017,0.165
2849.0,6.776,5.864,2.15,-0.427,0.017,0.165
2853.0,6.779,5.817,2.268,-0.478,-0.008,0.137
2857.0,6.779,5.817,2.268,-0.478,-0.008,0.137
2861.0,6.779,5.817,2.268,-0.478,-0.008,0.137
2864.0,6.913,5.679,2.376,-0.499,-0.038,0.119
2868.0,6.913,5.679,2.376,-0.499,-0.038,0.119
2872.0,7.107,5.517,2.483,-0.499,-0.038,0.119
2876.0,7.107,5.517,2.483,-0.491,-0.065,0.09
2880.0,7.107,5.517,2.483,-0.491,-0.065,0.09
2884.0,7.193,5.404,2.593,-0.457,-0.081,0.05
2887.0,7.193,5.404,2.593,-0.457,-0.081,0.05
2891.0,7.193,5.404,2.593,-0.457,-0.081,0.05
2895.0,7.176,5.308,2.645,-0.401,-0.094,0.024
2899.0,7.176,5.308,2.645,-0.401,-0.094,0.024
2903.0,7.196,5.228,2.678,-0.32,-0.103,0.007
2906.0,7.196,5.228,2.678,-0.32,-0.103,0.007
2910.0,7.196,5.228,2.678,-0.32,-0.103,0.007
2914.0,7.21,5.155,2.758,-0.21,-0.111,-0.008
2918.0,7.21,5.155,2.758,-0.21,-0.111,-0.008
2922.0,7.208,5.141,2.79,-0.21,-0.121,-0.02
2926.0,7.208,5.141,2.79,-0.073,-0.121,-0.02
2930.0,7.208,5.141,2.79,-0.073,-0.121,-0.02
2934.0,7.161,5.173,2.747,0.084,-0.135,-0.02
2937.0,7.161,5.173,2.747,0.084,-0.135,-0.02
2941.0,7.178,5.178,2.63,0.084,-0.135,-0.02
2945.0,7.178,5.178,2.63,0.251,-0.147,-0.001
2949.0,7.178,5.178,2.63,0.251,-0.147,-0.001
2953.0,7.259,5.173,2.527,0.417,-0.156,0.019
2956.0,7.259,5.173,2.527,0.417,-0.156,0.019
2960.0,7.259,5.173,2.527,0.417,-0.156,0.019
2964.0,7.348,5.23,2.413,0.572,-0.161,0.033
2968.0,7.348,5.23,2.413,0.572,-0.161,0.033
2971.0,7.406,5.347,2.293,0.704,-0.162,0.037
2975.0,7.406,5.347,2.293,0.704,-0.162,0.037
2979.0,7.406,5.347,2.293,0.704,-0.162,0.037
2983.0,7.455,5.518,2.17,0.806,-0.163,0.031
2986.0,7.455,5.518,2.17,0.806,-0.163,0.031
2990.0,7.455,5.518,2.17,0.806,-0.163,0.031
2994.0,7.549,5.763,1.945,0.875,-0.161,0.021
2998.0,7.549,5.763,1.945,0.875,-0.161,0.021
