deltaTime,Acc_X,Acc_Y,Acc_Z,Gyro_X,Gyro_Y,Gyro_Z
0.0,-9.654,-1.509,3.265,0.12,-0.063,0.093
3.0,-9.654,-1.509,3.265,0.12,-0.063,0.093
6.0,-9.527,-1.301,3.234,0.244,-0.056,0.127
9.0,-9.527,-1.301,3.234,0.244,-0.056,0.127
12.0,-9.527,-1.301,3.234,0.244,-0.056,0.127
15.0,-9.42,-0.919,3.136,0.244,-0.05,0.139
18.0,-9.42,-0.919,3.136,0.331,-0.05,0.139
21.0,-9.42,-0.919,3.136,0.331,-0.05,0.139
24.0,-9.42,-0.919,3.136,0.331,-0.05,0.139
27.0,-9.365,-0.543,3.058,0.352,-0.043,0.137
30.0,-9.365,-0.543,3.058,0.352,-0.043,0.137
33.0,-9.365,-0.543,3.058,0.352,-0.043,0.137
36.0,-9.315,-0.364,3.059,0.325,-0.033,0.132
39.0,-9.315,-0.364,3.059,0.325,-0.033,0.132
43.0,-9.315,-0.364,3.059,0.325,-0.033,0.132
47.0,-9.263,-0.393,3.086,0.297,-0.022,0.132
51.0,-9.263,-0.393,3.086,0.297,-0.022,0.132
54.0,-9.277,-0.682,3.202,0.303,-0.012,0.141
58.0,-9.277,-0.682,3.202,0.303,-0.012,0.141
62.0,-9.277,-0.682,3.202,0.303,-0.012,0.141
66.0,-9.285,-0.953,3.185,0.37,0.014,0.167
69.0,-9.285,-0.953,3.185,0.37,0.014,0.167
73.0,-9.285,-0.953,3.185,0.37,0.014,0.167
77.0,-9.117,-1.02,3.048,0.475,0.031,0.193
80.0,-9.117,-1.02,3.048,0.475,0.031,0.193
84.0,-8.861,-0.888,2.826,0.475,0.044,0.199
87.0,-8.861,-0.888,2.826,0.57,0.044,0.199
91.0,-8.861,-0.888,2.826,0.57,0.044,0.199
95.0,-8.753,-0.606,2.614,0.632,0.061,0.191
98.0,-8.753,-0.606,2.614,0.632,0.061,0.191
102.0,-8.753,-0.606,2.614,0.632,0.061,0.191
106.0,-8.83,-0.511,2.379,0.639,0.092,0.185
110.0,-8.83,-0.511,2.379,0.639,0.092,0.185
113.0,-8.918,-0.902,2.224,0.639,0.092,0.194
117.0,-8.918,-0.902,2.224,0.633,0.14,0.194
121.0,-8.918,-0.902,2.224,0.633,0.14,0.194
124.0,-8.974,-1.367,2.292,0.693,0.21,0.229
128.0,-8.974,-1.367,2.292,0.693,0.21,0.229
132.0,-8.974,-1.367,2.292,0.693,0.21,0.229
136.0,-9.193,-1.579,2.57,0.842,0.285,0.274
139.0,-9.193,-1.579,2.57,0.842,0.285,0.274
143.0,-9.508,-1.741,2.707,0.842,0.328,0.319
147.0,-9.508,-1.741,2.707,1.052,0.328,0.319
151.0,-9.508,-1.741,2.707,1.052,0.328,0.319
154.0,-9.499,-1.772,2.786,1.28,0.334,0.351
158.0,-9.499,-1.772,2.786,1.28,0.334,0.351
162.0,-9.499,-1.772,2.786,1.28,0.334,0.351
166.0,-9.386,-1.452,2.786,1.469,0.368,0.35
169.0,-9.386,-1.452,2.786,1.469,0.368,0.35
173.0,-9.2,-0.916,2.596,1.581,0.393,0.31
177.0,-9.2,-0.916,2.596,1.581,0.393,0.31
180.0,-9.2,-0.916,2.596,1.581,0.393,0.31
184.0,-9.085,0.068,2.579,1.583,0.398,0.25
188.0,-9.085,0.068,2.579,1.583,0.398,0.25
191.0,-9.085,0.068,2.579,1.583,0.398,0.25
195.0,-9.288,1.032,2.762,1.465,0.4,0.198
199.0,-9.288,1.032,2.762,1.465,0.4,0.198
202.0,-9.645,1.281,2.861,1.277,0.407,0.173
206.0,-9.645,1.281,2.861,1.277,0.407,0.173
210.0,-9.645,1.281,2.861,1.277,0.407,0.173
213.0,-9.78,1.257,3.034,1.061,0.425,0.166
217.0,-9.78,1.257,3.034,1.061,0.425,0.166
221.0,-9.78,1.257,3.034,1.061,0.425,0.166
224.0,-10.092,1.566,3.606,0.842,0.434,0.187
228.0,-10.092,1.566,3.606,0.842,0.434,0.187
232.0,-10.131,1.472,3.714,0.842,0.434,0.227
235.0,-10.131,1.472,3.714,0.641,0.41,0.227
239.0,-10.131,1.472,3.714,0.641,0.41,0.227
243.0,-9.496,1.375,3.559,0.454,0.375,0.228
247.0,-9.496,1.375,3.559,0.454,0.375,0.228
250.0,-9.496,1.375,3.559,0.454,0.375,0.228
254.0,-9.453,1.823,3.478,0.243,0.367,0.177
258.0,-9.453,1.823,3.478,0.243,0.367,0.177
261.0,-9.654,2.621,3.391,0.243,0.367,0.177
265.0,-9.654,2.621,3.391,-0.061,0.37,0.094
269.0,-9.654,2.621,3.391,-0.061,0.37,0.094
272.0,-9.659,3.351,3.468,-0.491,0.346,0.024
276.0,-9.659,3.351,3.468,-0.491,0.346,0.024
280.0,-9.659,3.351,3.468,-0.491,0.346,0.024
283.0,-9.888,2.535,3.741,-0.978,0.296,-0.007
287.0,-9.888,2.535,3.741,-0.978,0.296,-0.007
291.0,-9.662,0.367,4.049,-0.978,0.258,0.019
295.0,-9.662,0.367,4.049,-1.299,0.258,0.019
299.0,-9.662,0.367,4.049,-1.299,0.258,0.019
302.0,-9.366,-1.704,4.451,-1.304,0.264,0.084
306.0,-9.366,-1.704,4.451,-1.304,0.264,0.084
310.0,-9.366,-1.704,4.568,-1.304,0.264,0.084
314.0,-9.27,-2.713,4.568,-1.016,0.249,0.131
318.0,-9.27,-2.713,4.568,-1.016,0.249,0.131
321.0,-9.611,-2.728,4.505,-0.663,0.226,0.129
325.0,-9.611,-2.728,4.505,-0.663,0.226,0.129
329.0,-9.611,-2.728,4.505,-0.663,0.226,0.129
333.0,-9.912,-1.976,4.289,-0.386,0.181,0.077
337.0,-9.912,-1.976,4.289,-0.386,0.181,0.077
341.0,-10.03,-0.934,4.027,-0.386,0.127,-0.009
345.0,-10.03,-0.934,4.027,-0.253,0.127,-0.009
349.0,-10.03,-0.934,4.027,-0.253,0.127,-0.009
352.0,-9.945,-0.255,3.94,-0.252,0.089,-0.1
356.0,-9.945,-0.255,3.94,-0.252,0.089,-0.1
360.0,-9.867,0.327,3.988,-0.324,0.06,-0.164
364.0,-9.867,0.327,3.988,-0.324,0.06,-0.164
368.0,-9.867,0.327,3.988,-0.324,0.06,-0.164
372.0,-9.788,0.666,3.956,-0.435,0.025,-0.202
376.0,-9.788,0.666,3.956,-0.435,0.025,-0.202
379.0,-9.782,0.713,3.939,-0.435,0.025,-0.202
383.0,-9.782,0.713,3.939,-0.573,-0.007,-0.233
387.0,-9.782,0.713,3.939,-0.573,-0.007,-0.233
391.0,-9.887,0.308,4.293,-0.681,-0.041,-0.259
395.0,-9.887,0.308,4.293,-0.681,-0.041,-0.259
399.0,-9.887,0.308,4.67,-0.681,-0.041,-0.259
403.0,-9.796,-0.708,4.67,-0.709,-0.069,-0.255
407.0,-9.796,-0.708,4.67,-0.709,-0.069,-0.255
411.0,-9.796,-1.532,4.594,-0.615,-0.103,-0.222
415.0,-9.796,-1.532,4.594,-0.615,-0.103,-0.222
419.0,-9.796,-1.532,4.295,-0.615,-0.103,-0.222
423.0,-9.988,-1.542,4.295,-0.469,-0.21,-0.241
427.0,-9.988,-1.542,4.295,-0.469,-0.21,-0.241
431.0,-9.952,-1.43,4.041,-0.378,-0.334,-0.328
435.0,-9.952,-1.43,4.041,-0.378,-0.334,-0.328
439.0,-9.757,-1.287,3.736,-0.378,-0.334,-0.328
443.0,-9.757,-1.287,3.736,-0.343,-0.434,-0.424
447.0,-9.757,-1.287,3.736,-0.343,-0.434,-0.424
451.0,-9.4,-1.191,3.46,-0.345,-0.495,-0.493
455.0,-9.4,-1.191,3.46,-0.345,-0.495,-0.493
459.0,-9.087,-1.162,3.283,-0.345,-0.495,-0.525
463.0,-9.087,-1.162,3.283,-0.356,-0.514,-0.525
467.0,-9.087,-1.162,3.283,-0.356,-0.514,-0.525
471.0,-8.854,-1.241,3.234,-0.356,-0.494,-0.525
475.0,-8.854,-1.241,3.234,-0.356,-0.494,-0.525
479.0,-8.826,-1.342,3.32,-0.356,-0.448,-0.505
483.0,-8.826,-1.342,3.32,-0.338,-0.448,-0.505
487.0,-8.826,-1.342,3.32,-0.338,-0.448,-0.505
491.0,-9.066,-1.552,3.576,-0.306,-0.387,-0.469
495.0,-9.066,-1.552,3.576,-0.306,-0.387,-0.469
499.0,-9.445,-1.826,3.944,-0.248,-0.342,-0.422
503.0,-9.445,-1.826,3.944,-0.248,-0.342,-0.422
507.0,-9.445,-1.826,3.944,-0.248,-0.342,-0.422
511.0,-9.779,-2.089,4.257,-0.163,-0.328,-0.369
515.0,-9.779,-2.089,4.257,-0.163,-0.328,-0.369
519.0,-9.989,-2.31,4.579,-0.049,-0.342,-0.321
523.0,-9.989,-2.31,4.579,-0.049,-0.342,-0.321
527.0,-9.989,-2.31,4.579,-0.049,-0.342,-0.321
531.0,-10.193,-2.669,4.897,0.091,-0.38,-0.289
535.0,-10.193,-2.669,4.897,0.091,-0.38,-0.289
539.0,-10.275,-3.066,5.045,0.256,-0.43,-0.288
543.0,-10.275,-3.066,5.045,0.256,-0.43,-0.288
547.0,-10.275,-3.066,5.045,0.256,-0.43,-0.288
550.0,-10.06,-3.277,5.018,0.448,-0.477,-0.319
554.0,-10.06,-3.277,5.018,0.448,-0.477,-0.319
558.0,-9.68,-3.314,4.912,0.658,-0.509,-0.375
562.0,-9.68,-3.314,4.912,0.658,-0.509,-0.375
566.0,-9.68,-3.314,4.912,0.658,-0.509,-0.375
570.0,-9.395,-3.141,4.841,0.872,-0.521,-0.434
574.0,-9.395,-3.141,4.841,0.872,-0.521,-0.434
578.0,-9.3,-2.826,4.936,1.085,-0.518,-0.474
582.0,-9.3,-2.826,4.936,1.085,-0.518,-0.474
586.0,-9.3,-2.826,4.936,1.085,-0.518,-0.474
590.0,-9.431,-2.637,5.114,1.285,-0.527,-0.486
594.0,-9.431,-2.637,5.114,1.285,-0.527,-0.486
598.0,-9.654,-2.616,5.261,1.453,-0.57,-0.483
601.0,-9.654,-2.616,5.261,1.453,-0.57,-0.483
605.0,-9.654,-2.616,5.261,1.453,-0.57,-0.483
609.0,-9.866,-2.664,5.608,1.576,-0.64,-0.492
613.0,-9.866,-2.664,5.608,1.576,-0.64,-0.492
617.0,-9.907,-2.687,6.053,1.658,-0.735,-0.525
621.0,-9.907,-2.687,6.053,1.658,-0.735,-0.525
625.0,-9.907,-2.687,6.053,1.658,-0.735,-0.525
629.0,-9.834,-2.684,6.411,1.691,-0.851,-0.578
633.0,-9.834,-2.684,6.411,1.691,-0.851,-0.578
637.0,-9.732,-2.7,6.768,1.691,-0.971,-0.643
641.0,-9.732,-2.7,6.768,1.669,-0.971,-0.643
644.0,-9.732,-2.7,6.768,1.669,-0.971,-0.643
648.0,-9.756,-2.723,7.158,1.61,-1.083,-0.724
652.0,-9.756,-2.723,7.158,1.61,-1.083,-0.724
656.0,-9.983,-2.691,7.584,1.61,-1.083,-0.82
660.0,-9.983,-2.691,7.584,1.543,-1.187,-0.82
664.0,-9.983,-2.691,7.584,1.543,-1.187,-0.82
668.0,-10.336,-2.59,7.959,1.499,-1.307,-0.92
672.0,-10.336,-2.59,7.959,1.499,-1.307,-0.92
676.0,-10.651,-2.403,8.107,1.499,-1.307,-1.005
680.0,-10.651,-2.403,8.107,1.492,-1.447,-1.005
684.0,-10.651,-2.403,8.107,1.492,-1.447,-1.005
688.0,-10.796,-2.237,8.219,1.519,-1.596,-1.059
692.0,-10.796,-2.237,8.219,1.519,-1.596,-1.059
696.0,-10.956,-2.28,8.489,1.519,-1.759,-1.083
700.0,-10.956,-2.28,8.489,1.573,-1.759,-1.083
704.0,-10.956,-2.28,8.489,1.573,-1.759,-1.083
708.0,-11.291,-2.442,8.875,1.65,-1.946,-1.09
712.0,-11.291,-2.442,8.875,1.65,-1.946,-1.09
716.0,-11.732,-2.611,9.259,1.742,-2.157,-1.093
720.0,-11.732,-2.611,9.259,1.742,-2.157,-1.093
724.0,-11.732,-2.611,9.259,1.742,-2.157,-1.093
728.0,-12.147,-2.799,9.698,1.836,-2.388,-1.093
732.0,-12.147,-2.799,9.698,1.836,-2.388,-1.093
736.0,-12.374,-2.996,10.127,1.932,-2.632,-1.096
740.0,-12.374,-2.996,10.127,1.932,-2.632,-1.096
744.0,-12.374,-2.996,10.127,1.932,-2.632,-1.096
748.0,-12.448,-3.291,10.535,2.052,-2.871,-1.113
752.0,-12.448,-3.291,10.535,2.052,-2.871,-1.113
756.0,-12.506,-3.821,10.902,2.24,-3.107,-1.145
760.0,-12.506,-3.821,10.902,2.24,-3.107,-1.145
764.0,-12.506,-4.495,11.395,2.24,-3.107,-1.145
768.0,-12.723,-4.495,11.395,2.537,-3.325,-1.182
772.0,-12.723,-4.495,11.395,2.537,-3.325,-1.182
777.0,-13.211,-4.933,12.073,2.948,-3.537,-1.204
781.0,-13.211,-4.933,12.073,2.948,-3.537,-1.204
785.0,-13.76,-4.759,12.511,3.429,-3.77,-1.18
789.0,-13.76,-4.759,12.511,3.429,-3.77,-1.18
793.0,-13.76,-4.759,12.511,3.429,-3.77,-1.18
797.0,-14.013,-4.183,12.649,3.9,-4.035,-1.09
801.0,-14.013,-4.183,12.649,3.9,-4.035,-1.09
805.0,-13.723,-3.413,12.697,4.28,-4.306,-0.956
809.0,-13.723,-3.413,12.697,4.28,-4.306,-0.956
813.0,-13.723,-3.413,12.697,4.28,-4.306,-0.956
817.0,-12.971,-2.56,12.49,4.504,-4.547,-0.821
821.0,-12.971,-2.56,12.49,4.504,-4.547,-0.821
825.0,-12.123,-1.749,12.37,4.537,-4.749,-0.717
830.0,-12.123,-1.749,12.37,4.537,-4.749,-0.717
834.0,-11.484,-0.997,12.351,4.537,-4.749,-0.717
838.0,-11.484,-0.997,12.351,4.393,-4.918,-0.663
842.0,-11.484,-0.997,12.351,4.393,-4.918,-0.663
846.0,-10.907,-0.514,12.273,4.104,-4.99,-0.658
850.0,-10.907,-0.514,12.273,4.104,-4.99,-0.658
854.0,-10.594,-0.15,12.12,3.696,-4.992,-0.693
858.0,-10.594,-0.15,12.12,3.696,-4.992,-0.693
862.0,-10.594,-0.15,12.12,3.696,-4.992,-0.693
866.0,-9.895,0.25,11.781,3.274,-4.992,-0.748
870.0,-9.895,0.25,11.781,3.274,-4.992,-0.748
874.0,-9.128,0.44,11.405,2.878,-4.992,-0.819
878.0,-9.128,0.44,11.405,2.878,-4.992,-0.819
882.0,-9.128,0.44,11.405,2.878,-4.992,-0.819
886.0,-8.449,0.416,11.276,2.57,-4.992,-0.898
890.0,-8.449,0.416,11.276,2.57,-4.992,-0.898
894.0,-7.959,-0.041,11.266,2.391,-4.992,-0.967
898.0,-7.959,-0.041,11.266,2.391,-4.992,-0.967
902.0,-7.959,-0.041,11.266,2.391,-4.992,-0.967
906.0,-7.355,-0.673,11.157,2.337,-4.992,-1.026
910.0,-7.355,-0.673,11.157,2.337,-4.992,-1.026
914.0,-6.683,-1.405,11.033,2.373,-4.992,-1.072
918.0,-6.683,-1.405,11.033,2.373,-4.992,-1.072
922.0,-6.683,-1.405,11.033,2.373,-4.992,-1.072
926.0,-6.198,-2.022,10.78,2.485,-4.992,-1.103
930.0,-6.198,-2.022,10.78,2.485,-4.992,-1.103
934.0,-5.569,-2.397,10.124,2.688,-4.992,-1.109
938.0,-5.569,-2.397,10.124,2.688,-4.992,-1.109
942.0,-5.569,-2.397,10.124,2.688,-4.992,-1.109
946.0,-5.023,-2.566,9.567,2.935,-4.992,-1.125
949.0,-5.023,-2.566,9.567,2.935,-4.992,-1.125
953.0,-4.988,-2.61,8.859,3.204,-4.992,-1.196
957.0,-4.988,-2.61,8.859,3.204,-4.992,-1.196
961.0,-4.988,-2.61,8.859,3.204,-4.992,-1.196
965.0,-4.796,-2.271,7.655,3.476,-4.992,-1.289
969.0,-4.796,-2.271,7.655,3.476,-4.992,-1.289
973.0,-4.103,-1.71,6.297,3.698,-4.975,-1.341
977.0,-4.103,-1.71,6.297,3.698,-4.975,-1.341
981.0,-4.103,-1.71,6.297,3.698,-4.975,-1.341
985.0,-3.327,-1.251,5.049,3.823,-4.885,-1.331
989.0,-3.327,-1.251,5.049,3.823,-4.885,-1.331
992.0,-2.643,-0.776,4.102,3.827,-4.733,-1.293
996.0,-2.643,-0.776,4.102,3.827,-4.733,-1.293
1000.0,-2.643,-0.776,4.102,3.827,-4.733,-1.293
1004.0,-2.204,-0.345,3.49,3.707,-4.55,-1.255
1008.0,-2.204,-0.345,3.49,3.707,-4.55,-1.255
1012.0,-1.953,-0.035,3.081,3.488,-4.359,-1.227
1016.0,-1.953,-0.035,3.081,3.488,-4.359,-1.227
1020.0,-1.953,-0.035,3.081,3.488,-4.359,-1.227
1024.0,-1.783,0.086,2.747,3.23,-4.18,-1.219
1028.0,-1.783,0.086,2.747,3.23,-4.18,-1.219
1032.0,-1.565,0.117,2.454,2.972,-4.005,-1.238
1036.0,-1.565,0.117,2.454,2.972,-4.005,-1.238
1040.0,-1.565,0.117,2.454,2.972,-4.005,-1.238
1044.0,-1.239,0.352,2.239,2.739,-3.822,-1.287
1048.0,-1.239,0.352,2.239,2.739,-3.822,-1.287
1052.0,-0.966,0.727,2.003,2.548,-3.626,-1.339
1055.0,-0.966,0.727,2.003,2.548,-3.626,-1.339
1059.0,-0.966,0.727,2.003,2.548,-3.626,-1.339
1063.0,-0.651,0.955,1.788,2.417,-3.423,-1.356
1067.0,-0.651,0.955,1.788,2.417,-3.423,-1.356
1071.0,-0.34,1.046,1.488,2.368,-3.217,-1.33
1075.0,-0.34,1.046,1.488,2.368,-3.217,-1.33
1079.0,-0.34,1.046,1.488,2.368,-3.217,-1.33
1083.0,0.092,1.222,1.192,2.398,-3.011,-1.265
1087.0,0.092,1.222,1.192,2.398,-3.011,-1.265
1090.0,0.543,1.703,1.071,2.398,-3.011,-1.185
1094.0,0.543,1.703,1.071,2.485,-2.796,-1.185
1098.0,0.543,1.703,1.071,2.485,-2.796,-1.185
1102.0,0.907,2.722,1.053,2.601,-2.577,-1.105
1106.0,0.907,2.722,1.053,2.601,-2.577,-1.105
1110.0,0.907,2.722,1.114,2.601,-2.577,-1.105
1113.0,1.158,4.067,1.114,2.714,-2.364,-1.018
1117.0,1.158,4.067,1.114,2.714,-2.364,-1.018
1121.0,1.556,5.513,1.162,2.794,-2.164,-0.915
1125.0,1.556,5.513,1.162,2.794,-2.164,-0.915
1129.0,1.556,5.513,1.162,2.794,-2.164,-0.915
1132.0,2.042,7.05,1.305,2.828,-1.963,-0.794
1136.0,2.042,7.05,1.305,2.828,-1.963,-0.794
1140.0,2.566,8.615,1.533,2.82,-1.766,-0.655
1144.0,2.566,8.615,1.533,2.82,-1.766,-0.655
1148.0,2.566,8.615,1.533,2.82,-1.766,-0.655
1152.0,3.234,9.979,1.796,2.774,-1.588,-0.508
1155.0,3.234,9.979,1.796,2.774,-1.588,-0.508
1159.0,3.932,11.162,1.98,2.774,-1.588,-0.508
1163.0,3.932,11.162,1.98,2.698,-1.427,-0.37
1167.0,3.932,11.162,1.98,2.698,-1.427,-0.37
1171.0,4.591,12.363,2.088,2.617,-1.267,-0.251
1175.0,4.591,12.363,2.088,2.617,-1.267,-0.251
1179.0,4.591,12.363,2.189,2.617,-1.267,-0.251
1183.0,5.096,13.693,2.189,2.573,-1.092,-0.137
1187.0,5.096,13.693,2.189,2.573,-1.092,-0.137
1190.0,5.78,14.782,2.258,2.568,-0.899,0.025
1194.0,5.78,14.782,2.258,2.568,-0.899,0.025
1198.0,5.78,14.782,2.258,2.568,-0.899,0.025
1202.0,6.126,15.065,1.982,2.581,-0.724,0.214
1206.0,6.126,15.065,1.982,2.581,-0.724,0.214
1210.0,7.097,15.445,2.189,2.623,-0.634,0.387
1213.0,7.097,15.445,2.189,2.623,-0.634,0.387
1217.0,7.097,15.445,2.189,2.623,-0.634,0.387
1221.0,7.544,15.732,2.518,2.663,-0.486,0.521
1225.0,7.544,15.732,2.518,2.663,-0.486,0.521
1229.0,7.871,15.977,2.882,2.663,-0.486,0.646
1232.0,7.871,15.977,2.882,2.717,-0.345,0.646
1236.0,7.871,15.977,2.882,2.717,-0.345,0.646
1240.0,8.163,15.998,3.038,2.773,-0.215,0.767
1244.0,8.163,15.998,3.038,2.773,-0.215,0.767
1248.0,8.163,15.998,2.78,2.773,-0.215,0.767
1252.0,8.45,15.681,2.78,2.823,-0.077,0.866
1255.0,8.45,15.681,2.78,2.823,-0.077,0.866
1259.0,8.792,15.45,2.135,2.857,0.086,0.917
1263.0,8.792,15.45,2.135,2.857,0.086,0.917
1267.0,8.792,15.45,2.135,2.857,0.086,0.917
1270.0,9.402,15.713,0.896,2.866,0.286,0.944
1274.0,9.402,15.713,0.896,2.866,0.286,0.944
1278.0,10.424,16.238,-0.804,2.866,0.286,1.0
1282.0,10.424,16.238,-0.804,2.843,0.553,1.0
1286.0,10.424,16.238,-0.804,2.843,0.553,1.0
1290.0,11.274,16.232,-1.956,2.734,0.912,1.107
1293.0,11.274,16.232,-1.956,2.734,0.912,1.107
1297.0,11.25,15.208,-1.868,2.734,0.912,1.107
1301.0,11.25,15.208,-1.868,2.59,1.318,1.301
1305.0,11.25,15.208,-1.868,2.59,1.318,1.301
1309.0,10.208,13.93,-1.401,2.516,1.709,1.559
1313.0,10.208,13.93,-1.401,2.516,1.709,1.559
1317.0,10.208,13.93,-0.692,2.516,1.709,1.559
1321.0,8.771,12.651,-0.692,2.555,2.053,1.9
1325.0,8.771,12.651,-0.692,2.555,2.053,1.9
1328.0,7.366,11.771,-0.22,2.682,2.331,2.309
1332.0,7.366,11.771,-0.22,2.682,2.331,2.309
1336.0,7.366,11.771,-0.22,2.682,2.331,2.309
1340.0,6.366,11.331,-0.81,2.825,2.558,2.766
1344.0,6.366,11.331,-0.81,2.825,2.558,2.766
1348.0,5.534,10.784,-1.64,2.86,2.805,3.236
1351.0,5.534,10.784,-1.64,2.86,2.805,3.236
1355.0,5.534,10.784,-1.64,2.86,2.805,3.236
1359.0,4.755,10.303,-2.742,2.706,3.039,3.66
1363.0,4.755,10.303,-2.742,2.706,3.039,3.66
1367.0,4.035,9.866,-3.957,2.706,3.039,3.66
1370.0,4.035,9.866,-3.957,2.367,3.288,4.059
1374.0,4.035,9.866,-3.957,2.367,3.288,4.059
1378.0,2.591,8.74,-3.997,1.913,3.569,4.436
1382.0,2.591,8.74,-3.997,1.913,3.569,4.436
1385.0,2.591,8.74,-3.997,1.913,3.569,4.436
1389.0,0.377,6.958,-2.953,1.396,3.815,4.753
1393.0,0.377,6.958,-2.953,1.396,3.815,4.753
1396.0,-2.664,5.091,-1.611,1.396,3.99,4.951
1400.0,-2.664,5.091,-1.611,0.856,3.99,4.951
1404.0,-2.664,5.091,-1.611,0.856,3.99,4.951
1408.0,-6.19,3.678,-0.571,0.276,4.065,5.006
1412.0,-6.19,3.678,-0.571,0.276,4.065,5.006
1416.0,-6.19,3.678,-0.133,0.276,4.065,5.006
1419.0,-9.155,2.703,-0.133,-0.371,4.016,4.978
1423.0,-9.155,2.703,-0.133,-0.371,4.016,4.978
1427.0,-10.275,1.541,-0.029,-1.07,3.873,4.861
1431.0,-10.275,1.541,-0.029,-1.07,3.873,4.861
1435.0,-10.275,1.541,-0.091,-1.07,3.873,4.861
1439.0,-10.111,0.193,-0.091,-1.74,3.677,4.654
1443.0,-10.111,0.193,-0.091,-1.74,3.677,4.654
1447.0,-9.995,-1.296,0.085,-2.249,3.391,4.371
1451.0,-9.995,-1.296,0.085,-2.249,3.391,4.371
1455.0,-9.995,-1.296,1.518,-2.249,3.391,4.371
1459.0,-10.841,-3.762,1.518,-2.442,2.942,4.03
1463.0,-10.841,-3.762,1.518,-2.442,2.942,4.03
1467.0,-11.597,-6.486,3.226,-2.21,2.265,3.569
1471.0,-11.597,-6.486,3.226,-2.21,2.265,3.569
1475.0,-11.597,-7.954,3.612,-2.21,2.265,3.569
1479.0,-10.683,-7.954,3.612,-1.621,1.402,2.929
1483.0,-10.683,-7.954,3.612,-1.621,1.402,2.929
1487.0,-7.742,-7.533,2.589,-0.956,0.492,2.106
1491.0,-7.742,-7.533,2.589,-0.956,0.492,2.106
1495.0,-7.742,-6.017,1.754,-0.956,0.492,2.106
1499.0,-4.352,-6.017,1.754,-0.49,-0.283,1.148
1503.0,-4.352,-6.017,1.754,-0.49,-0.283,1.148
1507.0,-2.355,-4.277,1.806,-0.317,-0.877,0.143
1511.0,-2.355,-4.277,1.806,-0.317,-0.877,0.143
1515.0,-1.457,-2.907,2.052,-0.317,-0.877,0.143
1519.0,-1.457,-2.907,2.052,-0.383,-1.348,-0.771
1523.0,-1.457,-2.907,2.052,-0.383,-1.348,-0.771
1527.0,-1.009,-2.092,2.318,-0.575,-1.709,-1.516
1531.0,-1.009,-2.092,2.318,-0.575,-1.709,-1.516
1535.0,-0.734,-1.667,2.417,-0.79,-1.992,-2.096
1539.0,-0.734,-1.667,2.417,-0.79,-1.992,-2.096
1543.0,-0.734,-1.667,2.417,-0.79,-1.992,-2.096
1547.0,-0.497,-1.482,2.454,-0.96,-2.216,-2.527
1551.0,-0.497,-1.482,2.454,-0.96,-2.216,-2.527
1555.0,-0.083,-1.613,2.508,-1.045,-2.376,-2.835
1559.0,-0.083,-1.613,2.508,-1.045,-2.376,-2.835
1563.0,-0.083,-1.613,2.508,-1.045,-2.376,-2.835
1567.0,0.28,-1.796,2.712,-1.019,-2.49,-3.071
1571.0,0.28,-1.796,2.712,-1.019,-2.49,-3.071
1575.0,0.561,-1.63,2.619,-0.884,-2.586,-3.27
1579.0,0.561,-1.63,2.619,-0.884,-2.586,-3.27
1583.0,0.561,-0.741,2.575,-0.884,-2.586,-3.27
1587.0,0.944,-0.741,2.575,-0.646,-2.652,-3.424
1591.0,0.944,-0.741,2.575,-0.646,-2.652,-3.424
1595.0,1.467,0.331,2.774,-0.313,-2.702,-3.49
1599.0,1.467,0.331,2.774,-0.313,-2.702,-3.49
1603.0,1.467,1.435,2.724,-0.313,-2.702,-3.49
1607.0,2.353,1.435,2.724,0.091,-2.759,-3.49
1611.0,2.353,1.435,2.724,0.091,-2.759,-3.49
1615.0,3.401,2.512,2.446,0.521,-2.795,-3.455
1619.0,3.401,2.512,2.446,0.521,-2.795,-3.455
1622.0,3.401,2.512,2.446,0.521,-2.795,-3.455
1626.0,4.636,3.495,2.088,0.917,-2.805,-3.407
1630.0,4.636,3.495,2.088,0.917,-2.805,-3.407
1634.0,5.807,4.671,1.644,1.257,-2.778,-3.372
1638.0,5.807,4.671,1.644,1.257,-2.778,-3.372
1642.0,5.807,4.671,1.644,1.257,-2.778,-3.372
1645.0,6.982,6.297,0.856,1.523,-2.736,-3.334
1649.0,6.982,6.297,0.856,1.523,-2.736,-3.334
1653.0,8.231,8.373,-0.38,1.523,-2.736,-3.255
1657.0,8.231,8.373,-0.38,1.7,-2.665,-3.255
1661.0,8.231,8.373,-0.38,1.7,-2.665,-3.255
1665.0,9.496,10.405,-1.762,1.799,-2.567,-3.08
1669.0,9.496,10.405,-1.762,1.799,-2.567,-3.08
1673.0,10.449,11.756,-2.759,1.799,-2.567,-2.837
1677.0,10.449,11.756,-2.759,1.801,-2.442,-2.837
1681.0,10.449,11.756,-2.759,1.801,-2.442,-2.837
1685.0,10.794,12.946,-3.247,1.706,-2.312,-2.604
1689.0,10.794,12.946,-3.247,1.706,-2.312,-2.604
1693.0,10.92,14.411,-3.754,1.528,-2.207,-2.39
1697.0,10.92,14.411,-3.754,1.528,-2.207,-2.39
1701.0,10.92,14.411,-3.754,1.528,-2.207,-2.39
1705.0,11.249,15.983,-4.519,1.304,-2.106,-2.154
1709.0,11.249,15.983,-4.519,1.304,-2.106,-2.154
1714.0,12.132,17.091,-5.642,1.069,-1.983,-1.864
1718.0,12.132,17.091,-5.642,1.069,-1.983,-1.864
1722.0,12.132,17.427,-6.689,1.069,-1.983,-1.864
1726.0,13.311,17.427,-6.689,0.848,-1.792,-1.555
1730.0,13.311,17.427,-6.689,0.848,-1.792,-1.555
1734.0,14.567,17.854,-7.473,0.675,-1.552,-1.286
1738.0,14.567,17.854,-7.473,0.675,-1.552,-1.286
1742.0,15.551,18.935,-8.835,0.675,-1.247,-1.04
1746.0,15.551,18.935,-8.835,0.562,-1.247,-1.04
1750.0,15.551,18.935,-8.835,0.562,-1.247,-1.04
1754.0,16.765,19.591,-10.905,0.527,-0.855,-0.739
1758.0,16.765,19.591,-10.905,0.527,-0.855,-0.739
1763.0,18.177,19.596,-12.964,0.58,-0.339,-0.35
1767.0,18.177,19.596,-12.964,0.58,-0.339,-0.35
1771.0,18.177,19.596,-14.209,0.58,-0.339,-0.35
1775.0,19.044,19.596,-14.209,0.686,0.292,0.128
1779.0,19.044,19.596,-14.209,0.686,0.292,0.128
1783.0,18.903,19.596,-14.079,0.784,0.968,0.667
1787.0,18.903,19.596,-14.079,0.784,0.968,0.667
1791.0,18.285,19.596,-14.264,0.784,0.968,1.255
1795.0,18.285,19.596,-14.264,0.855,1.625,1.255
1799.0,18.285,19.596,-14.264,0.855,1.625,1.255
1803.0,18.046,19.596,-14.924,0.931,2.292,1.917
1807.0,18.046,19.596,-14.924,0.931,2.292,1.917
1811.0,18.002,19.596,-15.09,0.931,3.003,2.664
1815.0,18.002,19.596,-15.09,1.025,3.003,2.664
1819.0,18.002,19.596,-15.09,1.025,3.003,2.664
1823.0,17.471,19.596,-13.961,1.083,3.732,3.45
1827.0,17.471,19.596,-13.961,1.083,3.732,3.45
1831.0,15.922,19.596,-12.198,1.041,4.421,4.169
1835.0,15.922,19.596,-12.198,1.041,4.421,4.169
1839.0,15.922,19.596,-12.198,1.041,4.421,4.169
1843.0,13.347,19.595,-10.482,0.861,4.932,4.77
1847.0,13.347,19.595,-10.482,0.861,4.932,4.77
1851.0,10.208,18.639,-8.718,0.513,5.015,5.008
1855.0,10.208,18.639,-8.718,0.513,5.015,5.008
1859.0,10.208,18.639,-8.718,0.513,5.015,5.008
1863.0,6.623,15.728,-6.663,-0.011,5.015,5.013
1867.0,6.623,15.728,-6.663,-0.011,5.015,5.013
1871.0,2.39,12.809,-4.504,-0.675,5.015,5.013
1874.0,2.39,12.809,-4.504,-0.675,5.015,5.013
1878.0,2.39,12.809,-4.504,-0.675,5.015,5.013
1882.0,-2.801,10.41,-2.315,-1.432,5.015,5.013
1886.0,-2.801,10.41,-2.315,-1.432,5.015,5.013
1890.0,-8.192,8.328,0.156,-2.339,5.015,5.013
1894.0,-8.192,8.328,0.156,-2.339,5.015,5.013
1898.0,-8.192,8.328,0.156,-2.339,5.015,5.013
1902.0,-14.085,6.093,1.792,-3.391,5.015,5.013
1906.0,-14.085,6.093,1.792,-3.391,5.015,5.013
1910.0,-19.46,2.104,3.441,-3.391,5.015,5.013
1913.0,-19.46,2.104,3.441,-4.445,4.978,5.013
1917.0,-19.46,2.104,3.441,-4.445,4.978,5.013
1921.0,-19.6,-4.568,3.249,-4.983,4.241,4.876
1925.0,-19.6,-4.568,3.249,-4.983,4.241,4.876
1929.0,-19.6,-9.906,5.687,-4.983,4.241,4.876
1933.0,-19.6,-9.906,5.687,-5.013,2.815,3.968
1937.0,-19.6,-9.906,5.687,-5.013,2.815,3.968
1941.0,-16.091,-12.24,6.256,-4.981,1.397,2.862
1945.0,-16.091,-12.24,6.256,-4.981,1.397,2.862
1949.0,-8.503,-13.184,4.869,-4.531,0.359,1.887
1953.0,-8.503,-13.184,4.869,-4.531,0.359,1.887
1957.0,-8.503,-13.184,4.869,-4.531,0.359,1.887
1961.0,-3.867,-12.992,4.046,-3.71,-0.324,0.885
1965.0,-3.867,-12.992,4.046,-3.71,-0.324,0.885
1969.0,-1.151,-11.657,4.174,-2.827,-0.836,-0.078
1974.0,-1.151,-11.657,4.174,-2.827,-0.836,-0.078
1978.0,-1.151,-11.657,4.174,-2.827,-0.836,-0.078
1982.0,1.033,-9.646,3.997,-1.931,-1.233,-0.834
1986.0,1.033,-9.646,3.997,-1.931,-1.233,-0.834
1990.0,3.354,-7.601,3.442,-1.075,-1.446,-1.293
1994.0,3.354,-7.601,3.442,-1.075,-1.446,-1.293
1998.0,3.354,-5.925,2.885,-1.075,-1.446,-1.293
2002.0,5.672,-5.925,2.885,-0.311,-1.453,-1.472
2006.0,5.672,-5.925,2.885,-0.311,-1.453,-1.472
2010.0,7.945,-4.28,2.238,0.335,-1.335,-1.469
2014.0,7.945,-4.28,2.238,0.335,-1.335,-1.469
2018.0,7.945,-2.837,1.438,0.335,-1.335,-1.469
2022.0,10.132,-2.837,1.438,0.851,-1.153,-1.371
2026.0,10.132,-2.837,1.438,0.851,-1.153,-1.371
2030.0,12.214,-1.612,0.903,1.22,-0.902,-1.252
2034.0,12.214,-1.612,0.903,1.22,-0.902,-1.252
2038.0,13.753,-0.623,0.908,1.22,-0.902,-1.252
2042.0,13.753,-0.623,0.908,1.449,-0.607,-1.159
2046.0,13.753,-0.623,0.908,1.449,-0.607,-1.159
2050.0,14.2,0.437,1.167,1.563,-0.332,-1.107
2054.0,14.2,0.437,1.167,1.563,-0.332,-1.107
2057.0,13.086,1.519,1.423,1.563,-0.332,-1.107
2061.0,13.086,1.519,1.423,1.583,-0.115,-1.064
2065.0,13.086,1.519,1.423,1.583,-0.115,-1.064
2069.0,11.095,2.546,1.889,1.529,0.015,-1.008
2073.0,11.095,2.546,1.889,1.529,0.015,-1.008
2077.0,11.095,2.546,2.208,1.529,0.015,-1.008
2081.0,9.307,3.071,2.208,1.436,0.047,-0.946
2084.0,9.307,3.071,2.208,1.436,0.047,-0.946
2088.0,7.804,3.166,2.406,1.316,0.0,-0.924
2092.0,7.804,3.166,2.406,1.316,0.0,-0.924
2096.0,7.804,3.166,2.406,1.316,0.0,-0.924
2099.0,6.614,3.095,2.422,1.176,-0.129,-0.972
2103.0,6.614,3.095,2.422,1.176,-0.129,-0.972
2107.0,5.717,2.906,2.192,1.176,-0.129,-1.097
2111.0,5.717,2.906,2.192,1.025,-0.332,-1.097
2115.0,5.717,2.906,2.192,1.025,-0.332,-1.097
2118.0,4.944,2.76,1.796,0.861,-0.56,-1.269
2122.0,4.944,2.76,1.796,0.861,-0.56,-1.269
2126.0,4.944,2.76,1.796,0.861,-0.56,-1.269
2130.0,4.329,2.614,1.321,0.69,-0.745,-1.447
2134.0,4.329,2.614,1.321,0.69,-0.745,-1.447
2137.0,3.858,2.432,0.924,0.528,-0.867,-1.616
2141.0,3.858,2.432,0.924,0.528,-0.867,-1.616
2145.0,3.858,2.432,0.924,0.528,-0.867,-1.616
2149.0,3.612,2.343,0.636,0.398,-0.939,-1.785
2153.0,3.612,2.343,0.636,0.398,-0.939,-1.785
2157.0,3.579,2.414,0.695,0.398,-0.977,-1.953
2160.0,3.579,2.414,0.695,0.311,-0.977,-1.953
2164.0,3.579,2.414,0.695,0.311,-0.977,-1.953
2168.0,3.703,2.532,0.936,0.269,-1.023,-2.103
2172.0,3.703,2.532,0.936,0.269,-1.023,-2.103
2176.0,3.703,2.574,0.98,0.269,-1.023,-2.103
2179.0,3.901,2.574,0.98,0.26,-1.09,-2.218
2183.0,3.901,2.574,0.98,0.26,-1.09,-2.218
2187.0,3.932,2.655,0.718,0.259,-1.136,-2.292
2191.0,3.932,2.655,0.718,0.259,-1.136,-2.292
2195.0,3.932,2.655,0.718,0.259,-1.136,-2.292
2199.0,3.779,2.766,0.325,0.244,-1.156,-2.325
2202.0,3.779,2.766,0.325,0.244,-1.156,-2.325
2206.0,3.611,2.78,-0.113,0.202,-1.173,-2.34
2210.0,3.611,2.78,-0.113,0.202,-1.173,-2.34
2214.0,3.611,2.78,-0.113,0.202,-1.173,-2.34
2218.0,3.314,2.796,-0.486,0.108,-1.184,-2.364
2222.0,3.314,2.796,-0.486,0.108,-1.184,-2.364
2226.0,2.961,2.87,-0.739,-0.058,-1.171,-2.407
2230.0,2.961,2.87,-0.739,-0.058,-1.171,-2.407
2234.0,2.961,2.87,-0.739,-0.058,-1.171,-2.407
2238.0,2.495,2.971,-0.834,-0.288,-1.127,-2.473
2242.0,2.495,2.971,-0.834,-0.288,-1.127,-2.473
2246.0,2.039,3.05,-0.973,-0.555,-1.065,-2.547
2250.0,2.039,3.05,-0.973,-0.555,-1.065,-2.547
2254.0,2.039,3.05,-0.973,-0.555,-1.065,-2.547
2258.0,1.832,3.037,-1.101,-0.829,-0.977,-2.62
2262.0,1.832,3.037,-1.101,-0.829,-0.977,-2.62
2266.0,1.847,2.846,-1.05,-1.078,-0.856,-2.699
2270.0,1.847,2.846,-1.05,-1.078,-0.856,-2.699
2274.0,1.847,2.846,-1.05,-1.078,-0.856,-2.699
2278.0,1.995,2.502,-0.991,-1.281,-0.717,-2.779
2282.0,1.995,2.502,-0.991,-1.281,-0.717,-2.779
2286.0,2.186,2.138,-0.947,-1.435,-0.558,-2.85
2290.0,2.186,2.138,-0.947,-1.435,-0.558,-2.85
2294.0,2.186,2.138,-0.947,-1.435,-0.558,-2.85
2298.0,2.288,1.877,-0.952,-1.555,-0.378,-2.907
2302.0,2.288,1.877,-0.952,-1.555,-0.378,-2.907
2306.0,2.399,1.677,-0.913,-1.66,-0.182,-2.939
2310.0,2.399,1.677,-0.913,-1.66,-0.182,-2.939
2314.0,2.399,1.677,-0.843,-1.66,-0.182,-2.939
2318.0,2.518,1.501,-0.843,-1.756,0.022,-2.953
2321.0,2.518,1.501,-0.843,-1.756,0.022,-2.953
2325.0,2.82,1.29,-0.79,-1.846,0.236,-2.971
2329.0,2.82,1.29,-0.79,-1.846,0.236,-2.971
2333.0,2.82,1.29,-0.79,-1.846,0.236,-2.971
2337.0,3.081,1.122,-0.668,-1.924,0.481,-3.017
2341.0,3.081,1.122,-0.668,-1.924,0.481,-3.017
2345.0,3.195,1.088,-0.602,-1.995,0.734,-3.063
2349.0,3.195,1.088,-0.602,-1.995,0.734,-3.063
2353.0,3.195,1.088,-0.602,-1.995,0.734,-3.063
2357.0,3.389,1.125,-0.745,-2.08,0.994,-3.079
2361.0,3.389,1.125,-0.745,-2.08,0.994,-3.079
2364.0,3.995,1.451,-0.939,-2.206,1.287,-3.065
2368.0,3.995,1.451,-0.939,-2.206,1.287,-3.065
2372.0,3.995,1.451,-0.939,-2.206,1.287,-3.065
2376.0,4.606,2.148,-1.124,-2.421,1.622,-3.014
2380.0,4.606,2.148,-1.124,-2.421,1.622,-3.014
2384.0,5.13,2.937,-1.496,-2.78,1.991,-2.903
2388.0,5.13,2.937,-1.496,-2.78,1.991,-2.903
2392.0,5.13,2.937,-1.496,-2.78,1.991,-2.903
2396.0,6.102,3.744,-1.934,-3.312,2.43,-2.762
2400.0,6.102,3.744,-1.934,-3.312,2.43,-2.762
2404.0,7.314,4.892,-2.268,-4.017,2.977,-2.683
2407.0,7.314,4.892,-2.268,-4.017,2.977,-2.683
2411.0,7.314,4.892,-2.268,-4.017,2.977,-2.683
2415.0,7.576,6.006,-2.798,-4.784,3.588,-2.657
2419.0,7.576,6.006,-2.798,-4.784,3.588,-2.657
2423.0,6.4,6.4,-3.557,-4.784,4.215,-2.611
2427.0,6.4,6.4,-3.557,-5.012,4.215,-2.611
2431.0,6.4,6.4,-3.557,-5.012,4.215,-2.611
2435.0,3.701,5.538,-3.989,-5.013,4.816,-2.474
2439.0,3.701,5.538,-3.989,-5.013,4.816,-2.474
2443.0,1.163,3.715,-3.745,-5.013,4.816,-2.204
2446.0,1.163,3.715,-3.745,-5.013,5.014,-2.204
2450.0,1.163,3.715,-3.745,-5.013,5.014,-2.204
2454.0,-0.206,1.811,-2.422,-5.013,5.015,-1.826
2458.0,-0.206,1.811,-2.422,-5.013,5.015,-1.826
2462.0,-1.272,0.145,-0.094,-5.013,5.015,-1.423
2466.0,-1.272,0.145,-0.094,-5.013,5.015,-1.423
2470.0,-1.272,0.145,-0.094,-5.013,5.015,-1.423
2474.0,-2.976,-1.86,2.477,-5.013,5.015,-1.036
2478.0,-2.976,-1.86,2.477,-5.013,5.015,-1.036
2482.0,-4.732,-3.899,4.721,-5.013,5.015,-0.676
2486.0,-4.732,-3.899,4.721,-5.013,5.015,-0.676
2490.0,-4.732,-3.899,4.721,-5.013,5.015,-0.676
2494.0,-6.092,-5.145,5.924,-5.013,5.015,-0.312
2498.0,-6.092,-5.145,5.924,-5.013,5.015,-0.312
2502.0,-7.098,-5.792,7.041,-5.013,5.015,0.149
2506.0,-7.098,-5.792,7.041,-5.013,5.015,0.149
2510.0,-7.098,-5.792,7.041,-5.013,5.015,0.149
2514.0,-8.049,-5.02,7.467,-5.013,5.015,0.664
2518.0,-8.049,-5.02,7.467,-5.013,5.015,0.664
2522.0,-9.039,-3.418,6.741,-5.013,5.015,1.304
2526.0,-9.039,-3.418,6.741,-5.013,5.015,1.304
2530.0,-9.039,-3.418,6.741,-5.013,5.015,1.304
2533.0,-10.269,-3.025,6.395,-5.013,5.015,2.1
2537.0,-10.269,-3.025,6.395,-5.013,5.015,2.1
2541.0,-11.962,-3.696,6.729,-5.013,5.015,2.891
2545.0,-11.962,-3.696,6.729,-5.013,5.015,2.891
2549.0,-11.962,-3.696,6.729,-5.013,5.015,2.891
2553.0,-13.991,-4.275,6.663,-5.013,5.015,3.535
2557.0,-13.991,-4.275,6.663,-5.013,5.015,3.535
2561.0,-16.097,-5.57,6.649,-4.971,5.015,4.018
2565.0,-16.097,-5.57,6.649,-4.971,5.015,4.018
2569.0,-16.097,-5.57,6.649,-4.971,5.015,4.018
2573.0,-18.276,-7.348,7.006,-4.461,5.015,4.311
2577.0,-18.276,-7.348,7.006,-4.461,5.015,4.311
2581.0,-19.549,-7.666,6.567,-3.704,5.015,4.447
2585.0,-19.549,-7.666,6.567,-3.704,5.015,4.447
2589.0,-19.549,-7.666,6.567,-3.704,5.015,4.447
2593.0,-19.6,-6.88,5.731,-3.079,5.015,4.593
2597.0,-19.6,-6.88,5.731,-3.079,5.015,4.593
2601.0,-19.6,-6.175,5.099,-2.63,5.015,4.812
2605.0,-19.6,-6.175,5.099,-2.63,5.015,4.812
2609.0,-19.6,-6.175,5.099,-2.63,5.015,4.812
2613.0,-19.6,-5.367,4.572,-2.324,5.015,4.992
2617.0,-19.6,-5.367,4.572,-2.324,5.015,4.992
2621.0,-19.6,-4.704,4.37,-2.111,5.015,5.013
2625.0,-19.6,-4.704,4.37,-2.111,5.015,5.013
2629.0,-19.6,-4.704,4.37,-2.111,5.015,5.013
2633.0,-19.6,-4.097,4.595,-1.984,5.015,5.013
2637.0,-19.6,-4.097,4.595,-1.984,5.015,5.013
2641.0,-19.6,-3.869,5.18,-1.968,5.015,5.013
2645.0,-19.6,-3.869,5.18,-1.968,5.015,5.013
2649.0,-19.6,-3.869,5.563,-1.968,5.015,5.013
2653.0,-19.6,-3.529,5.563,-2.088,5.015,5.013
2657.0,-19.6,-3.529,5.563,-2.088,5.015,5.013
2661.0,-19.6,-3.102,5.743,-2.368,5.015,5.009
2665.0,-19.6,-3.102,5.743,-2.368,5.015,5.009
2669.0,-19.6,-2.756,5.197,-2.368,5.015,5.009
2673.0,-19.6,-2.756,5.197,-2.783,4.958,4.746
2677.0,-19.6,-2.756,5.197,-2.783,4.958,4.746
2681.0,-19.6,-3.063,3.296,-3.273,4.593,3.776
2685.0,-19.6,-3.063,3.296,-3.273,4.593,3.776
2689.0,-19.524,-1.823,2.374,-3.273,4.593,3.776
2693.0,-19.524,-1.823,2.374,-3.792,4.339,1.965
2697.0,-19.524,-1.823,2.374,-3.792,4.339,1.965
2701.0,-18.994,2.25,3.954,-4.414,4.124,-0.08
2705.0,-18.994,2.25,3.954,-4.414,4.124,-0.08
2709.0,-18.606,5.407,6.478,-4.414,3.624,-1.287
2713.0,-18.606,5.407,6.478,-4.947,3.624,-1.287
2717.0,-18.606,5.407,6.478,-4.947,3.624,-1.287
2721.0,-17.106,5.689,6.635,-5.013,2.882,-1.716
2725.0,-17.106,5.689,6.635,-5.013,2.882,-1.716
2729.0,-14.769,4.306,4.648,-5.013,2.191,-1.821
2733.0,-14.769,4.306,4.648,-5.013,2.191,-1.821
2737.0,-14.769,4.306,4.648,-5.013,2.191,-1.821
2741.0,-12.669,2.555,2.634,-5.013,1.804,-1.899
2745.0,-12.669,2.555,2.634,-5.013,1.804,-1.899
2749.0,-11.228,1.159,1.753,-5.013,1.714,-2.013
2753.0,-11.228,1.159,1.753,-5.013,1.714,-2.013
2757.0,-11.228,1.159,1.753,-5.013,1.714,-2.013
2761.0,-10.479,-0.039,1.426,-5.013,1.773,-2.074
2765.0,-10.479,-0.039,1.426,-5.013,1.773,-2.074
2769.0,-10.489,-1.147,1.385,-5.013,1.891,-2.03
2773.0,-10.489,-1.147,1.385,-5.013,1.891,-2.03
2777.0,-10.489,-1.147,1.385,-5.013,1.891,-2.03
2781.0,-11.09,-2.436,1.539,-4.992,2.014,-1.882
2786.0,-11.09,-2.436,1.539,-4.992,2.014,-1.882
2790.0,-12.06,-3.833,1.843,-4.795,2.079,-1.656
2794.0,-12.06,-3.833,1.843,-4.795,2.079,-1.656
2798.0,-12.77,-4.911,1.961,-4.795,2.079,-1.656
2802.0,-12.77,-4.911,1.961,-4.494,2.049,-1.371
2806.0,-12.77,-4.911,1.961,-4.494,2.049,-1.371
2810.0,-12.824,-5.947,2.304,-4.187,1.949,-1.061
2814.0,-12.824,-5.947,2.304,-4.187,1.949,-1.061
2818.0,-12.325,-6.817,2.785,-3.867,1.817,-0.8
2822.0,-12.325,-6.817,2.785,-3.867,1.817,-0.8
2826.0,-12.325,-6.817,2.785,-3.867,1.817,-0.8
2830.0,-11.661,-7.348,3.349,-3.521,1.681,-0.613
2835.0,-11.661,-7.348,3.349,-3.521,1.681,-0.613
2839.0,-11.133,-7.645,3.882,-3.142,1.53,-0.465
2843.0,-11.133,-7.645,3.882,-3.142,1.53,-0.465
2847.0,-11.133,-7.645,4.302,-3.142,1.53,-0.465
2851.0,-10.637,-7.635,4.302,-2.717,1.356,-0.322
2855.0,-10.637,-7.635,4.302,-2.717,1.356,-0.322
2859.0,-10.134,-7.317,4.582,-2.242,1.166,-0.159
2863.0,-10.134,-7.317,4.582,-2.242,1.166,-0.159
2867.0,-9.713,-6.847,4.67,-2.242,0.976,0.026
2871.0,-9.713,-6.847,4.67,-1.724,0.976,0.026
2875.0,-9.713,-6.847,4.67,-1.724,0.976,0.026
2879.0,-9.327,-6.267,4.649,-1.188,0.801,0.219
2883.0,-9.327,-6.267,4.649,-1.188,0.801,0.219
2887.0,-8.943,-5.663,4.536,-1.188,0.801,0.41
2891.0,-8.943,-5.663,4.536,-0.661,0.645,0.41
2894.0,-8.943,-5.663,4.536,-0.661,0.645,0.41
2898.0,-8.533,-5.1,4.455,-0.166,0.516,0.588
2902.0,-8.533,-5.1,4.455,-0.166,0.516,0.588
2906.0,-8.125,-4.528,4.393,-0.166,0.516,0.588
2910.0,-8.125,-4.528,4.393,0.288,0.405,0.75
2914.0,-8.125,-4.528,4.393,0.288,0.405,0.75
2918.0,-7.765,-3.967,4.321,0.694,0.306,0.895
2922.0,-7.765,-3.967,4.321,0.694,0.306,0.895
2925.0,-7.765,-3.967,4.321,0.694,0.306,0.895
2929.0,-7.554,-3.447,4.217,1.042,0.221,1.02
2933.0,-7.554,-3.447,4.217,1.042,0.221,1.02
2937.0,-7.604,-2.961,4.058,1.324,0.155,1.126
2941.0,-7.604,-2.961,4.058,1.324,0.155,1.126
2944.0,-7.604,-2.961,4.058,1.324,0.155,1.126
2948.0,-7.924,-2.541,3.913,1.534,0.108,1.203
2952.0,-7.924,-2.541,3.913,1.534,0.108,1.203
2956.0,-8.481,-2.169,3.81,1.534,0.076,1.246
2960.0,-8.481,-2.169,3.81,1.673,0.076,1.246
2964.0,-8.481,-2.169,3.81,1.673,0.076,1.246
2967.0,-9.235,-1.788,3.775,1.745,0.046,1.25
2971.0,-9.235,-1.788,3.775,1.745,0.046,1.25
2975.0,-9.235,-1.788,3.794,1.745,0.046,1.25
2979.0,-10.178,-1.379,3.794,1.755,-0.0,1.211
2983.0,-10.178,-1.379,3.794,1.755,-0.0,1.211
2987.0,-11.104,-0.957,3.714,1.705,-0.072,1.133
2991.0,-11.104,-0.957,3.714,1.705,-0.072,1.133
2995.0,-11.104,-0.47,3.688,1.705,-0.072,1.133
2999.0,-11.896,-0.47,3.688,1.592,-0.172,1.018
