deltaTime,Acc_X,Acc_Y,Acc_Z,Gyro_X,Gyro_Y,Gyro_Z
0.0,-7.613,-5.972,5.243,-0.4,-0.068,0.578
3.0,-7.613,-5.972,5.243,-0.4,-0.068,0.578
6.0,-7.343,-6.438,4.898,-0.322,-0.111,0.556
9.0,-7.343,-6.438,4.898,-0.322,-0.111,0.556
12.0,-7.343,-6.438,4.898,-0.322,-0.111,0.556
15.0,-7.329,-6.808,4.383,-0.322,-0.127,0.516
18.0,-7.329,-6.808,4.383,-0.19,-0.127,0.516
21.0,-7.329,-6.808,4.383,-0.19,-0.127,0.516
24.0,-7.329,-6.808,3.718,-0.19,-0.127,0.516
27.0,-7.607,-6.748,3.718,-0.036,-0.113,0.438
30.0,-7.607,-6.748,3.718,-0.036,-0.113,0.438
33.0,-7.607,-6.748,3.718,-0.036,-0.113,0.438
37.0,-8.305,-6.255,2.987,0.081,-0.081,0.328
40.0,-8.305,-6.255,2.987,0.081,-0.081,0.328
44.0,-8.655,-5.369,2.543,0.081,-0.081,0.208
48.0,-8.655,-5.369,2.543,0.116,-0.048,0.208
51.0,-8.655,-5.369,2.543,0.116,-0.048,0.208
55.0,-9.191,-4.806,2.412,0.022,0.052,0.106
59.0,-9.191,-4.806,2.412,0.022,0.052,0.106
62.0,-9.191,-4.806,2.412,0.022,0.052,0.106
66.0,-9.28,-4.734,2.651,-0.113,0.129,0.017
70.0,-9.28,-4.734,2.651,-0.113,0.129,0.017
74.0,-9.497,-5.06,3.195,-0.113,0.129,-0.058
77.0,-9.497,-5.06,3.195,-0.19,0.18,-0.058
81.0,-9.497,-5.06,3.195,-0.19,0.18,-0.058
85.0,-9.54,-5.649,3.702,-0.127,0.182,-0.092
89.0,-9.54,-5.649,3.702,-0.127,0.182,-0.092
93.0,-9.54,-5.649,3.809,-0.127,0.182,-0.092
96.0,-9.213,-5.737,3.809,0.077,0.147,-0.089
100.0,-9.213,-5.737,3.809,0.077,0.147,-0.089
104.0,-8.506,-5.047,3.571,0.274,0.116,-0.086
108.0,-8.506,-5.047,3.571,0.274,0.116,-0.086
112.0,-8.506,-5.047,3.571,0.274,0.116,-0.086
116.0,-8.131,-4.667,3.425,0.338,0.106,-0.098
119.0,-8.131,-4.667,3.425,0.338,0.106,-0.098
123.0,-7.84,-4.415,3.361,0.327,0.109,-0.106
127.0,-7.84,-4.415,3.361,0.327,0.109,-0.106
131.0,-7.84,-4.415,3.361,0.327,0.109,-0.106
135.0,-7.727,-3.82,3.375,0.255,0.128,-0.117
138.0,-7.727,-3.82,3.375,0.255,0.128,-0.117
142.0,-7.727,-3.094,3.453,0.255,0.128,-0.117
146.0,-7.695,-3.094,3.453,0.074,0.151,-0.151
150.0,-7.695,-3.094,3.453,0.074,0.151,-0.151
154.0,-7.674,-2.497,3.506,-0.218,0.164,-0.203
158.0,-7.674,-2.497,3.506,-0.218,0.164,-0.203
162.0,-7.674,-2.497,3.506,-0.218,0.164,-0.203
165.0,-7.934,-2.363,3.505,-0.562,0.162,-0.264
169.0,-7.934,-2.363,3.505,-0.562,0.162,-0.264
173.0,-8.328,-2.457,3.407,-0.866,0.146,-0.323
177.0,-8.328,-2.457,3.407,-0.866,0.146,-0.323
181.0,-8.328,-2.457,3.407,-0.866,0.146,-0.323
185.0,-8.737,-2.582,3.246,-1.087,0.124,-0.369
189.0,-8.737,-2.582,3.246,-1.087,0.124,-0.369
193.0,-8.888,-2.923,3.123,-1.207,0.108,-0.37
197.0,-8.888,-2.923,3.123,-1.207,0.108,-0.37
201.0,-8.888,-2.923,3.123,-1.207,0.108,-0.37
204.0,-8.767,-3.159,3.13,-1.211,0.103,-0.308
208.0,-8.767,-3.159,3.13,-1.211,0.103,-0.308
212.0,-8.682,-2.942,3.274,-1.15,0.11,-0.221
216.0,-8.682,-2.942,3.274,-1.15,0.11,-0.221
220.0,-8.682,-2.942,3.274,-1.15,0.11,-0.221
224.0,-9.032,-2.883,3.61,-1.112,0.113,-0.136
228.0,-9.032,-2.883,3.61,-1.112,0.113,-0.136
232.0,-8.714,-3.135,4.181,-1.085,0.086,-0.052
236.0,-8.714,-3.135,4.181,-1.085,0.086,-0.052
240.0,-8.714,-3.135,4.181,-1.085,0.086,-0.052
244.0,-8.359,-3.313,4.601,-1.009,0.068,0.039
247.0,-8.359,-3.313,4.601,-1.009,0.068,0.039
251.0,-8.336,-3.278,4.762,-1.009,0.068,0.101
255.0,-8.336,-3.278,4.762,-0.9,0.025,0.101
259.0,-8.336,-3.278,4.762,-0.9,0.025,0.101
263.0,-8.147,-3.222,4.839,-0.734,-0.085,0.131
267.0,-8.147,-3.222,4.839,-0.734,-0.085,0.131
270.0,-8.147,-2.827,4.247,-0.734,-0.085,0.131
274.0,-8.368,-2.827,4.247,-0.545,-0.214,0.149
278.0,-8.368,-2.827,4.247,-0.545,-0.214,0.149
282.0,-8.13,-2.505,3.703,-0.38,-0.388,0.176
286.0,-8.13,-2.505,3.703,-0.38,-0.388,0.176
290.0,-8.13,-2.505,3.27,-0.38,-0.388,0.176
294.0,-7.679,-2.145,3.27,-0.233,-0.514,0.215
298.0,-7.679,-2.145,3.27,-0.233,-0.514,0.215
302.0,-7.224,-1.845,2.969,-0.11,-0.581,0.269
306.0,-7.224,-1.845,2.969,-0.11,-0.581,0.269
310.0,-7.224,-1.845,2.969,-0.11,-0.581,0.269
313.0,-6.925,-1.71,2.92,0.003,-0.61,0.333
317.0,-6.925,-1.71,2.92,0.003,-0.61,0.333
321.0,-6.896,-1.569,3.148,0.122,-0.631,0.385
325.0,-6.896,-1.569,3.148,0.122,-0.631,0.385
329.0,-6.896,-1.569,3.148,0.122,-0.631,0.385
333.0,-7.14,-1.448,3.592,0.249,-0.675,0.42
336.0,-7.14,-1.448,3.592,0.249,-0.675,0.42
340.0,-7.674,-1.262,4.335,0.249,-0.76,0.448
344.0,-7.674,-1.262,4.335,0.37,-0.76,0.448
348.0,-7.674,-1.262,4.335,0.37,-0.76,0.448
352.0,-8.399,-0.987,5.179,0.481,-0.9,0.481
355.0,-8.399,-0.987,5.179,0.481,-0.9,0.481
359.0,-8.399,-0.987,6.076,0.481,-0.9,0.481
363.0,-9.095,-0.705,6.076,0.576,-1.097,0.529
367.0,-9.095,-0.705,6.076,0.576,-1.097,0.529
371.0,-9.4,-0.353,6.669,0.65,-1.333,0.59
375.0,-9.4,-0.353,6.669,0.65,-1.333,0.59
378.0,-9.4,-0.353,6.669,0.65,-1.333,0.59
382.0,-9.288,0.043,7.256,0.704,-1.565,0.655
386.0,-9.288,0.043,7.256,0.704,-1.565,0.655
390.0,-9.013,0.284,7.901,0.704,-1.789,0.709
393.0,-9.013,0.284,7.901,0.738,-1.789,0.709
397.0,-9.013,0.284,7.901,0.738,-1.789,0.709
401.0,-8.739,0.424,8.354,0.753,-2.009,0.736
405.0,-8.739,0.424,8.354,0.753,-2.009,0.736
408.0,-8.739,0.424,8.354,0.753,-2.009,0.736
412.0,-8.608,0.637,8.834,0.755,-2.212,0.732
416.0,-8.608,0.637,8.834,0.755,-2.212,0.732
419.0,-8.892,0.97,9.531,0.762,-2.403,0.726
423.0,-8.892,0.97,9.531,0.762,-2.403,0.726
427.0,-8.892,0.97,9.531,0.762,-2.403,0.726
431.0,-9.406,1.139,10.423,0.789,-2.599,0.749
435.0,-9.406,1.139,10.423,0.789,-2.599,0.749
438.0,-9.406,1.153,11.434,0.789,-2.599,0.749
442.0,-10.014,1.153,11.434,0.836,-2.826,0.798
446.0,-10.014,1.153,11.434,0.836,-2.826,0.798
450.0,-10.746,1.229,12.524,0.88,-3.103,0.852
454.0,-10.746,1.229,12.524,0.88,-3.103,0.852
458.0,-10.746,1.229,13.35,0.88,-3.103,0.852
462.0,-11.384,1.127,13.35,0.91,-3.428,0.896
466.0,-11.384,1.127,13.35,0.91,-3.428,0.896
469.0,-11.658,0.961,13.773,0.92,-3.763,0.908
473.0,-11.658,0.961,13.773,0.92,-3.763,0.908
477.0,-11.658,0.961,13.773,0.92,-3.763,0.908
481.0,-11.621,0.877,14.158,0.908,-4.048,0.884
485.0,-11.621,0.877,14.158,0.908,-4.048,0.884
489.0,-11.615,0.872,14.864,0.879,-4.274,0.842
493.0,-11.615,0.872,14.864,0.879,-4.274,0.842
497.0,-11.615,0.872,14.864,0.879,-4.274,0.842
501.0,-11.882,0.653,15.703,0.824,-4.482,0.789
505.0,-11.882,0.653,15.703,0.824,-4.482,0.789
509.0,-12.452,0.062,16.714,0.736,-4.708,0.702
512.0,-12.452,0.062,16.714,0.736,-4.708,0.702
516.0,-12.452,0.062,16.714,0.736,-4.708,0.702
520.0,-13.125,-0.884,17.882,0.643,-4.932,0.55
524.0,-13.125,-0.884,17.882,0.643,-4.932,0.55
528.0,-13.741,-2.118,18.825,0.563,-4.992,0.32
532.0,-13.741,-2.118,18.825,0.563,-4.992,0.32
536.0,-13.741,-2.118,18.825,0.563,-4.992,0.32
540.0,-13.767,-3.355,19.204,0.521,-4.992,0.024
544.0,-13.767,-3.355,19.204,0.521,-4.992,0.024
548.0,-12.982,-4.514,18.979,0.549,-4.992,-0.286
552.0,-12.982,-4.514,18.979,0.549,-4.992,-0.286
556.0,-12.982,-4.514,18.979,0.549,-4.992,-0.286
560.0,-11.377,-5.594,18.61,0.674,-4.992,-0.581
565.0,-11.377,-5.594,18.61,0.674,-4.992,-0.581
569.0,-9.595,-6.45,18.21,0.912,-4.992,-0.885
573.0,-9.595,-6.45,18.21,0.912,-4.992,-0.885
577.0,-8.309,-7.404,17.985,0.912,-4.992,-0.885
581.0,-8.309,-7.404,17.985,1.252,-4.992,-1.198
585.0,-8.309,-7.404,17.985,1.252,-4.992,-1.198
589.0,-7.479,-8.177,17.718,1.657,-4.992,-1.486
593.0,-7.479,-8.177,17.718,1.657,-4.992,-1.486
597.0,-6.637,-8.417,17.23,1.657,-4.992,-1.719
601.0,-6.637,-8.417,17.23,2.092,-4.992,-1.719
605.0,-6.637,-8.417,17.23,2.092,-4.992,-1.719
609.0,-5.499,-8.265,16.225,2.586,-4.992,-1.908
613.0,-5.499,-8.265,16.225,2.586,-4.992,-1.908
617.0,-4.178,-7.996,15.091,2.586,-4.992,-2.081
621.0,-4.178,-7.996,15.091,3.077,-4.992,-2.081
625.0,-4.178,-7.996,15.091,3.077,-4.992,-2.081
629.0,-3.291,-7.607,13.627,3.483,-4.992,-2.223
633.0,-3.291,-7.607,13.627,3.483,-4.992,-2.223
637.0,-2.392,-7.16,12.226,3.813,-4.992,-2.327
641.0,-2.392,-7.16,12.226,3.813,-4.992,-2.327
644.0,-2.392,-7.16,12.226,3.813,-4.992,-2.327
648.0,-1.919,-6.794,11.091,4.059,-4.992,-2.423
652.0,-1.919,-6.794,11.091,4.059,-4.992,-2.423
656.0,-0.943,-6.173,9.887,4.224,-4.992,-2.512
660.0,-0.943,-6.173,9.887,4.224,-4.992,-2.512
664.0,-0.943,-6.173,9.887,4.224,-4.992,-2.512
668.0,-0.167,-5.806,8.99,4.252,-4.992,-2.58
672.0,-0.167,-5.806,8.99,4.252,-4.992,-2.58
676.0,0.641,-5.64,8.326,4.207,-4.992,-2.644
680.0,0.641,-5.64,8.326,4.207,-4.992,-2.644
684.0,0.641,-5.64,8.326,4.207,-4.992,-2.644
687.0,1.071,-5.474,8.224,4.139,-4.947,-2.739
691.0,1.071,-5.474,8.224,4.139,-4.947,-2.739
695.0,1.216,-5.36,8.186,4.139,-4.947,-2.739
699.0,1.216,-5.36,8.186,4.102,-4.76,-2.859
703.0,1.216,-5.36,8.186,4.102,-4.76,-2.859
707.0,1.414,-4.991,7.933,4.107,-4.553,-2.97
710.0,1.414,-4.991,7.933,4.107,-4.553,-2.97
714.0,1.414,-4.991,7.933,4.107,-4.553,-2.97
718.0,1.637,-4.561,7.676,4.138,-4.359,-3.037
722.0,1.637,-4.561,7.676,4.138,-4.359,-3.037
726.0,1.717,-4.05,7.203,4.187,-4.181,-3.045
729.0,1.717,-4.05,7.203,4.187,-4.181,-3.045
733.0,1.717,-4.05,7.203,4.187,-4.181,-3.045
737.0,1.834,-3.426,6.667,4.243,-4.004,-3.004
741.0,1.834,-3.426,6.667,4.243,-4.004,-3.004
745.0,1.85,-2.554,6.125,4.243,-4.004,-2.934
749.0,1.85,-2.554,6.125,4.307,-3.836,-2.934
752.0,1.85,-2.554,6.125,4.307,-3.836,-2.934
756.0,1.882,-1.295,5.395,4.384,-3.692,-2.849
760.0,1.882,-1.295,5.395,4.384,-3.692,-2.849
764.0,1.882,-1.295,4.364,4.384,-3.692,-2.849
768.0,1.883,0.187,4.364,4.459,-3.556,-2.709
771.0,1.883,0.187,4.364,4.459,-3.556,-2.709
775.0,1.984,1.631,3.151,4.503,-3.411,-2.488
779.0,1.984,1.631,3.151,4.503,-3.411,-2.488
783.0,1.984,1.631,3.151,4.503,-3.411,-2.488
786.0,2.367,3.414,1.595,4.495,-3.232,-2.212
790.0,2.367,3.414,1.595,4.495,-3.232,-2.212
794.0,2.95,5.197,-0.102,4.495,-3.232,-2.212
798.0,2.95,5.197,-0.102,4.44,-3.002,-1.892
801.0,2.95,5.197,-0.102,4.44,-3.002,-1.892
805.0,3.729,6.8,-1.585,4.369,-2.71,-1.572
809.0,3.729,6.8,-1.585,4.369,-2.71,-1.572
813.0,3.729,6.8,-1.585,4.369,-2.71,-1.572
817.0,4.32,8.342,-2.431,4.308,-2.364,-1.281
821.0,4.32,8.342,-2.431,4.308,-2.364,-1.281
824.0,4.618,9.77,-2.467,4.261,-1.99,-0.992
828.0,4.618,9.77,-2.467,4.261,-1.99,-0.992
832.0,4.618,9.77,-2.467,4.261,-1.99,-0.992
836.0,4.47,11.058,-2.304,4.227,-1.617,-0.679
840.0,4.47,11.058,-2.304,4.227,-1.617,-0.679
844.0,4.242,12.165,-2.625,4.227,-1.263,-0.336
848.0,4.242,12.165,-2.625,4.197,-1.263,-0.336
851.0,4.242,12.165,-2.625,4.197,-1.263,-0.336
855.0,4.279,13.283,-3.547,4.132,-0.909,0.023
859.0,4.279,13.283,-3.547,4.132,-0.909,0.023
863.0,4.964,14.523,-4.88,4.132,-0.909,0.023
867.0,4.964,14.523,-4.88,4.016,-0.527,0.38
871.0,4.964,14.523,-4.88,4.016,-0.527,0.38
874.0,6.045,15.642,-6.27,3.875,-0.066,0.737
878.0,6.045,15.642,-6.27,3.875,-0.066,0.737
882.0,6.045,15.642,-6.27,3.875,-0.066,0.737
886.0,7.148,17.011,-8.107,3.721,0.486,1.16
890.0,7.148,17.011,-8.107,3.721,0.486,1.16
893.0,8.746,18.665,-10.189,3.526,1.168,1.718
897.0,8.746,18.665,-10.189,3.526,1.168,1.718
901.0,8.746,18.665,-10.189,3.526,1.168,1.718
905.0,9.159,19.408,-12.004,3.259,2.028,2.4
909.0,9.159,19.408,-12.004,3.259,2.028,2.4
912.0,10.259,19.596,-12.235,3.259,2.028,3.158
916.0,10.259,19.596,-12.235,2.919,2.812,3.158
920.0,10.259,19.596,-12.235,2.919,2.812,3.158
924.0,10.302,19.596,-10.954,2.395,3.667,3.904
928.0,10.302,19.596,-10.954,2.395,3.667,3.904
932.0,9.197,19.199,-8.025,2.395,3.667,3.904
936.0,9.197,19.199,-8.025,1.737,4.446,4.63
939.0,9.197,19.199,-8.025,1.737,4.446,4.63
943.0,6.45,17.093,-4.561,1.036,4.95,4.996
947.0,6.45,17.093,-4.561,1.036,4.95,4.996
951.0,6.45,17.093,-4.561,1.036,4.95,4.996
954.0,1.734,14.274,-1.542,0.406,5.015,5.013
958.0,1.734,14.274,-1.542,0.406,5.015,5.013
962.0,-3.395,10.775,0.883,0.406,5.015,5.013
966.0,-3.395,10.775,0.883,-0.211,5.015,5.013
969.0,-3.395,10.775,0.883,-0.211,5.015,5.013
973.0,-7.677,8.228,2.541,-0.959,5.015,5.013
977.0,-7.677,8.228,2.541,-0.959,5.015,5.013
981.0,-7.677,8.228,2.541,-0.959,5.015,5.013
984.0,-15.872,6.078,1.043,-2.015,5.007,5.013
988.0,-15.872,6.078,1.043,-2.015,5.007,5.013
992.0,-19.597,-0.224,1.278,-3.471,4.668,4.975
996.0,-19.597,-0.224,1.278,-3.471,4.668,4.975
1000.0,-19.597,-0.224,1.278,-3.471,4.668,4.975
1004.0,-19.6,-12.925,4.834,-4.779,3.537,3.992
1008.0,-19.6,-12.925,4.834,-4.779,3.537,3.992
1012.0,-19.6,-19.303,7.764,-5.013,1.587,1.752
1016.0,-19.6,-19.303,7.764,-5.013,1.587,1.752
1020.0,-19.6,-19.303,7.764,-5.013,1.587,1.752
1024.0,-19.527,-19.6,6.879,-5.013,-0.443,-0.432
1029.0,-19.527,-19.6,6.879,-5.013,-0.443,-0.432
1033.0,-15.37,-19.6,4.637,-5.013,-1.678,-2.149
1037.0,-15.37,-19.6,4.637,-5.013,-1.678,-2.149
1041.0,-9.796,-19.6,2.685,-4.89,-2.269,-3.27
1045.0,-9.796,-19.6,2.685,-4.89,-2.269,-3.27
1050.0,-9.796,-19.6,2.685,-4.89,-2.269,-3.27
1054.0,-5.759,-19.6,2.718,-3.901,-2.482,-3.985
1058.0,-5.759,-19.6,2.718,-3.901,-2.482,-3.985
1062.0,-3.107,-19.583,2.806,-2.451,-2.537,-4.527
1066.0,-3.107,-19.583,2.806,-2.451,-2.537,-4.527
1070.0,-1.404,-17.126,2.55,-2.451,-2.537,-4.917
1075.0,-1.404,-17.126,2.55,-0.976,-2.582,-4.917
1079.0,-1.404,-17.126,2.55,-0.976,-2.582,-4.917
1083.0,-0.54,-12.387,2.202,0.34,-2.651,-4.995
1087.0,-0.54,-12.387,2.202,0.34,-2.651,-4.995
1091.0,-0.439,-7.174,1.316,1.368,-2.752,-4.995
1095.0,-0.439,-7.174,1.316,1.368,-2.752,-4.995
1099.0,-0.439,-7.174,1.316,1.368,-2.752,-4.995
1103.0,-0.654,-2.41,-0.177,2.092,-2.855,-4.995
1107.0,-0.654,-2.41,-0.177,2.092,-2.855,-4.995
1111.0,-0.296,1.008,-1.878,2.566,-2.915,-4.995
1115.0,-0.296,1.008,-1.878,2.566,-2.915,-4.995
1119.0,-0.296,1.008,-3.003,2.566,-2.915,-4.995
1123.0,0.456,3.023,-3.003,2.854,-2.894,-4.995
1127.0,0.456,3.023,-3.003,2.854,-2.894,-4.995
1131.0,1.097,4.82,-3.492,3.018,-2.863,-4.995
1135.0,1.097,4.82,-3.492,3.018,-2.863,-4.995
1139.0,1.097,4.82,-3.458,3.018,-2.863,-4.995
1143.0,1.136,7.181,-3.458,3.034,-2.85,-4.995
1147.0,1.136,7.181,-3.458,3.034,-2.85,-4.995
1151.0,0.911,10.289,-3.714,2.867,-2.852,-4.989
1155.0,0.911,10.289,-3.714,2.867,-2.852,-4.989
1159.0,0.911,10.289,-3.714,2.867,-2.852,-4.989
1163.0,1.248,13.079,-4.18,2.571,-2.814,-4.851
1167.0,1.248,13.079,-4.18,2.571,-2.814,-4.851
1171.0,2.534,14.617,-4.607,2.243,-2.705,-4.55
1175.0,2.534,14.617,-4.607,2.243,-2.705,-4.55
1179.0,2.534,14.617,-4.397,2.243,-2.705,-4.55
1183.0,3.888,15.176,-4.397,1.913,-2.521,-4.252
1187.0,3.888,15.176,-4.397,1.913,-2.521,-4.252
1190.0,3.916,15.912,-3.261,1.554,-2.276,-3.984
1194.0,3.916,15.912,-3.261,1.554,-2.276,-3.984
1198.0,2.947,17.238,-1.803,1.554,-2.276,-3.984
1202.0,2.947,17.238,-1.803,1.178,-2.052,-3.716
1206.0,2.947,17.238,-1.803,1.178,-2.052,-3.716
1210.0,2.731,18.899,-0.434,0.822,-1.891,-3.41
1214.0,2.731,18.899,-0.434,0.822,-1.891,-3.41
1218.0,4.265,19.592,0.142,0.822,-1.891,-3.055
1222.0,4.265,19.592,0.142,0.541,-1.797,-3.055
1226.0,4.265,19.592,0.142,0.541,-1.797,-3.055
1230.0,6.784,19.596,-0.107,0.354,-1.687,-2.622
1234.0,6.784,19.596,-0.107,0.354,-1.687,-2.622
1238.0,9.126,19.596,-0.278,0.354,-1.687,-2.15
1242.0,9.126,19.596,-0.278,0.225,-1.549,-2.15
1246.0,9.126,19.596,-0.278,0.225,-1.549,-2.15
1250.0,10.606,19.596,-0.211,0.08,-1.333,-1.681
1254.0,10.606,19.596,-0.211,0.08,-1.333,-1.681
1258.0,11.133,19.596,-0.45,-0.015,-1.074,-1.243
1262.0,11.133,19.596,-0.45,-0.015,-1.074,-1.243
1267.0,11.133,19.596,-0.45,-0.015,-1.074,-1.243
1271.0,11.5,19.596,-0.967,-0.022,-0.804,-0.828
1275.0,11.5,19.596,-0.967,-0.022,-0.804,-0.828
1279.0,11.82,19.596,-1.499,0.059,-0.524,-0.436
1283.0,11.82,19.596,-1.499,0.059,-0.524,-0.436
1287.0,12.401,19.596,-2.761,0.059,-0.524,-0.436
1291.0,12.401,19.596,-2.761,0.254,-0.242,-0.063
1295.0,12.401,19.596,-2.761,0.254,-0.242,-0.063
1300.0,13.426,19.596,-4.57,0.582,0.087,0.304
1303.0,13.426,19.596,-4.57,0.582,0.087,0.304
1307.0,14.466,19.596,-6.234,0.582,0.087,0.698
1311.0,14.466,19.596,-6.234,0.962,0.507,0.698
1315.0,14.466,19.596,-6.234,0.962,0.507,0.698
1319.0,15.351,19.596,-7.642,1.281,1.01,1.141
1323.0,15.351,19.596,-7.642,1.281,1.01,1.141
1327.0,16.321,19.596,-9.602,1.281,1.01,1.141
1331.0,16.321,19.596,-9.602,1.513,1.601,1.616
1335.0,16.321,19.596,-9.602,1.513,1.601,1.616
1339.0,17.428,19.596,-11.139,1.66,2.334,2.161
1343.0,17.428,19.596,-11.139,1.66,2.334,2.161
1347.0,17.942,19.596,-10.981,1.66,2.334,2.161
1351.0,17.942,19.596,-10.981,1.729,3.143,2.749
1355.0,17.942,19.596,-10.981,1.729,3.143,2.749
1359.0,17.247,19.596,-9.311,1.705,3.897,3.357
1362.0,17.247,19.596,-9.311,1.705,3.897,3.357
1366.0,14.863,19.596,-6.995,1.705,3.897,3.357
1370.0,14.863,19.596,-6.995,1.595,4.508,4.012
1374.0,14.863,19.596,-6.995,1.595,4.508,4.012
1378.0,10.611,19.596,-5.005,1.407,4.925,4.715
1382.0,10.611,19.596,-5.005,1.407,4.925,4.715
1386.0,10.611,19.596,-3.451,1.407,4.925,4.715
1390.0,6.133,19.596,-3.451,1.187,5.015,5.008
1394.0,6.133,19.596,-3.451,1.187,5.015,5.008
1397.0,2.563,19.596,-1.616,0.93,5.015,5.013
1401.0,2.563,19.596,-1.616,0.93,5.015,5.013
1405.0,2.563,19.596,-1.616,0.93,5.015,5.013
1409.0,-0.336,18.489,0.942,0.604,5.015,5.013
1413.0,-0.336,18.489,0.942,0.604,5.015,5.013
1417.0,-5.764,16.034,1.915,0.126,5.015,5.013
1420.0,-5.764,16.034,1.915,0.126,5.015,5.013
1424.0,-5.764,16.034,1.915,0.126,5.015,5.013
1428.0,-12.111,13.722,-0.278,-0.702,5.015,5.013
1432.0,-12.111,13.722,-0.278,-0.702,5.015,5.013
1436.0,-16.561,10.098,-2.269,-1.756,4.863,5.013
1440.0,-16.561,10.098,-2.269,-1.756,4.863,5.013
1444.0,-16.561,10.098,-2.269,-1.756,4.863,5.013
1448.0,-19.47,6.359,-0.949,-2.737,4.362,5.013
1452.0,-19.47,6.359,-0.949,-2.737,4.362,5.013
1456.0,-19.6,1.064,1.964,-3.626,3.7,5.013
1460.0,-19.6,1.064,1.964,-3.626,3.7,5.013
1464.0,-19.6,1.064,1.964,-3.626,3.7,5.013
1468.0,-19.6,-3.755,3.435,-4.381,2.851,5.013
1472.0,-19.6,-3.755,3.435,-4.381,2.851,5.013
1476.0,-18.665,-6.183,3.308,-4.9,2.01,4.941
1480.0,-18.665,-6.183,3.308,-4.9,2.01,4.941
1484.0,-18.665,-6.183,3.308,-4.9,2.01,4.941
1488.0,-11.024,-7.323,2.8,-5.013,1.514,4.351
1492.0,-11.024,-7.323,2.8,-5.013,1.514,4.351
1496.0,-5.36,-8.066,1.265,-5.013,1.339,3.614
1500.0,-5.36,-8.066,1.265,-5.013,1.339,3.614
1504.0,-5.36,-8.066,1.265,-5.013,1.339,3.614
1508.0,-1.667,-8.634,1.062,-5.013,1.138,2.79
1512.0,-1.667,-8.634,1.062,-5.013,1.138,2.79
1516.0,1.593,-9.051,1.973,-4.992,0.805,1.847
1519.0,1.593,-9.051,1.973,-4.992,0.805,1.847
1523.0,1.593,-9.051,1.973,-4.992,0.805,1.847
1527.0,4.77,-9.335,2.849,-4.495,0.447,1.075
1531.0,4.77,-9.335,2.849,-4.495,0.447,1.075
1535.0,6.841,-10.0,3.121,-3.413,0.226,0.595
1539.0,6.841,-10.0,3.121,-3.413,0.226,0.595
1542.0,6.841,-10.0,3.121,-3.413,0.226,0.595
1546.0,7.249,-10.653,2.935,-2.14,0.171,0.229
1550.0,7.249,-10.653,2.935,-2.14,0.171,0.229
1554.0,6.736,-10.515,2.696,-2.14,0.195,-0.148
1558.0,6.736,-10.515,2.696,-0.821,0.195,-0.148
1562.0,6.736,-10.515,2.696,-0.821,0.195,-0.148
1566.0,6.005,-9.31,2.3,0.384,0.224,-0.486
1570.0,6.005,-9.31,2.3,0.384,0.224,-0.486
1574.0,5.347,-7.446,1.974,0.384,0.224,-0.706
1578.0,5.347,-7.446,1.974,1.36,0.257,-0.706
1581.0,5.347,-7.446,1.974,1.36,0.257,-0.706
1585.0,5.189,-5.457,1.928,2.079,0.286,-0.819
1589.0,5.189,-5.457,1.928,2.079,0.286,-0.819
1593.0,5.189,-5.457,2.236,2.079,0.286,-0.819
1597.0,5.861,-3.661,2.236,2.571,0.31,-0.886
1601.0,5.861,-3.661,2.236,2.571,0.31,-0.886
1604.0,7.023,-2.151,2.868,2.883,0.338,-0.949
1608.0,7.023,-2.151,2.868,2.883,0.338,-0.949
1612.0,7.023,-2.151,2.868,2.883,0.338,-0.949
1616.0,7.83,-0.666,3.544,3.045,0.342,-1.012
1620.0,7.83,-0.666,3.544,3.045,0.342,-1.012
1623.0,8.201,0.76,3.692,3.081,0.299,-1.046
1627.0,8.201,0.76,3.692,3.081,0.299,-1.046
1631.0,8.201,0.76,3.692,3.081,0.299,-1.046
1635.0,8.263,2.104,3.514,3.018,0.256,-1.019
1638.0,8.263,2.104,3.514,3.018,0.256,-1.019
1642.0,8.263,2.104,3.514,3.018,0.256,-1.019
1646.0,8.138,3.155,3.345,2.871,0.238,-0.924
1650.0,8.138,3.155,3.345,2.871,0.238,-0.924
1653.0,8.032,3.86,3.171,2.654,0.238,-0.802
1657.0,8.032,3.86,3.171,2.654,0.238,-0.802
1661.0,8.032,3.86,3.171,2.654,0.238,-0.802
1665.0,7.893,4.336,3.045,2.382,0.253,-0.7
1668.0,7.893,4.336,3.045,2.382,0.253,-0.7
1672.0,7.893,4.336,3.06,2.382,0.253,-0.7
1676.0,7.63,4.694,3.06,2.071,0.267,-0.635
1679.0,7.63,4.694,3.06,2.071,0.267,-0.635
1683.0,7.267,5.03,3.074,1.749,0.264,-0.598
1687.0,7.267,5.03,3.074,1.749,0.264,-0.598
1691.0,7.267,5.03,3.074,1.749,0.264,-0.598
1694.0,7.063,5.386,2.871,1.433,0.249,-0.58
1698.0,7.063,5.386,2.871,1.433,0.249,-0.58
1702.0,7.312,5.788,2.645,1.433,0.249,-0.58
1706.0,7.312,5.788,2.645,1.124,0.243,-0.557
1709.0,7.312,5.788,2.645,1.124,0.243,-0.557
1713.0,7.856,6.21,2.549,0.813,0.269,-0.518
1717.0,7.856,6.21,2.549,0.813,0.269,-0.518
1721.0,7.856,6.21,2.549,0.813,0.269,-0.518
1724.0,8.292,6.505,2.643,0.498,0.329,-0.452
1728.0,8.292,6.505,2.643,0.498,0.329,-0.452
1732.0,8.352,6.461,2.775,0.498,0.329,-0.363
1735.0,8.352,6.461,2.775,0.193,0.4,-0.363
1739.0,8.352,6.461,2.775,0.193,0.4,-0.363
1743.0,7.831,6.179,2.903,-0.09,0.468,-0.29
1747.0,7.831,6.179,2.903,-0.09,0.468,-0.29
1751.0,7.831,6.179,2.903,-0.09,0.468,-0.29
1754.0,6.869,5.744,2.995,-0.333,0.521,-0.249
1758.0,6.869,5.744,2.995,-0.333,0.521,-0.249
1762.0,5.931,5.175,3.066,-0.527,0.543,-0.24
1766.0,5.931,5.175,3.066,-0.527,0.543,-0.24
1770.0,5.931,5.175,3.066,-0.527,0.543,-0.24
1773.0,5.209,4.635,3.165,-0.676,0.534,-0.272
1777.0,5.209,4.635,3.165,-0.676,0.534,-0.272
1781.0,4.669,4.154,3.236,-0.676,0.534,-0.34
1785.0,4.669,4.154,3.236,-0.781,0.497,-0.34
1789.0,4.669,4.154,3.236,-0.781,0.497,-0.34
1793.0,4.312,3.653,3.191,-0.852,0.442,-0.425
1796.0,4.312,3.653,3.191,-0.852,0.442,-0.425
1800.0,4.312,3.653,2.991,-0.852,0.442,-0.425
1804.0,4.089,3.161,2.991,-0.892,0.377,-0.529
1808.0,4.089,3.161,2.991,-0.892,0.377,-0.529
1812.0,3.944,2.675,2.606,-0.908,0.32,-0.656
1815.0,3.944,2.675,2.606,-0.908,0.32,-0.656
1819.0,3.944,2.675,2.606,-0.908,0.32,-0.656
1823.0,3.736,2.259,2.246,-0.906,0.276,-0.805
1827.0,3.736,2.259,2.246,-0.906,0.276,-0.805
1831.0,3.46,1.848,1.847,-0.886,0.235,-0.967
1835.0,3.46,1.848,1.847,-0.886,0.235,-0.967
1838.0,3.46,1.848,1.847,-0.886,0.235,-0.967
1842.0,3.159,1.446,1.446,-0.856,0.203,-1.144
1846.0,3.159,1.446,1.446,-0.856,0.203,-1.144
1850.0,2.74,1.218,1.181,-0.856,0.203,-1.144
1854.0,2.74,1.218,1.181,-0.826,0.174,-1.335
1858.0,2.74,1.218,1.181,-0.826,0.174,-1.335
1861.0,2.197,1.181,1.065,-0.797,0.132,-1.532
1865.0,2.197,1.181,1.065,-0.797,0.132,-1.532
1869.0,2.197,1.181,1.065,-0.797,0.132,-1.532
1873.0,1.676,1.143,0.794,-0.776,0.075,-1.714
1877.0,1.676,1.143,0.794,-0.776,0.075,-1.714
1880.0,1.266,1.088,0.421,-0.78,0.037,-1.876
1884.0,1.266,1.088,0.421,-0.78,0.037,-1.876
1888.0,1.266,1.088,0.421,-0.78,0.037,-1.876
1892.0,1.008,0.981,0.015,-0.812,0.052,-2.018
1896.0,1.008,0.981,0.015,-0.812,0.052,-2.018
1900.0,0.827,0.817,-0.227,-0.812,0.052,-2.146
1903.0,0.827,0.817,-0.227,-0.867,0.133,-2.146
1907.0,0.827,0.817,-0.227,-0.867,0.133,-2.146
1911.0,0.631,0.744,-0.204,-0.933,0.247,-2.263
1915.0,0.631,0.744,-0.204,-0.933,0.247,-2.263
1919.0,0.482,0.712,-0.081,-0.933,0.247,-2.263
1923.0,0.482,0.712,-0.081,-0.997,0.363,-2.359
1927.0,0.482,0.712,-0.081,-0.997,0.363,-2.359
1931.0,0.388,0.671,-0.007,-1.054,0.478,-2.425
1935.0,0.388,0.671,-0.007,-1.054,0.478,-2.425
1939.0,0.388,0.564,0.002,-1.054,0.478,-2.425
1942.0,0.348,0.564,0.002,-1.104,0.606,-2.461
1946.0,0.348,0.564,0.002,-1.104,0.606,-2.461
1950.0,0.37,0.452,-0.021,-1.146,0.747,-2.477
1954.0,0.37,0.452,-0.021,-1.146,0.747,-2.477
1958.0,0.37,0.452,-0.021,-1.146,0.747,-2.477
1962.0,0.464,0.391,0.016,-1.177,0.904,-2.484
1966.0,0.464,0.391,0.016,-1.177,0.904,-2.484
1969.0,0.622,0.372,0.144,-1.192,1.081,-2.491
1973.0,0.622,0.372,0.144,-1.192,1.081,-2.491
1977.0,0.622,0.372,0.144,-1.192,1.081,-2.491
1981.0,0.813,0.394,0.332,-1.188,1.266,-2.495
1985.0,0.813,0.394,0.332,-1.188,1.266,-2.495
1988.0,1.029,0.465,0.508,-1.188,1.45,-2.494
1992.0,1.029,0.465,0.508,-1.17,1.45,-2.494
1996.0,1.029,0.465,0.508,-1.17,1.45,-2.494
2000.0,1.232,0.605,0.856,-1.14,1.639,-2.481
2004.0,1.232,0.605,0.856,-1.14,1.639,-2.481
2008.0,1.232,0.605,1.328,-1.14,1.639,-2.481
2011.0,1.351,0.854,1.328,-1.099,1.827,-2.454
2015.0,1.351,0.854,1.328,-1.099,1.827,-2.454
2019.0,1.356,1.197,1.85,-1.06,1.995,-2.399
2023.0,1.356,1.197,1.85,-1.06,1.995,-2.399
2027.0,1.356,1.197,1.85,-1.06,1.995,-2.399
2031.0,1.382,1.539,2.38,-1.032,2.141,-2.315
2034.0,1.382,1.539,2.38,-1.032,2.141,-2.315
2038.0,1.403,1.841,2.794,-1.023,2.273,-2.222
2042.0,1.403,1.841,2.794,-1.023,2.273,-2.222
2046.0,1.403,1.841,2.794,-1.023,2.273,-2.222
2050.0,1.537,2.054,3.007,-1.054,2.388,-2.121
2053.0,1.537,2.054,3.007,-1.054,2.388,-2.121
2057.0,1.649,2.31,3.643,-1.054,2.388,-2.121
2061.0,1.649,2.31,3.643,-1.136,2.506,-2.032
2065.0,1.649,2.31,3.643,-1.136,2.506,-2.032
2069.0,1.361,2.931,4.889,-1.252,2.597,-1.954
2073.0,1.361,2.931,4.889,-1.252,2.597,-1.954
2076.0,1.361,2.931,4.889,-1.252,2.597,-1.954
2080.0,0.98,3.455,6.607,-1.392,2.626,-1.827
2084.0,0.98,3.455,6.607,-1.392,2.626,-1.827
2088.0,0.559,3.595,8.082,-1.566,2.608,-1.653
2092.0,0.559,3.595,8.082,-1.566,2.608,-1.653
2095.0,0.559,3.595,8.082,-1.566,2.608,-1.653
2099.0,-0.029,3.537,8.362,-1.791,2.574,-1.494
2103.0,-0.029,3.537,8.362,-1.791,2.574,-1.494
2107.0,-0.422,3.434,7.565,-1.791,2.576,-1.381
2111.0,-0.422,3.434,7.565,-2.095,2.576,-1.381
2115.0,-0.422,3.434,7.565,-2.095,2.576,-1.381
2119.0,0.511,3.221,6.804,-2.477,2.693,-1.358
2123.0,0.511,3.221,6.804,-2.477,2.693,-1.358
2126.0,1.824,3.205,6.44,-2.477,2.693,-1.358
2130.0,1.824,3.205,6.44,-2.905,2.969,-1.455
2134.0,1.824,3.205,6.44,-2.905,2.969,-1.455
2138.0,2.045,3.834,6.971,-3.362,3.336,-1.578
2142.0,2.045,3.834,6.971,-3.362,3.336,-1.578
2146.0,2.045,3.834,6.971,-3.362,3.336,-1.578
2149.0,1.198,4.431,7.35,-3.818,3.664,-1.587
2153.0,1.198,4.431,7.35,-3.818,3.664,-1.587
2157.0,-0.07,4.109,7.438,-4.263,3.927,-1.424
2161.0,-0.07,4.109,7.438,-4.263,3.927,-1.424
2165.0,-0.07,4.109,7.438,-4.263,3.927,-1.424
2169.0,-1.326,2.98,7.539,-4.709,4.159,-1.146
2173.0,-1.326,2.98,7.539,-4.709,4.159,-1.146
2177.0,-2.581,1.275,8.057,-4.991,4.39,-0.834
2180.0,-2.581,1.275,8.057,-4.991,4.39,-0.834
2184.0,-2.581,1.275,8.057,-4.991,4.39,-0.834
2188.0,-3.888,-0.436,8.524,-5.013,4.62,-0.538
2192.0,-3.888,-0.436,8.524,-5.013,4.62,-0.538
2196.0,-5.356,-1.945,8.868,-5.013,4.88,-0.284
2200.0,-5.356,-1.945,8.868,-5.013,4.88,-0.284
2204.0,-5.356,-1.945,8.868,-5.013,4.88,-0.284
2208.0,-6.826,-3.218,8.834,-5.013,5.011,-0.078
2212.0,-6.826,-3.218,8.834,-5.013,5.011,-0.078
2216.0,-7.917,-4.312,8.718,-5.013,5.015,0.096
2220.0,-7.917,-4.312,8.718,-5.013,5.015,0.096
2224.0,-7.917,-4.312,8.718,-5.013,5.015,0.096
2228.0,-8.648,-4.75,8.3,-5.013,5.015,0.262
2232.0,-8.648,-4.75,8.3,-5.013,5.015,0.262
2236.0,-9.405,-5.014,7.831,-5.013,5.015,0.491
2240.0,-9.405,-5.014,7.831,-5.013,5.015,0.491
2244.0,-9.405,-5.014,7.831,-5.013,5.015,0.491
2247.0,-10.572,-5.331,7.171,-5.013,5.015,0.805
2251.0,-10.572,-5.331,7.171,-5.013,5.015,0.805
2255.0,-12.165,-5.561,6.288,-5.013,5.015,1.198
2259.0,-12.165,-5.561,6.288,-5.013,5.015,1.198
2263.0,-12.165,-5.561,6.288,-5.013,5.015,1.198
2267.0,-14.2,-5.786,5.444,-5.013,5.015,1.652
2271.0,-14.2,-5.786,5.444,-5.013,5.015,1.652
2275.0,-16.773,-6.43,5.212,-5.013,5.015,2.116
2279.0,-16.773,-6.43,5.212,-5.013,5.015,2.116
2283.0,-16.773,-6.43,5.212,-5.013,5.015,2.116
2287.0,-19.31,-7.675,5.538,-5.013,5.015,2.517
2291.0,-19.31,-7.675,5.538,-5.013,5.015,2.517
2295.0,-19.6,-8.187,5.472,-5.013,5.015,2.821
2299.0,-19.6,-8.187,5.472,-5.013,5.015,2.821
2303.0,-19.6,-8.187,5.472,-5.013,5.015,2.821
2307.0,-19.6,-7.881,5.209,-5.013,5.015,3.1
2311.0,-19.6,-7.881,5.209,-5.013,5.015,3.1
2315.0,-19.6,-7.768,5.465,-5.013,5.015,3.406
2319.0,-19.6,-7.768,5.465,-5.013,5.015,3.406
2323.0,-19.6,-7.768,5.612,-5.013,5.015,3.406
2327.0,-19.6,-7.783,5.612,-5.013,5.015,3.716
2331.0,-19.6,-7.783,5.612,-5.013,5.015,3.716
2335.0,-19.6,-8.103,5.972,-5.013,5.015,3.996
2339.0,-19.6,-8.103,5.972,-5.013,5.015,3.996
2343.0,-19.6,-8.375,6.164,-5.013,5.015,3.996
2347.0,-19.6,-8.375,6.164,-5.013,5.014,4.199
2351.0,-19.6,-8.375,6.164,-5.013,5.014,4.199
2355.0,-19.6,-8.147,5.786,-5.013,4.834,4.307
2359.0,-19.6,-8.147,5.786,-5.013,4.834,4.307
2363.0,-19.6,-7.647,5.194,-5.013,4.834,4.307
2367.0,-19.6,-7.647,5.194,-4.971,4.333,4.294
2371.0,-19.6,-7.647,5.194,-4.971,4.333,4.294
2375.0,-19.6,-6.775,4.443,-4.796,3.849,4.122
2379.0,-19.6,-6.775,4.443,-4.796,3.849,4.122
2383.0,-19.6,-5.758,3.707,-4.796,3.849,3.785
2387.0,-19.6,-5.758,3.707,-4.639,3.474,3.785
2391.0,-19.6,-5.758,3.707,-4.639,3.474,3.785
2395.0,-19.6,-4.819,3.19,-4.543,3.226,3.295
2399.0,-19.6,-4.819,3.19,-4.543,3.226,3.295
2403.0,-19.6,-4.056,3.078,-4.543,3.077,2.672
2407.0,-19.6,-4.056,3.078,-4.477,3.077,2.672
2411.0,-19.6,-4.056,3.078,-4.477,3.077,2.672
2415.0,-18.803,-3.465,3.224,-4.413,2.963,1.978
2419.0,-18.803,-3.465,3.224,-4.413,2.963,1.978
2423.0,-17.529,-3.036,3.561,-4.344,2.827,1.321
2427.0,-17.529,-3.036,3.561,-4.344,2.827,1.321
2431.0,-17.529,-3.036,3.561,-4.344,2.827,1.321
2435.0,-16.723,-2.878,4.038,-4.258,2.658,0.799
2439.0,-16.723,-2.878,4.038,-4.258,2.658,0.799
2443.0,-16.167,-2.975,4.356,-4.131,2.469,0.428
2447.0,-16.167,-2.975,4.356,-4.131,2.469,0.428
2451.0,-16.167,-2.975,4.356,-4.131,2.469,0.428
2455.0,-15.696,-3.275,4.489,-3.949,2.288,0.162
2459.0,-15.696,-3.275,4.489,-3.949,2.288,0.162
2463.0,-15.237,-3.574,4.469,-3.715,2.127,-0.033
2467.0,-15.237,-3.574,4.469,-3.715,2.127,-0.033
2471.0,-15.237,-3.574,4.469,-3.715,2.127,-0.033
2475.0,-14.785,-3.972,4.509,-3.444,1.99,-0.177
2479.0,-14.785,-3.972,4.509,-3.444,1.99,-0.177
2483.0,-14.27,-4.296,4.518,-3.13,1.865,-0.266
2488.0,-14.27,-4.296,4.518,-3.13,1.865,-0.266
2492.0,-13.589,-4.756,4.624,-3.13,1.865,-0.266
2496.0,-13.589,-4.756,4.624,-2.794,1.724,-0.306
2500.0,-13.589,-4.756,4.624,-2.794,1.724,-0.306
2504.0,-12.811,-5.335,4.778,-2.425,1.58,-0.319
2508.0,-12.811,-5.335,4.778,-2.425,1.58,-0.319
2512.0,-12.076,-5.736,4.881,-2.033,1.433,-0.34
2516.0,-12.076,-5.736,4.881,-2.033,1.433,-0.34
2520.0,-12.076,-5.736,4.881,-2.033,1.433,-0.34
2524.0,-11.326,-5.891,4.893,-1.633,1.285,-0.365
2528.0,-11.326,-5.891,4.893,-1.633,1.285,-0.365
2532.0,-10.634,-5.916,4.92,-1.23,1.144,-0.379
2536.0,-10.634,-5.916,4.92,-1.23,1.144,-0.379
2541.0,-10.634,-5.916,4.856,-1.23,1.144,-0.379
2545.0,-10.094,-5.854,4.856,-0.831,1.009,-0.38
2549.0,-10.094,-5.854,4.856,-0.831,1.009,-0.38
2553.0,-9.763,-5.617,4.722,-0.451,0.876,-0.37
2557.0,-9.763,-5.617,4.722,-0.451,0.876,-0.37
2561.0,-9.581,-5.349,4.661,-0.451,0.876,-0.337
2565.0,-9.581,-5.349,4.661,-0.095,0.747,-0.337
2569.0,-9.581,-5.349,4.661,-0.095,0.747,-0.337
2573.0,-9.395,-5.101,4.717,0.242,0.612,-0.281
2577.0,-9.395,-5.101,4.717,0.242,0.612,-0.281
2581.0,-9.172,-4.804,4.823,0.242,0.612,-0.212
2584.0,-9.172,-4.804,4.823,0.56,0.462,-0.212
2588.0,-9.172,-4.804,4.823,0.56,0.462,-0.212
2592.0,-8.879,-4.491,4.887,0.853,0.293,-0.139
2596.0,-8.879,-4.491,4.887,0.853,0.293,-0.139
2600.0,-8.587,-4.171,4.921,0.853,0.293,-0.139
2604.0,-8.587,-4.171,4.921,1.115,0.112,-0.067
2608.0,-8.587,-4.171,4.921,1.115,0.112,-0.067
2612.0,-8.376,-3.835,4.925,1.334,-0.073,-0.007
2616.0,-8.376,-3.835,4.925,1.334,-0.073,-0.007
2620.0,-8.253,-3.443,4.911,1.334,-0.073,-0.007
2624.0,-8.253,-3.443,4.911,1.51,-0.258,0.043
2628.0,-8.253,-3.443,4.911,1.51,-0.258,0.043
2632.0,-8.229,-3.096,5.046,1.642,-0.437,0.091
2636.0,-8.229,-3.096,5.046,1.642,-0.437,0.091
2639.0,-8.229,-2.812,5.099,1.642,-0.437,0.091
2643.0,-8.488,-2.812,5.099,1.734,-0.615,0.128
2647.0,-8.488,-2.812,5.099,1.734,-0.615,0.128
2651.0,-9.035,-2.515,4.942,1.788,-0.79,0.154
2655.0,-9.035,-2.515,4.942,1.788,-0.79,0.154
2659.0,-9.035,-2.515,4.646,1.788,-0.79,0.154
2663.0,-9.582,-2.233,4.646,1.804,-0.957,0.165
2667.0,-9.582,-2.233,4.646,1.804,-0.957,0.165
2671.0,-9.692,-2.061,4.327,1.779,-1.119,0.146
2675.0,-9.692,-2.061,4.327,1.779,-1.119,0.146
2679.0,-9.692,-2.061,4.327,1.779,-1.119,0.146
2682.0,-9.26,-1.886,4.12,1.723,-1.266,0.061
2686.0,-9.26,-1.886,4.12,1.723,-1.266,0.061
2690.0,-8.654,-1.624,3.921,1.652,-1.387,-0.114
2694.0,-8.654,-1.624,3.921,1.652,-1.387,-0.114
2698.0,-8.654,-1.624,3.921,1.652,-1.387,-0.114
2702.0,-8.24,-1.281,3.729,1.578,-1.468,-0.361
2706.0,-8.24,-1.281,3.729,1.578,-1.468,-0.361
2710.0,-8.134,-0.894,3.596,1.5,-1.514,-0.616
2714.0,-8.134,-0.894,3.596,1.5,-1.514,-0.616
2718.0,-8.134,-0.894,3.501,1.5,-1.514,-0.616
2722.0,-8.19,-0.589,3.501,1.413,-1.533,-0.827
2726.0,-8.19,-0.589,3.501,1.413,-1.533,-0.827
2730.0,-8.289,-0.437,3.51,1.322,-1.525,-0.97
2734.0,-8.289,-0.437,3.51,1.322,-1.525,-0.97
2738.0,-8.289,-0.413,3.627,1.322,-1.525,-0.97
2742.0,-8.409,-0.413,3.627,1.242,-1.499,-1.051
2746.0,-8.409,-0.413,3.627,1.242,-1.499,-1.051
2750.0,-8.502,-0.625,3.779,1.187,-1.473,-1.073
2754.0,-8.502,-0.625,3.779,1.187,-1.473,-1.073
2758.0,-8.609,-0.765,3.778,1.187,-1.473,-1.073
2762.0,-8.609,-0.765,3.778,1.163,-1.464,-1.054
2766.0,-8.609,-0.765,3.778,1.163,-1.464,-1.054
2770.0,-8.743,-0.996,3.691,1.148,-1.475,-1.011
2774.0,-8.743,-0.996,3.691,1.148,-1.475,-1.011
2778.0,-8.901,-1.226,3.495,1.148,-1.475,-0.954
2782.0,-8.901,-1.226,3.495,1.147,-1.496,-0.954
2786.0,-8.901,-1.226,3.495,1.147,-1.496,-0.954
2790.0,-9.074,-1.508,3.249,1.157,-1.526,-0.883
2794.0,-9.074,-1.508,3.249,1.157,-1.526,-0.883
2798.0,-9.2,-1.811,2.938,1.157,-1.563,-0.794
2802.0,-9.2,-1.811,2.938,1.178,-1.563,-0.794
2806.0,-9.2,-1.811,2.938,1.178,-1.563,-0.794
2810.0,-9.261,-2.056,2.505,1.207,-1.596,-0.687
2814.0,-9.261,-2.056,2.505,1.207,-1.596,-0.687
2818.0,-9.31,-2.319,2.052,1.236,-1.62,-0.563
2822.0,-9.31,-2.319,2.052,1.236,-1.62,-0.563
2826.0,-9.31,-2.319,2.052,1.236,-1.62,-0.563
2830.0,-9.409,-2.573,1.624,1.254,-1.636,-0.421
2834.0,-9.409,-2.573,1.624,1.254,-1.636,-0.421
2838.0,-9.686,-2.775,1.189,1.257,-1.652,-0.256
2842.0,-9.686,-2.775,1.189,1.257,-1.652,-0.256
2846.0,-9.686,-2.775,1.189,1.257,-1.652,-0.256
2850.0,-10.154,-3.126,0.836,1.237,-1.675,-0.07
2854.0,-10.154,-3.126,0.836,1.237,-1.675,-0.07
2858.0,-10.887,-3.613,0.456,1.206,-1.709,0.128
2862.0,-10.887,-3.613,0.456,1.206,-1.709,0.128
2866.0,-10.887,-3.613,0.456,1.206,-1.709,0.128
2870.0,-11.758,-4.159,-0.127,1.178,-1.757,0.333
2874.0,-11.758,-4.159,-0.127,1.178,-1.757,0.333
2878.0,-12.441,-4.67,-0.825,1.158,-1.803,0.542
2882.0,-12.441,-4.67,-0.825,1.158,-1.803,0.542
2886.0,-12.755,-5.058,-1.482,1.158,-1.803,0.542
2890.0,-12.755,-5.058,-1.482,1.142,-1.832,0.751
2895.0,-12.755,-5.058,-1.482,1.142,-1.832,0.751
2899.0,-12.688,-5.297,-1.993,1.122,-1.827,0.949
2903.0,-12.688,-5.297,-1.993,1.122,-1.827,0.949
2907.0,-12.389,-5.334,-2.313,1.092,-1.786,1.11
2911.0,-12.389,-5.334,-2.313,1.092,-1.786,1.11
2915.0,-12.389,-5.334,-2.313,1.092,-1.786,1.11
2919.0,-12.013,-5.311,-2.477,1.055,-1.719,1.215
2923.0,-12.013,-5.311,-2.477,1.055,-1.719,1.215
2927.0,-11.665,-5.265,-2.566,1.021,-1.633,1.257
2931.0,-11.665,-5.265,-2.566,1.021,-1.633,1.257
2935.0,-11.665,-5.265,-2.563,1.021,-1.633,1.257
2939.0,-11.474,-5.192,-2.563,0.996,-1.531,1.252
2944.0,-11.474,-5.192,-2.563,0.996,-1.531,1.252
2948.0,-11.484,-5.075,-2.548,0.982,-1.413,1.216
2952.0,-11.484,-5.075,-2.548,0.982,-1.413,1.216
2956.0,-11.618,-4.93,-2.611,0.982,-1.413,1.168
2960.0,-11.618,-4.93,-2.611,0.974,-1.281,1.168
2964.0,-11.618,-4.93,-2.611,0.974,-1.281,1.168
2968.0,-11.627,-4.686,-2.638,0.959,-1.142,1.116
2972.0,-11.627,-4.686,-2.638,0.959,-1.142,1.116
2976.0,-11.41,-4.403,-2.548,0.929,-1.004,1.059
2980.0,-11.41,-4.403,-2.548,0.929,-1.004,1.059
2984.0,-11.41,-4.403,-2.548,0.929,-1.004,1.059
2988.0,-11.006,-4.079,-2.362,0.886,-0.867,0.989
2992.0,-11.006,-4.079,-2.362,0.886,-0.867,0.989
2997.0,-10.558,-3.8,-2.185,0.835,-0.729,0.905
