deltaTime,Acc_X,Acc_Y,Acc_Z,Gyro_X,Gyro_Y,Gyro_Z
0.0,-6.349,3.686,7.564,-0.6,0.287,-0.065
3.0,-6.349,3.686,7.564,-0.6,0.287,-0.065
6.0,-6.331,2.875,7.749,-0.619,0.287,0.004
9.0,-6.331,2.875,7.749,-0.619,0.287,0.004
12.0,-6.331,2.875,7.749,-0.619,0.287,0.004
15.0,-6.404,1.863,7.939,-0.503,0.284,0.094
18.0,-6.404,1.863,7.939,-0.503,0.284,0.094
21.0,-6.404,1.863,7.939,-0.503,0.284,0.094
24.0,-6.492,0.826,8.029,-0.503,0.284,0.094
27.0,-6.492,0.826,8.029,-0.225,0.273,0.185
30.0,-6.492,0.826,8.029,-0.225,0.273,0.185
33.0,-6.492,0.826,8.029,-0.225,0.273,0.185
36.0,-6.403,0.111,7.88,0.204,0.262,0.253
39.0,-6.403,0.111,7.88,0.204,0.262,0.253
42.0,-6.403,0.111,7.88,0.204,0.262,0.253
46.0,-6.19,-0.022,7.674,0.719,0.258,0.274
49.0,-6.19,-0.022,7.674,0.719,0.258,0.274
53.0,-6.19,-0.022,7.424,0.719,0.258,0.274
57.0,-6.083,0.43,7.424,1.232,0.254,0.252
60.0,-6.083,0.43,7.424,1.232,0.254,0.252
64.0,-6.254,1.104,7.28,1.232,0.243,0.206
67.0,-6.254,1.104,7.28,1.668,0.243,0.206
71.0,-6.254,1.104,7.28,1.668,0.243,0.206
74.0,-6.322,1.959,7.244,1.994,0.222,0.17
78.0,-6.322,1.959,7.244,1.994,0.222,0.17
82.0,-6.322,1.959,7.244,1.994,0.222,0.17
85.0,-6.594,2.554,7.33,2.168,0.248,0.133
89.0,-6.594,2.554,7.33,2.168,0.248,0.133
92.0,-6.594,2.554,7.33,2.168,0.248,0.133
96.0,-7.241,2.818,7.379,2.234,0.293,0.085
99.0,-7.241,2.818,7.379,2.234,0.293,0.085
103.0,-7.375,3.944,7.153,2.234,0.293,0.027
107.0,-7.375,3.944,7.153,2.256,0.251,0.027
110.0,-7.375,3.944,7.153,2.256,0.251,0.027
114.0,-7.316,6.198,6.173,2.036,0.209,-0.078
118.0,-7.316,6.198,6.173,2.036,0.209,-0.078
121.0,-7.316,6.198,6.173,2.036,0.209,-0.078
125.0,-7.035,7.516,5.598,1.469,0.134,-0.198
129.0,-7.035,7.516,5.598,1.469,0.134,-0.198
133.0,-6.977,7.134,5.501,1.469,0.134,-0.236
136.0,-6.977,7.134,5.501,0.766,0.101,-0.236
140.0,-6.977,7.134,5.501,0.766,0.101,-0.236
144.0,-7.197,5.801,5.843,0.211,0.1,-0.187
147.0,-7.197,5.801,5.843,0.211,0.1,-0.187
151.0,-7.197,5.801,5.843,0.211,0.1,-0.187
155.0,-7.232,4.625,6.159,-0.079,0.098,-0.1
159.0,-7.232,4.625,6.159,-0.079,0.098,-0.1
163.0,-6.929,4.053,6.319,-0.161,0.091,-0.027
166.0,-6.929,4.053,6.319,-0.161,0.091,-0.027
170.0,-6.929,4.053,6.319,-0.161,0.091,-0.027
174.0,-6.477,4.244,6.308,-0.167,0.084,0.017
178.0,-6.477,4.244,6.308,-0.167,0.084,0.017
182.0,-6.477,4.995,6.136,-0.167,0.084,0.017
185.0,-6.122,4.995,6.136,-0.234,0.085,0.033
189.0,-6.122,4.995,6.136,-0.234,0.085,0.033
193.0,-5.98,5.573,6.187,-0.431,0.117,0.045
196.0,-5.98,5.573,6.187,-0.431,0.117,0.045
200.0,-5.98,5.573,6.187,-0.431,0.117,0.045
204.0,-6.003,5.677,6.474,-0.704,0.165,0.065
208.0,-6.003,5.677,6.474,-0.704,0.165,0.065
211.0,-6.195,5.115,7.025,-0.704,0.165,0.065
215.0,-6.195,5.115,7.025,-0.985,0.224,0.102
219.0,-6.195,5.115,7.025,-0.985,0.224,0.102
223.0,-6.498,3.875,7.792,-1.118,0.265,0.166
226.0,-6.498,3.875,7.792,-1.118,0.265,0.166
230.0,-6.498,3.875,7.792,-1.118,0.265,0.166
234.0,-6.909,2.634,8.371,-1.049,0.272,0.238
237.0,-6.909,2.634,8.371,-1.049,0.272,0.238
241.0,-7.226,2.071,8.581,-1.049,0.272,0.271
245.0,-7.226,2.071,8.581,-0.832,0.247,0.271
249.0,-7.226,2.071,8.581,-0.832,0.247,0.271
252.0,-7.131,1.934,8.59,-0.566,0.184,0.244
256.0,-7.131,1.934,8.59,-0.566,0.184,0.244
260.0,-7.131,1.934,8.59,-0.566,0.184,0.244
264.0,-6.988,2.264,8.431,-0.319,0.118,0.194
267.0,-6.988,2.264,8.431,-0.319,0.118,0.194
271.0,-6.951,2.837,8.076,-0.319,0.066,0.139
275.0,-6.951,2.837,8.076,-0.15,0.066,0.139
279.0,-6.951,2.837,8.076,-0.15,0.066,0.139
282.0,-7.054,3.374,7.711,-0.077,0.026,0.094
286.0,-7.054,3.374,7.711,-0.077,0.026,0.094
290.0,-7.054,3.374,7.711,-0.077,0.026,0.094
293.0,-7.057,3.691,7.451,-0.092,0.009,0.066
297.0,-7.057,3.691,7.451,-0.092,0.009,0.066
301.0,-7.451,3.655,7.487,-0.168,0.028,0.053
305.0,-7.451,3.655,7.487,-0.168,0.028,0.053
308.0,-7.451,3.655,7.487,-0.168,0.028,0.053
312.0,-7.554,3.747,7.669,-0.254,-0.017,0.055
316.0,-7.554,3.747,7.669,-0.254,-0.017,0.055
320.0,-7.554,3.854,7.705,-0.254,-0.017,0.055
324.0,-7.711,3.854,7.705,-0.391,-0.058,0.045
327.0,-7.711,3.854,7.705,-0.391,-0.058,0.045
331.0,-7.405,4.166,7.494,-0.576,-0.153,-0.0
335.0,-7.405,4.166,7.494,-0.576,-0.153,-0.0
339.0,-7.405,4.166,7.494,-0.576,-0.153,-0.0
343.0,-7.936,3.855,7.549,-0.8,-0.274,-0.054
347.0,-7.936,3.855,7.549,-0.8,-0.274,-0.054
351.0,-8.211,3.531,7.663,-0.978,-0.401,-0.078
355.0,-8.211,3.531,7.663,-0.978,-0.401,-0.078
359.0,-8.211,3.531,7.663,-0.978,-0.401,-0.078
362.0,-8.135,3.212,7.744,-1.088,-0.512,-0.075
366.0,-8.135,3.212,7.744,-1.088,-0.512,-0.075
370.0,-7.851,2.852,7.789,-1.135,-0.603,-0.062
374.0,-7.851,2.852,7.789,-1.135,-0.603,-0.062
378.0,-7.851,2.852,7.789,-1.135,-0.603,-0.062
382.0,-7.463,2.505,7.893,-1.131,-0.669,-0.06
386.0,-7.463,2.505,7.893,-1.131,-0.669,-0.06
390.0,-7.081,2.26,8.088,-1.072,-0.708,-0.081
394.0,-7.081,2.26,8.088,-1.072,-0.708,-0.081
398.0,-7.081,2.26,8.088,-1.072,-0.708,-0.081
402.0,-6.888,2.123,8.444,-0.956,-0.729,-0.113
405.0,-6.888,2.123,8.444,-0.956,-0.729,-0.113
409.0,-6.968,2.071,8.91,-0.788,-0.75,-0.142
413.0,-6.968,2.071,8.91,-0.788,-0.75,-0.142
417.0,-6.968,2.071,8.91,-0.788,-0.75,-0.142
421.0,-7.203,2.129,9.406,-0.571,-0.791,-0.152
425.0,-7.203,2.129,9.406,-0.571,-0.791,-0.152
429.0,-7.469,2.27,9.902,-0.571,-0.861,-0.138
433.0,-7.469,2.27,9.902,-0.317,-0.861,-0.138
437.0,-7.469,2.27,9.902,-0.317,-0.861,-0.138
441.0,-7.635,2.444,10.208,-0.047,-0.962,-0.099
445.0,-7.635,2.444,10.208,-0.047,-0.962,-0.099
449.0,-7.52,2.63,10.186,-0.047,-1.077,-0.044
453.0,-7.52,2.63,10.186,0.209,-1.077,-0.044
457.0,-7.52,2.63,10.186,0.209,-1.077,-0.044
460.0,-7.207,2.859,10.171,0.425,-1.174,0.012
464.0,-7.207,2.859,10.171,0.425,-1.174,0.012
468.0,-7.008,3.051,10.309,0.425,-1.174,0.012
472.0,-7.008,3.051,10.309,0.589,-1.249,0.071
476.0,-7.008,3.051,10.309,0.589,-1.249,0.071
480.0,-6.963,3.222,10.461,0.704,-1.324,0.127
483.0,-6.963,3.222,10.461,0.704,-1.324,0.127
487.0,-6.963,3.222,10.461,0.704,-1.324,0.127
491.0,-7.114,3.449,10.695,0.781,-1.414,0.168
495.0,-7.114,3.449,10.695,0.781,-1.414,0.168
499.0,-7.285,3.773,11.045,0.836,-1.528,0.202
502.0,-7.285,3.773,11.045,0.836,-1.528,0.202
506.0,-7.285,3.773,11.045,0.836,-1.528,0.202
510.0,-7.423,4.095,11.503,0.879,-1.664,0.239
514.0,-7.423,4.095,11.503,0.879,-1.664,0.239
518.0,-7.536,4.293,12.023,0.879,-1.813,0.283
522.0,-7.536,4.293,12.023,0.917,-1.813,0.283
525.0,-7.536,4.293,12.023,0.917,-1.813,0.283
529.0,-7.658,4.457,12.401,0.953,-1.964,0.32
533.0,-7.658,4.457,12.401,0.953,-1.964,0.32
537.0,-7.658,4.457,12.836,0.953,-1.964,0.32
541.0,-7.816,4.701,12.836,0.99,-2.109,0.349
544.0,-7.816,4.701,12.836,0.99,-2.109,0.349
548.0,-7.937,4.845,13.21,1.023,-2.264,0.375
552.0,-7.937,4.845,13.21,1.023,-2.264,0.375
556.0,-7.937,4.845,13.21,1.023,-2.264,0.375
560.0,-7.918,4.721,13.477,1.062,-2.429,0.396
564.0,-7.918,4.721,13.477,1.062,-2.429,0.396
567.0,-7.676,4.631,13.72,1.121,-2.58,0.405
571.0,-7.676,4.631,13.72,1.121,-2.58,0.405
575.0,-7.676,4.631,13.72,1.121,-2.58,0.405
579.0,-7.358,4.579,13.868,1.207,-2.714,0.414
583.0,-7.358,4.579,13.868,1.207,-2.714,0.414
586.0,-7.169,4.479,14.075,1.207,-2.714,0.414
590.0,-7.169,4.479,14.075,1.312,-2.84,0.435
594.0,-7.169,4.479,14.075,1.312,-2.84,0.435
598.0,-7.164,4.305,14.054,1.428,-2.982,0.47
602.0,-7.164,4.305,14.054,1.428,-2.982,0.47
606.0,-7.164,4.305,14.054,1.428,-2.982,0.47
609.0,-6.995,4.016,13.762,1.536,-3.137,0.502
613.0,-6.995,4.016,13.762,1.536,-3.137,0.502
617.0,-6.622,3.735,13.504,1.629,-3.283,0.51
621.0,-6.622,3.735,13.504,1.629,-3.283,0.51
625.0,-6.622,3.735,13.504,1.629,-3.283,0.51
628.0,-6.186,3.43,13.555,1.722,-3.411,0.5
632.0,-6.186,3.43,13.555,1.722,-3.411,0.5
636.0,-5.852,3.286,13.783,1.722,-3.411,0.499
640.0,-5.852,3.286,13.783,1.82,-3.528,0.499
644.0,-5.852,3.286,13.783,1.82,-3.528,0.499
648.0,-5.513,3.203,13.812,1.925,-3.65,0.499
651.0,-5.513,3.203,13.812,1.925,-3.65,0.499
655.0,-5.513,3.203,13.545,1.925,-3.65,0.499
659.0,-4.985,3.041,13.545,2.017,-3.772,0.479
663.0,-4.985,3.041,13.545,2.017,-3.772,0.479
667.0,-4.466,2.927,13.264,2.089,-3.889,0.433
670.0,-4.466,2.927,13.264,2.089,-3.889,0.433
674.0,-4.466,2.927,13.264,2.089,-3.889,0.433
678.0,-4.209,2.548,13.038,2.133,-4.0,0.384
682.0,-4.209,2.548,13.038,2.133,-4.0,0.384
686.0,-4.05,1.933,12.669,2.159,-4.097,0.326
690.0,-4.05,1.933,12.669,2.159,-4.097,0.326
693.0,-4.05,1.933,12.669,2.159,-4.097,0.326
697.0,-3.714,1.469,12.3,2.192,-4.177,0.239
701.0,-3.714,1.469,12.3,2.192,-4.177,0.239
705.0,-3.272,0.877,11.822,2.192,-4.177,0.239
709.0,-3.272,0.877,11.822,2.237,-4.237,0.112
712.0,-3.272,0.877,11.822,2.237,-4.237,0.112
716.0,-2.765,0.441,11.228,2.289,-4.283,-0.058
720.0,-2.765,0.441,11.228,2.289,-4.283,-0.058
724.0,-2.765,0.441,11.228,2.289,-4.283,-0.058
728.0,-2.416,0.219,10.39,2.342,-4.26,-0.232
732.0,-2.416,0.219,10.39,2.342,-4.26,-0.232
736.0,-1.909,0.084,9.553,2.441,-4.265,-0.373
740.0,-1.909,0.084,9.553,2.441,-4.265,-0.373
743.0,-1.909,0.084,9.553,2.441,-4.265,-0.373
747.0,-1.251,-0.023,9.022,2.579,-4.285,-0.474
751.0,-1.251,-0.023,9.022,2.579,-4.285,-0.474
755.0,-1.141,-0.32,8.474,2.725,-4.256,-0.576
759.0,-1.141,-0.32,8.474,2.725,-4.256,-0.576
763.0,-1.141,-0.32,8.474,2.725,-4.256,-0.576
767.0,-0.905,-0.403,7.611,2.897,-4.225,-0.687
771.0,-0.905,-0.403,7.611,2.897,-4.225,-0.687
775.0,-0.349,-0.203,6.762,3.084,-4.182,-0.794
779.0,-0.349,-0.203,6.762,3.084,-4.182,-0.794
782.0,-0.349,-0.203,6.762,3.084,-4.182,-0.794
786.0,0.175,0.226,5.962,3.28,-4.114,-0.891
790.0,0.175,0.226,5.962,3.28,-4.114,-0.891
794.0,0.688,0.713,5.015,3.28,-4.114,-0.891
798.0,0.688,0.713,5.015,3.463,-4.021,-0.979
801.0,0.688,0.713,5.015,3.463,-4.021,-0.979
805.0,1.194,1.339,4.089,3.611,-3.906,-1.065
809.0,1.194,1.339,4.089,3.611,-3.906,-1.065
812.0,1.194,1.339,4.089,3.611,-3.906,-1.065
816.0,1.433,2.041,3.114,3.718,-3.756,-1.133
820.0,1.433,2.041,3.114,3.718,-3.756,-1.133
824.0,1.756,2.894,2.341,3.718,-3.628,-1.158
827.0,1.756,2.894,2.341,3.793,-3.628,-1.158
831.0,1.756,2.894,2.341,3.793,-3.628,-1.158
835.0,1.932,3.625,1.773,3.825,-3.496,-1.151
839.0,1.932,3.625,1.773,3.825,-3.496,-1.151
842.0,1.932,3.625,1.773,3.825,-3.496,-1.151
846.0,1.877,4.449,1.217,3.835,-3.355,-1.134
850.0,1.877,4.449,1.217,3.835,-3.355,-1.134
854.0,1.862,5.296,0.572,3.834,-3.212,-1.092
857.0,1.862,5.296,0.572,3.834,-3.212,-1.092
861.0,1.862,5.296,0.572,3.834,-3.212,-1.092
865.0,2.203,6.101,-0.308,3.82,-3.048,-1.025
869.0,2.203,6.101,-0.308,3.82,-3.048,-1.025
872.0,2.203,6.101,-1.442,3.82,-3.048,-1.025
876.0,2.871,6.995,-1.442,3.784,-2.843,-0.941
880.0,2.871,6.995,-1.442,3.784,-2.843,-0.941
884.0,3.595,7.988,-2.824,3.745,-2.583,-0.842
888.0,3.595,7.988,-2.824,3.745,-2.583,-0.842
891.0,3.595,7.988,-2.824,3.745,-2.583,-0.842
895.0,4.399,9.184,-4.278,3.714,-2.281,-0.709
899.0,4.399,9.184,-4.278,3.714,-2.281,-0.709
903.0,5.145,10.372,-5.478,3.693,-1.923,-0.529
907.0,5.145,10.372,-5.478,3.693,-1.923,-0.529
911.0,5.145,10.372,-5.478,3.693,-1.923,-0.529
915.0,5.645,11.621,-6.458,3.701,-1.515,-0.31
919.0,5.645,11.621,-6.458,3.701,-1.515,-0.31
922.0,6.09,12.963,-7.565,3.701,-1.063,-0.033
926.0,6.09,12.963,-7.565,3.758,-1.063,-0.033
930.0,6.09,12.963,-7.565,3.758,-1.063,-0.033
934.0,6.397,14.251,-8.394,3.863,-0.57,0.305
938.0,6.397,14.251,-8.394,3.863,-0.57,0.305
942.0,6.714,15.45,-9.4,3.863,-0.57,0.305
946.0,6.714,15.45,-9.4,3.981,-0.056,0.694
949.0,6.714,15.45,-9.4,3.981,-0.056,0.694
953.0,7.263,16.565,-10.887,4.069,0.494,1.147
957.0,7.263,16.565,-10.887,4.069,0.494,1.147
961.0,7.263,16.565,-10.887,4.069,0.494,1.147
965.0,8.081,17.871,-12.7,4.105,1.116,1.655
969.0,8.081,17.871,-12.7,4.105,1.116,1.655
972.0,8.917,19.068,-14.17,4.084,1.819,2.207
976.0,8.917,19.068,-14.17,4.084,1.819,2.207
980.0,8.917,19.068,-14.17,4.084,1.819,2.207
984.0,9.268,19.563,-14.687,3.985,2.554,2.797
988.0,9.268,19.563,-14.687,3.985,2.554,2.797
991.0,9.345,19.596,-14.478,3.985,2.554,3.38
995.0,9.345,19.596,-14.478,3.764,3.223,3.38
999.0,9.345,19.596,-14.478,3.764,3.223,3.38
1003.0,8.914,19.577,-14.03,3.407,3.881,3.92
1007.0,8.914,19.577,-14.03,3.407,3.881,3.92
1011.0,8.914,18.701,-12.654,3.407,3.881,3.92
1015.0,7.757,18.701,-12.654,2.935,4.519,4.416
1019.0,7.757,18.701,-12.654,2.935,4.519,4.416
1022.0,6.17,17.321,-11.335,2.4,4.959,4.814
1026.0,6.17,17.321,-11.335,2.4,4.959,4.814
1030.0,6.17,17.321,-9.345,2.4,4.959,4.814
1034.0,4.028,15.647,-9.345,1.831,5.015,5.003
1038.0,4.028,15.647,-9.345,1.831,5.015,5.003
1042.0,1.135,13.582,-6.578,1.201,5.015,5.013
1046.0,1.135,13.582,-6.578,1.201,5.015,5.013
1049.0,1.135,13.582,-6.578,1.201,5.015,5.013
1053.0,-2.581,11.424,-3.7,0.471,5.015,5.013
1057.0,-2.581,11.424,-3.7,0.471,5.015,5.013
1061.0,-7.33,9.252,-0.237,-0.425,5.015,5.013
1065.0,-7.33,9.252,-0.237,-0.425,5.015,5.013
1069.0,-7.33,9.252,-0.237,-0.425,5.015,5.013
1073.0,-13.113,6.679,3.651,-1.549,5.015,5.013
1077.0,-13.113,6.679,3.651,-1.549,5.015,5.013
1081.0,-18.987,3.367,5.065,-2.809,4.9,4.902
1084.0,-18.987,3.367,5.065,-2.809,4.9,4.902
1088.0,-18.987,3.367,5.065,-2.809,4.9,4.902
1092.0,-19.6,-1.051,4.496,-3.944,4.14,4.366
1096.0,-19.6,-1.051,4.496,-3.944,4.14,4.366
1100.0,-19.6,-4.96,5.514,-3.944,3.027,3.646
1104.0,-19.6,-4.96,5.514,-4.686,3.027,3.646
1108.0,-19.6,-4.96,5.514,-4.686,3.027,3.646
1112.0,-17.389,-8.115,6.934,-4.939,1.769,2.844
1116.0,-17.389,-8.115,6.934,-4.939,1.769,2.844
1120.0,-13.584,-10.918,7.552,-4.767,0.513,1.956
1124.0,-13.584,-10.918,7.552,-4.767,0.513,1.956
1128.0,-13.584,-10.918,7.552,-4.767,0.513,1.956
1132.0,-10.856,-12.479,7.521,-4.29,-0.601,0.999
1137.0,-10.856,-12.479,7.521,-4.29,-0.601,0.999
1141.0,-8.128,-12.963,6.864,-3.622,-1.475,0.096
1145.0,-8.128,-12.963,6.864,-3.622,-1.475,0.096
1149.0,-8.128,-12.401,5.785,-3.622,-1.475,0.096
1153.0,-5.433,-12.401,5.785,-2.817,-2.08,-0.683
1157.0,-5.433,-12.401,5.785,-2.817,-2.08,-0.683
1161.0,-3.05,-11.225,4.847,-1.932,-2.452,-1.293
1166.0,-3.05,-11.225,4.847,-1.932,-2.452,-1.293
1170.0,-1.391,-9.867,4.205,-1.067,-2.669,-1.742
1174.0,-1.391,-9.867,4.205,-1.067,-2.669,-1.742
1178.0,-1.391,-9.867,4.205,-1.067,-2.669,-1.742
1182.0,-0.483,-8.239,3.509,-0.328,-2.82,-2.094
1186.0,-0.483,-8.239,3.509,-0.328,-2.82,-2.094
1190.0,-0.211,-6.416,2.646,0.21,-2.958,-2.411
1194.0,-0.211,-6.416,2.646,0.21,-2.958,-2.411
1198.0,-0.211,-6.416,1.604,0.21,-2.958,-2.411
1202.0,-0.103,-4.688,1.604,0.511,-3.102,-2.719
1206.0,-0.103,-4.688,1.604,0.511,-3.102,-2.719
1210.0,0.126,-3.124,0.683,0.593,-3.23,-3.028
1214.0,0.126,-3.124,0.683,0.593,-3.23,-3.028
1218.0,0.126,-3.124,0.026,0.593,-3.23,-3.028
1222.0,0.759,-1.644,0.026,0.528,-3.311,-3.328
1226.0,0.759,-1.644,0.026,0.528,-3.311,-3.328
1230.0,1.797,-0.256,-0.409,0.418,-3.323,-3.607
1234.0,1.797,-0.256,-0.409,0.418,-3.323,-3.607
1238.0,1.797,-0.256,-0.759,0.418,-3.323,-3.607
1242.0,3.162,1.16,-0.759,0.359,-3.284,-3.849
1245.0,3.162,1.16,-0.759,0.359,-3.284,-3.849
1249.0,4.783,2.688,-1.08,0.402,-3.218,-4.035
1253.0,4.783,2.688,-1.08,0.402,-3.218,-4.035
1257.0,4.783,2.688,-1.08,0.402,-3.218,-4.035
1261.0,6.166,3.899,-1.065,0.539,-3.143,-4.129
1265.0,6.166,3.899,-1.065,0.539,-3.143,-4.129
1269.0,6.99,4.845,-1.009,0.718,-3.071,-4.134
1273.0,6.99,4.845,-1.009,0.718,-3.071,-4.134
1277.0,6.99,4.845,-1.009,0.718,-3.071,-4.134
1281.0,6.909,5.965,-1.149,0.898,-2.979,-4.121
1285.0,6.909,5.965,-1.149,0.898,-2.979,-4.121
1288.0,6.423,7.396,-1.997,1.069,-2.88,-4.114
1292.0,6.423,7.396,-1.997,1.069,-2.88,-4.114
1296.0,6.423,7.396,-1.997,1.069,-2.88,-4.114
1300.0,6.077,9.034,-2.981,1.231,-2.787,-4.103
1304.0,6.077,9.034,-2.981,1.231,-2.787,-4.103
1308.0,5.993,11.048,-4.111,1.39,-2.702,-4.063
1312.0,5.993,11.048,-4.111,1.39,-2.702,-4.063
1316.0,5.993,11.048,-4.111,1.39,-2.702,-4.063
1320.0,6.129,12.952,-5.095,1.529,-2.617,-3.928
1324.0,6.129,12.952,-5.095,1.529,-2.617,-3.928
1328.0,6.523,14.908,-6.074,1.621,-2.506,-3.69
1332.0,6.523,14.908,-6.074,1.621,-2.506,-3.69
1336.0,6.523,14.908,-6.074,1.621,-2.506,-3.69
1340.0,7.235,16.975,-7.332,1.674,-2.347,-3.377
1344.0,7.235,16.975,-7.332,1.674,-2.347,-3.377
1348.0,8.332,19.025,-8.364,1.686,-2.138,-3.008
1352.0,8.332,19.025,-8.364,1.686,-2.138,-3.008
1356.0,8.332,19.025,-8.364,1.686,-2.138,-3.008
1360.0,9.699,19.595,-9.586,1.617,-1.876,-2.596
1364.0,9.699,19.595,-9.586,1.617,-1.876,-2.596
1368.0,10.84,19.596,-11.806,1.433,-1.515,-2.151
1372.0,10.84,19.596,-11.806,1.433,-1.515,-2.151
1376.0,11.613,19.596,-13.315,1.433,-1.515,-2.151
1380.0,11.613,19.596,-13.315,1.164,-1.019,-1.667
1385.0,11.613,19.596,-13.315,1.164,-1.019,-1.667
1389.0,11.257,19.596,-13.47,0.84,-0.414,-1.179
1393.0,11.257,19.596,-13.47,0.84,-0.414,-1.179
1397.0,10.075,19.596,-13.03,0.522,0.2,-0.686
1401.0,10.075,19.596,-13.03,0.522,0.2,-0.686
1405.0,10.075,19.596,-13.03,0.522,0.2,-0.686
1409.0,8.707,19.596,-12.247,0.27,0.783,-0.222
1413.0,8.707,19.596,-12.247,0.27,0.783,-0.222
1417.0,7.718,19.596,-11.599,0.126,1.305,0.15
1421.0,7.718,19.596,-11.599,0.126,1.305,0.15
1425.0,7.718,19.596,-11.7,0.126,1.305,0.15
1429.0,7.577,19.596,-11.7,0.098,1.781,0.46
1433.0,7.577,19.596,-11.7,0.098,1.781,0.46
1437.0,8.486,19.596,-12.762,0.209,2.252,0.802
1441.0,8.486,19.596,-12.762,0.209,2.252,0.802
1445.0,8.486,19.596,-12.762,0.209,2.252,0.802
1449.0,10.102,19.596,-14.776,0.453,2.767,1.203
1453.0,10.102,19.596,-14.776,0.453,2.767,1.203
1456.0,11.947,19.596,-17.149,0.749,3.388,1.65
1460.0,11.947,19.596,-17.149,0.749,3.388,1.65
1464.0,11.947,19.596,-17.149,0.749,3.388,1.65
1468.0,13.545,19.596,-18.578,1.014,4.126,2.133
1472.0,13.545,19.596,-18.578,1.014,4.126,2.133
1476.0,14.581,19.596,-18.584,1.22,4.834,2.629
1480.0,14.581,19.596,-18.584,1.22,4.834,2.629
1484.0,14.581,19.596,-16.765,1.22,4.834,2.629
1488.0,14.334,19.593,-16.765,1.366,5.015,3.115
1492.0,14.334,19.593,-16.765,1.366,5.015,3.115
1496.0,12.918,18.997,-13.947,1.408,5.015,3.585
1500.0,12.918,18.997,-13.947,1.408,5.015,3.585
1504.0,10.436,17.869,-10.96,1.408,5.015,3.585
1508.0,10.436,17.869,-10.96,1.361,5.015,4.042
1512.0,10.436,17.869,-10.96,1.361,5.015,4.042
1516.0,7.256,16.333,-8.369,1.24,5.015,4.495
1520.0,7.256,16.333,-8.369,1.24,5.015,4.495
1524.0,7.256,13.933,-5.583,1.24,5.015,4.495
1528.0,3.387,13.933,-5.583,1.031,5.015,4.896
1532.0,3.387,13.933,-5.583,1.031,5.015,4.896
1535.0,-0.894,11.512,-3.395,0.713,5.015,5.012
1539.0,-0.894,11.512,-3.395,0.713,5.015,5.012
1543.0,-0.894,11.512,-3.395,0.713,5.015,5.012
1547.0,-5.538,9.56,-1.817,0.257,5.015,5.013
1551.0,-5.538,9.56,-1.817,0.257,5.015,5.013
1555.0,-10.695,8.131,-0.373,-0.393,5.015,5.013
1559.0,-10.695,8.131,-0.373,-0.393,5.015,5.013
1563.0,-10.695,8.131,-0.373,-0.393,5.015,5.013
1567.0,-17.403,6.732,0.38,-1.268,5.015,5.013
1571.0,-17.403,6.732,0.38,-1.268,5.015,5.013
1575.0,-19.6,3.132,1.004,-2.178,5.015,5.013
1579.0,-19.6,3.132,1.004,-2.178,5.015,5.013
1582.0,-19.6,3.132,1.004,-2.178,5.015,5.013
1586.0,-19.6,-1.033,4.22,-2.816,5.013,4.96
1590.0,-19.6,-1.033,4.22,-2.816,5.013,4.96
1594.0,-19.6,-3.721,7.078,-3.069,4.469,4.641
1598.0,-19.6,-3.721,7.078,-3.069,4.469,4.641
1602.0,-19.6,-3.721,7.078,-3.069,4.469,4.641
1606.0,-17.428,-6.309,5.703,-3.075,2.875,4.12
1610.0,-17.428,-6.309,5.703,-3.075,2.875,4.12
1614.0,-9.276,-8.122,4.059,-2.958,1.571,3.174
1618.0,-9.276,-8.122,4.059,-2.958,1.571,3.174
1622.0,-9.276,-8.122,4.059,-2.958,1.571,3.174
1626.0,-3.489,-8.219,4.516,-2.882,0.659,1.867
1630.0,-3.489,-8.219,4.516,-2.882,0.659,1.867
1634.0,-0.428,-6.954,5.559,-2.869,-0.082,0.527
1638.0,-0.428,-6.954,5.559,-2.869,-0.082,0.527
1642.0,-0.428,-6.954,5.559,-2.869,-0.082,0.527
1646.0,1.288,-5.461,5.785,-2.829,-0.772,-0.598
1650.0,1.288,-5.461,5.785,-2.829,-0.772,-0.598
1654.0,2.861,-4.484,5.113,-2.713,-1.325,-1.414
1658.0,2.861,-4.484,5.113,-2.713,-1.325,-1.414
1662.0,2.861,-4.484,5.113,-2.713,-1.325,-1.414
1666.0,4.493,-4.184,4.193,-2.52,-1.641,-1.936
1670.0,4.493,-4.184,4.193,-2.52,-1.641,-1.936
1674.0,5.947,-3.952,3.491,-2.257,-1.719,-2.248
1678.0,5.947,-3.952,3.491,-2.257,-1.719,-2.248
1682.0,5.947,-3.952,2.902,-2.257,-1.719,-2.248
1686.0,7.368,-3.273,2.902,-1.898,-1.663,-2.391
1690.0,7.368,-3.273,2.902,-1.898,-1.663,-2.391
1694.0,9.205,-2.632,2.205,-1.476,-1.518,-2.389
1698.0,9.205,-2.632,2.205,-1.476,-1.518,-2.389
1702.0,9.205,-1.661,2.343,-1.476,-1.518,-2.389
1706.0,10.957,-1.661,2.343,-1.001,-1.206,-2.311
1710.0,10.957,-1.661,2.343,-1.001,-1.206,-2.311
1714.0,11.852,-0.544,3.005,-0.449,-0.832,-2.162
1718.0,11.852,-0.544,3.005,-0.449,-0.832,-2.162
1722.0,12.125,0.899,3.436,-0.449,-0.525,-1.934
1726.0,12.125,0.899,3.436,0.129,-0.525,-1.934
1730.0,12.125,0.899,3.436,0.129,-0.525,-1.934
1734.0,11.495,2.205,3.551,0.665,-0.285,-1.646
1738.0,11.495,2.205,3.551,0.665,-0.285,-1.646
1742.0,10.781,3.146,3.553,0.665,-0.285,-1.353
1746.0,10.781,3.146,3.553,1.132,-0.109,-1.353
1749.0,10.781,3.146,3.553,1.132,-0.109,-1.353
1753.0,10.278,3.968,3.465,1.53,-0.003,-1.125
1757.0,10.278,3.968,3.465,1.53,-0.003,-1.125
1761.0,9.852,4.784,3.233,1.53,-0.003,-1.125
1765.0,9.852,4.784,3.233,1.843,0.043,-0.971
1769.0,9.852,4.784,3.233,1.843,0.043,-0.971
1772.0,9.361,5.522,2.802,2.063,0.06,-0.856
1776.0,9.361,5.522,2.802,2.063,0.06,-0.856
1780.0,9.361,5.522,2.802,2.063,0.06,-0.856
1784.0,9.094,6.17,2.237,2.181,0.068,-0.766
1787.0,9.094,6.17,2.237,2.181,0.068,-0.766
1791.0,9.116,6.671,1.77,2.181,0.083,-0.689
1795.0,9.116,6.671,1.77,2.207,0.083,-0.689
1799.0,9.116,6.671,1.77,2.207,0.083,-0.689
1802.0,9.067,7.055,1.561,2.147,0.107,-0.613
1806.0,9.067,7.055,1.561,2.147,0.107,-0.613
1810.0,9.067,7.055,1.561,2.147,0.107,-0.613
1814.0,8.702,7.305,1.569,2.015,0.128,-0.532
1817.0,8.702,7.305,1.569,2.015,0.128,-0.532
1821.0,8.166,7.472,1.688,1.822,0.134,-0.448
1825.0,8.166,7.472,1.688,1.822,0.134,-0.448
1828.0,8.166,7.472,1.688,1.822,0.134,-0.448
1832.0,7.68,7.51,1.836,1.583,0.124,-0.38
1836.0,7.68,7.51,1.836,1.583,0.124,-0.38
1840.0,7.68,7.51,1.731,1.583,0.124,-0.38
1843.0,7.351,7.588,1.731,1.31,0.105,-0.344
1847.0,7.351,7.588,1.731,1.31,0.105,-0.344
1851.0,7.274,7.68,1.625,1.021,0.1,-0.325
1855.0,7.274,7.68,1.625,1.021,0.1,-0.325
1858.0,7.274,7.68,1.625,1.021,0.1,-0.325
1862.0,7.169,7.634,1.683,0.734,0.116,-0.316
1866.0,7.169,7.634,1.683,0.734,0.116,-0.316
1870.0,7.169,7.464,1.682,0.734,0.116,-0.316
1873.0,7.076,7.464,1.682,0.461,0.134,-0.317
1877.0,7.076,7.464,1.682,0.461,0.134,-0.317
1881.0,7.003,7.256,1.702,0.217,0.155,-0.342
1884.0,7.003,7.256,1.702,0.217,0.155,-0.342
1888.0,7.003,7.256,1.702,0.217,0.155,-0.342
1892.0,6.855,6.996,1.851,0.003,0.173,-0.382
1896.0,6.855,6.996,1.851,0.003,0.173,-0.382
1899.0,6.832,6.699,1.9,0.003,0.173,-0.382
1903.0,6.832,6.699,1.9,-0.176,0.172,-0.416
1907.0,6.832,6.699,1.9,-0.176,0.172,-0.416
1911.0,7.095,6.39,1.934,-0.303,0.168,-0.435
1915.0,7.095,6.39,1.934,-0.303,0.168,-0.435
1918.0,7.095,6.39,1.934,-0.303,0.168,-0.435
1922.0,7.473,6.018,2.107,-0.375,0.165,-0.428
1926.0,7.473,6.018,2.107,-0.375,0.165,-0.428
1930.0,7.695,5.743,2.234,-0.403,0.162,-0.406
1934.0,7.695,5.743,2.234,-0.403,0.162,-0.406
1937.0,7.695,5.743,2.234,-0.403,0.162,-0.406
1941.0,7.615,5.611,2.347,-0.401,0.167,-0.365
1945.0,7.615,5.611,2.347,-0.401,0.167,-0.365
1949.0,7.347,5.575,2.381,-0.401,0.167,-0.308
1953.0,7.347,5.575,2.381,-0.384,0.181,-0.308
1957.0,7.347,5.575,2.381,-0.384,0.181,-0.308
1960.0,7.091,5.609,2.386,-0.362,0.194,-0.237
1964.0,7.091,5.609,2.386,-0.362,0.194,-0.237
1968.0,7.091,5.609,2.365,-0.362,0.194,-0.237
1972.0,7.101,5.562,2.365,-0.338,0.187,-0.161
1976.0,7.101,5.562,2.365,-0.338,0.187,-0.161
1979.0,7.196,5.53,2.301,-0.314,0.17,-0.104
1983.0,7.196,5.53,2.301,-0.314,0.17,-0.104
1987.0,7.196,5.53,2.301,-0.314,0.17,-0.104
1991.0,7.329,5.514,2.259,-0.291,0.158,-0.069
1995.0,7.329,5.514,2.259,-0.291,0.158,-0.069
1999.0,7.405,5.466,2.264,-0.268,0.158,-0.054
2002.0,7.405,5.466,2.264,-0.268,0.158,-0.054
2006.0,7.405,5.466,2.264,-0.268,0.158,-0.054
2010.0,7.37,5.357,2.289,-0.242,0.156,-0.06
2014.0,7.37,5.357,2.289,-0.242,0.156,-0.06
2018.0,7.329,5.221,2.3,-0.242,0.156,-0.06
2022.0,7.329,5.221,2.3,-0.217,0.147,-0.089
2025.0,7.329,5.221,2.3,-0.217,0.147,-0.089
2029.0,7.29,5.112,2.343,-0.193,0.134,-0.137
2033.0,7.29,5.112,2.343,-0.193,0.134,-0.137
2037.0,7.29,5.112,2.343,-0.193,0.134,-0.137
2041.0,7.269,5.039,2.315,-0.171,0.115,-0.19
2044.0,7.269,5.039,2.315,-0.171,0.115,-0.19
2048.0,7.427,5.005,2.271,-0.154,0.094,-0.239
2052.0,7.427,5.005,2.271,-0.154,0.094,-0.239
2056.0,7.427,5.005,2.271,-0.154,0.094,-0.239
2060.0,7.635,4.995,2.294,-0.136,0.08,-0.28
2064.0,7.635,4.995,2.294,-0.136,0.08,-0.28
2067.0,7.802,4.958,2.322,-0.136,0.08,-0.302
2071.0,7.802,4.958,2.322,-0.116,0.072,-0.302
2075.0,7.802,4.958,2.322,-0.116,0.072,-0.302
2079.0,7.881,4.818,2.307,-0.095,0.069,-0.301
2083.0,7.881,4.818,2.307,-0.095,0.069,-0.301
2086.0,7.881,4.818,2.176,-0.095,0.069,-0.301
2090.0,7.799,4.661,2.176,-0.077,0.074,-0.292
2094.0,7.799,4.661,2.176,-0.077,0.074,-0.292
2098.0,7.665,4.563,2.165,-0.061,0.092,-0.288
2102.0,7.665,4.563,2.165,-0.061,0.092,-0.288
2106.0,7.665,4.563,2.165,-0.061,0.092,-0.288
2109.0,7.573,4.524,2.238,-0.05,0.104,-0.287
2113.0,7.573,4.524,2.238,-0.05,0.104,-0.287
2117.0,7.451,4.512,2.271,-0.043,0.096,-0.291
2121.0,7.451,4.512,2.271,-0.043,0.096,-0.291
2125.0,7.451,4.512,2.271,-0.043,0.096,-0.291
2128.0,7.391,4.481,2.261,-0.042,0.076,-0.31
2132.0,7.391,4.481,2.261,-0.042,0.076,-0.31
2136.0,7.391,4.496,2.246,-0.042,0.076,-0.31
2140.0,7.369,4.496,2.246,-0.051,0.056,-0.346
2144.0,7.369,4.496,2.246,-0.051,0.056,-0.346
2148.0,7.445,4.545,2.143,-0.068,0.041,-0.392
2151.0,7.445,4.545,2.143,-0.068,0.041,-0.392
2155.0,7.445,4.545,2.143,-0.068,0.041,-0.392
2159.0,7.665,4.641,1.933,-0.092,0.043,-0.434
2163.0,7.665,4.641,1.933,-0.092,0.043,-0.434
2167.0,7.918,4.684,1.852,-0.12,0.071,-0.466
2170.0,7.918,4.684,1.852,-0.12,0.071,-0.466
2174.0,7.918,4.684,1.852,-0.12,0.071,-0.466
2178.0,7.996,4.66,1.792,-0.148,0.123,-0.494
2182.0,7.996,4.66,1.792,-0.148,0.123,-0.494
2186.0,7.786,4.55,1.881,-0.148,0.123,-0.509
2190.0,7.786,4.55,1.881,-0.177,0.191,-0.509
2193.0,7.786,4.55,1.881,-0.177,0.191,-0.509
2197.0,7.343,4.384,1.956,-0.211,0.253,-0.518
2201.0,7.343,4.384,1.956,-0.211,0.253,-0.518
2205.0,7.343,4.384,1.956,-0.211,0.253,-0.518
2209.0,6.758,4.236,2.054,-0.252,0.3,-0.53
2212.0,6.758,4.236,2.054,-0.252,0.3,-0.53
2216.0,6.303,4.085,2.118,-0.299,0.323,-0.546
2220.0,6.303,4.085,2.118,-0.299,0.323,-0.546
2224.0,6.303,4.085,2.118,-0.299,0.323,-0.546
2228.0,6.108,3.921,2.066,-0.347,0.328,-0.577
2232.0,6.108,3.921,2.066,-0.347,0.328,-0.577
2235.0,6.038,3.716,2.032,-0.347,0.322,-0.635
2239.0,6.038,3.716,2.032,-0.392,0.322,-0.635
2243.0,6.038,3.716,2.032,-0.392,0.322,-0.635
2247.0,6.091,3.568,2.051,-0.433,0.303,-0.725
2251.0,6.091,3.568,2.051,-0.433,0.303,-0.725
2254.0,6.091,3.566,2.101,-0.433,0.303,-0.725
2258.0,6.175,3.566,2.101,-0.46,0.288,-0.835
2262.0,6.175,3.566,2.101,-0.46,0.288,-0.835
2266.0,6.308,3.603,2.151,-0.47,0.293,-0.948
2270.0,6.308,3.603,2.151,-0.47,0.293,-0.948
2274.0,6.308,3.603,2.151,-0.47,0.293,-0.948
2277.0,6.337,3.529,2.201,-0.469,0.313,-1.042
2281.0,6.337,3.529,2.201,-0.469,0.313,-1.042
2285.0,6.282,3.388,2.209,-0.462,0.338,-1.124
2289.0,6.282,3.388,2.209,-0.462,0.338,-1.124
2293.0,6.282,3.388,2.209,-0.462,0.338,-1.124
2297.0,5.981,3.365,2.245,-0.454,0.371,-1.208
2300.0,5.981,3.365,2.245,-0.454,0.371,-1.208
2304.0,5.586,3.234,2.187,-0.454,0.371,-1.208
2308.0,5.586,3.234,2.187,-0.45,0.394,-1.272
2312.0,5.586,3.234,2.187,-0.45,0.394,-1.272
2316.0,5.231,3.11,2.146,-0.454,0.397,-1.321
2319.0,5.231,3.11,2.146,-0.454,0.397,-1.321
2323.0,5.231,3.11,2.146,-0.454,0.397,-1.321
2327.0,5.018,3.003,2.043,-0.462,0.384,-1.381
2331.0,5.018,3.003,2.043,-0.462,0.384,-1.381
2335.0,4.836,2.898,1.996,-0.477,0.361,-1.439
2339.0,4.836,2.898,1.996,-0.477,0.361,-1.439
2342.0,4.836,2.898,1.996,-0.477,0.361,-1.439
2346.0,4.846,2.745,1.974,-0.512,0.33,-1.487
2350.0,4.846,2.745,1.974,-0.512,0.33,-1.487
2354.0,4.991,2.646,2.006,-0.512,0.325,-1.56
2358.0,4.991,2.646,2.006,-0.558,0.325,-1.56
2361.0,4.991,2.646,2.006,-0.558,0.325,-1.56
2365.0,5.113,2.724,1.948,-0.603,0.36,-1.662
2369.0,5.113,2.724,1.948,-0.603,0.36,-1.662
2373.0,5.113,2.911,1.958,-0.603,0.36,-1.662
2377.0,5.259,2.911,1.958,-0.649,0.42,-1.75
2381.0,5.259,2.911,1.958,-0.649,0.42,-1.75
2384.0,5.29,3.266,2.196,-0.691,0.499,-1.826
2388.0,5.29,3.266,2.196,-0.691,0.499,-1.826
2392.0,5.29,3.266,2.196,-0.691,0.499,-1.826
2396.0,5.023,3.567,2.425,-0.729,0.568,-1.866
2400.0,5.023,3.567,2.425,-0.729,0.568,-1.866
2403.0,4.622,3.697,2.594,-0.769,0.613,-1.863
2407.0,4.622,3.697,2.594,-0.769,0.613,-1.863
2411.0,4.622,3.697,2.594,-0.769,0.613,-1.863
2415.0,4.28,3.704,2.73,-0.803,0.658,-1.852
2419.0,4.28,3.704,2.73,-0.803,0.658,-1.852
2423.0,3.888,3.581,2.867,-0.803,0.658,-1.852
2426.0,3.888,3.581,2.867,-0.821,0.713,-1.861
2430.0,3.888,3.581,2.867,-0.821,0.713,-1.861
2434.0,3.52,3.434,3.051,-0.822,0.762,-1.885
2438.0,3.52,3.434,3.051,-0.822,0.762,-1.885
2442.0,3.52,3.434,3.051,-0.822,0.762,-1.885
2445.0,3.15,3.367,3.215,-0.803,0.816,-1.928
2449.0,3.15,3.367,3.215,-0.803,0.816,-1.928
2453.0,2.8,3.395,3.419,-0.776,0.874,-1.978
2457.0,2.8,3.395,3.419,-0.776,0.874,-1.978
2461.0,2.8,3.395,3.419,-0.776,0.874,-1.978
2465.0,2.435,3.6,3.695,-0.745,0.937,-2.035
2468.0,2.435,3.6,3.695,-0.745,0.937,-2.035
2472.0,2.02,3.866,4.062,-0.745,0.99,-2.088
2476.0,2.02,3.866,4.062,-0.71,0.99,-2.088
2480.0,2.02,3.866,4.062,-0.71,0.99,-2.088
2484.0,1.622,4.089,4.328,-0.676,1.015,-2.128
2487.0,1.622,4.089,4.328,-0.676,1.015,-2.128
2491.0,1.622,4.089,4.415,-0.676,1.015,-2.128
2495.0,1.329,4.25,4.415,-0.652,1.019,-2.16
2499.0,1.329,4.25,4.415,-0.652,1.019,-2.16
2503.0,1.128,4.355,4.422,-0.645,1.027,-2.201
2507.0,1.128,4.355,4.422,-0.645,1.027,-2.201
2510.0,1.128,4.355,4.422,-0.645,1.027,-2.201
2514.0,0.999,4.367,4.353,-0.658,1.042,-2.259
2518.0,0.999,4.367,4.353,-0.658,1.042,-2.259
2522.0,0.952,4.286,4.137,-0.699,1.082,-2.331
2526.0,0.952,4.286,4.137,-0.699,1.082,-2.331
2529.0,0.952,4.286,4.137,-0.699,1.082,-2.331
2533.0,0.989,4.122,3.83,-0.768,1.167,-2.416
2537.0,0.989,4.122,3.83,-0.768,1.167,-2.416
2541.0,0.893,4.128,3.748,-0.768,1.167,-2.416
2545.0,0.893,4.128,3.748,-0.853,1.312,-2.533
2549.0,0.893,4.128,3.748,-0.853,1.312,-2.533
2552.0,0.507,4.265,3.866,-0.945,1.481,-2.647
2556.0,0.507,4.265,3.866,-0.945,1.481,-2.647
2560.0,0.507,4.265,3.866,-0.945,1.481,-2.647
2564.0,0.138,4.305,3.977,-1.046,1.642,-2.714
2568.0,0.138,4.305,3.977,-1.046,1.642,-2.714
2572.0,-0.234,4.158,4.063,-1.152,1.809,-2.761
2575.0,-0.234,4.158,4.063,-1.152,1.809,-2.761
2579.0,-0.234,4.158,4.063,-1.152,1.809,-2.761
2583.0,-0.778,3.863,4.204,-1.268,1.98,-2.803
2587.0,-0.778,3.863,4.204,-1.268,1.98,-2.803
2591.0,-1.421,3.677,4.496,-1.394,2.138,-2.838
2595.0,-1.421,3.677,4.496,-1.394,2.138,-2.838
2599.0,-1.421,3.677,4.496,-1.394,2.138,-2.838
2603.0,-2.0,3.571,4.909,-1.509,2.281,-2.877
2607.0,-2.0,3.571,4.909,-1.509,2.281,-2.877
2611.0,-2.576,3.481,5.408,-1.591,2.423,-2.943
2614.0,-2.576,3.481,5.408,-1.591,2.423,-2.943
2618.0,-2.576,3.481,5.408,-1.591,2.423,-2.943
2622.0,-3.334,3.471,5.947,-1.634,2.559,-3.029
2626.0,-3.334,3.471,5.947,-1.634,2.559,-3.029
2630.0,-4.174,3.448,6.145,-1.634,2.678,-3.091
2634.0,-4.174,3.448,6.145,-1.641,2.678,-3.091
2638.0,-4.174,3.448,6.145,-1.641,2.678,-3.091
2642.0,-4.976,3.248,6.002,-1.635,2.797,-3.101
2646.0,-4.976,3.248,6.002,-1.635,2.797,-3.101
2650.0,-6.095,3.136,5.867,-1.635,2.797,-3.101
2654.0,-6.095,3.136,5.867,-1.64,2.933,-3.064
2657.0,-6.095,3.136,5.867,-1.64,2.933,-3.064
2661.0,-7.253,2.872,5.468,-1.669,3.063,-2.959
2665.0,-7.253,2.872,5.468,-1.669,3.063,-2.959
2669.0,-7.828,2.366,5.173,-1.669,3.063,-2.959
2673.0,-7.828,2.366,5.173,-1.73,3.221,-2.84
2677.0,-7.828,2.366,5.173,-1.73,3.221,-2.84
2681.0,-8.113,2.016,5.618,-1.774,3.441,-2.823
2685.0,-8.113,2.016,5.618,-1.774,3.441,-2.823
2689.0,-8.113,2.016,6.277,-1.774,3.441,-2.823
2693.0,-8.503,1.469,6.277,-1.755,3.642,-2.893
2697.0,-8.503,1.469,6.277,-1.755,3.642,-2.893
2700.0,-9.445,1.092,6.915,-1.652,3.783,-3.036
2704.0,-9.445,1.092,6.915,-1.652,3.783,-3.036
2708.0,-9.445,1.092,6.915,-1.652,3.783,-3.036
2712.0,-10.784,0.931,7.355,-1.469,3.856,-3.193
2716.0,-10.784,0.931,7.355,-1.469,3.856,-3.193
2720.0,-12.2,0.787,7.48,-1.229,3.902,-3.316
2724.0,-12.2,0.787,7.48,-1.229,3.902,-3.316
2728.0,-12.2,0.787,7.664,-1.229,3.902,-3.316
2732.0,-13.89,0.852,7.664,-0.938,3.967,-3.402
2736.0,-13.89,0.852,7.664,-0.938,3.967,-3.402
2740.0,-15.847,0.903,7.86,-0.608,4.01,-3.424
2744.0,-15.847,0.903,7.86,-0.608,4.01,-3.424
2748.0,-15.847,0.742,7.75,-0.608,4.01,-3.424
2752.0,-17.569,0.742,7.75,-0.271,3.972,-3.379
2756.0,-17.569,0.742,7.75,-0.271,3.972,-3.379
2760.0,-18.689,0.567,7.563,0.03,3.85,-3.303
2764.0,-18.689,0.567,7.563,0.03,3.85,-3.303
2768.0,-19.153,0.424,7.375,0.03,3.85,-3.303
2772.0,-19.153,0.424,7.375,0.267,3.681,-3.207
2776.0,-19.153,0.424,7.375,0.267,3.681,-3.207
2780.0,-19.072,0.499,7.321,0.43,3.502,-3.109
2783.0,-19.072,0.499,7.321,0.43,3.502,-3.109
2787.0,-19.072,0.499,7.332,0.43,3.502,-3.109
2791.0,-18.698,0.837,7.332,0.525,3.336,-3.028
2795.0,-18.698,0.837,7.332,0.525,3.336,-3.028
2799.0,-18.276,1.204,7.256,0.551,3.189,-2.958
2803.0,-18.276,1.204,7.256,0.551,3.189,-2.958
2807.0,-18.276,1.204,7.256,0.551,3.189,-2.958
2811.0,-18.029,1.792,7.065,0.513,3.072,-2.905
2815.0,-18.029,1.792,7.065,0.513,3.072,-2.905
2819.0,-17.883,2.378,6.827,0.413,2.975,-2.843
2823.0,-17.883,2.378,6.827,0.413,2.975,-2.843
2826.0,-17.883,2.378,6.827,0.413,2.975,-2.843
2830.0,-17.736,2.905,6.495,0.249,2.887,-2.764
2834.0,-17.736,2.905,6.495,0.249,2.887,-2.764
2838.0,-17.525,3.392,6.169,0.023,2.805,-2.664
2842.0,-17.525,3.392,6.169,0.023,2.805,-2.664
2846.0,-17.525,3.392,6.169,0.023,2.805,-2.664
2850.0,-17.221,3.724,5.825,-0.265,2.732,-2.539
2854.0,-17.221,3.724,5.825,-0.265,2.732,-2.539
2858.0,-16.699,3.874,5.432,-0.619,2.679,-2.39
2862.0,-16.699,3.874,5.432,-0.619,2.679,-2.39
2866.0,-16.699,3.874,5.432,-0.619,2.679,-2.39
2870.0,-16.044,3.858,5.112,-1.04,2.656,-2.22
2874.0,-16.044,3.858,5.112,-1.04,2.656,-2.22
2878.0,-15.415,3.772,4.873,-1.509,2.666,-2.047
2882.0,-15.415,3.772,4.873,-1.509,2.666,-2.047
2886.0,-15.415,3.772,4.873,-1.509,2.666,-2.047
2890.0,-14.82,3.623,4.641,-1.997,2.702,-1.886
2894.0,-14.82,3.623,4.641,-1.997,2.702,-1.886
2898.0,-14.448,3.43,4.563,-2.481,2.749,-1.746
2902.0,-14.448,3.43,4.563,-2.481,2.749,-1.746
2906.0,-14.448,3.43,4.555,-2.481,2.749,-1.746
2910.0,-14.187,3.33,4.555,-2.922,2.794,-1.637
2914.0,-14.187,3.33,4.555,-2.922,2.794,-1.637
2918.0,-13.982,3.235,4.485,-3.303,2.816,-1.535
2922.0,-13.982,3.235,4.485,-3.303,2.816,-1.535
2926.0,-13.982,3.191,4.299,-3.303,2.816,-1.535
2930.0,-13.979,3.191,4.299,-3.638,2.811,-1.403
2934.0,-13.979,3.191,4.299,-3.638,2.811,-1.403
2938.0,-14.042,3.086,3.946,-3.954,2.787,-1.198
2942.0,-14.042,3.086,3.946,-3.954,2.787,-1.198
2946.0,-13.939,2.803,3.519,-3.954,2.787,-1.198
2950.0,-13.939,2.803,3.519,-4.276,2.762,-0.906
2954.0,-13.939,2.803,3.519,-4.276,2.762,-0.906
2958.0,-13.603,2.365,3.068,-4.617,2.754,-0.557
2962.0,-13.603,2.365,3.068,-4.617,2.754,-0.557
2966.0,-13.167,1.807,2.597,-4.617,2.754,-0.194
2970.0,-13.167,1.807,2.597,-4.929,2.766,-0.194
2974.0,-13.167,1.807,2.597,-4.929,2.766,-0.194
2978.0,-12.85,1.241,2.125,-5.013,2.802,0.14
2982.0,-12.85,1.241,2.125,-5.013,2.802,0.14
2985.0,-12.767,0.763,1.776,-5.013,2.857,0.422
2989.0,-12.767,0.763,1.776,-5.013,2.857,0.422
2993.0,-12.767,0.763,1.776,-5.013,2.857,0.422
2997.0,-12.842,0.367,1.564,-5.013,2.907,0.652
