deltaTime,Acc_X,Acc_Y,Acc_Z,Gyro_X,Gyro_Y,Gyro_Z
0.0,-5.679,-5.287,4.988,0.237,-0.028,-0.172
3.0,-5.946,-5.398,5.401,0.237,-0.002,-0.149
6.0,-5.946,-5.398,5.401,0.433,-0.002,-0.149
9.0,-5.946,-5.398,5.401,0.433,-0.002,-0.149
12.0,-5.946,-5.398,5.401,0.433,-0.002,-0.149
15.0,-6.589,-5.239,5.52,0.618,0.023,-0.13
18.0,-6.589,-5.239,5.52,0.618,0.023,-0.13
21.0,-6.589,-5.239,5.52,0.618,0.023,-0.13
24.0,-7.067,-5.174,5.388,0.749,0.023,-0.12
27.0,-7.067,-5.174,5.388,0.749,0.023,-0.12
30.0,-7.067,-5.174,5.388,0.749,0.023,-0.12
33.0,-7.022,-5.136,5.085,0.825,0.02,-0.112
36.0,-7.022,-5.136,5.085,0.825,0.02,-0.112
40.0,-7.022,-5.136,5.085,0.825,0.02,-0.112
44.0,-6.845,-4.885,4.63,0.866,0.038,-0.108
47.0,-6.845,-4.885,4.63,0.866,0.038,-0.108
51.0,-6.845,-4.885,4.63,0.866,0.038,-0.108
55.0,-6.418,-4.518,4.131,0.852,0.059,-0.106
58.0,-6.418,-4.518,4.131,0.852,0.059,-0.106
62.0,-6.127,-4.536,3.721,0.777,0.108,-0.077
66.0,-6.127,-4.536,3.721,0.777,0.108,-0.077
70.0,-6.127,-4.536,3.721,0.777,0.108,-0.077
73.0,-5.909,-4.683,3.613,0.693,0.184,-0.023
77.0,-5.909,-4.683,3.613,0.693,0.184,-0.023
81.0,-5.909,-4.683,3.701,0.693,0.184,-0.023
85.0,-5.865,-5.099,3.701,0.63,0.271,0.039
88.0,-5.865,-5.099,3.701,0.63,0.271,0.039
92.0,-5.833,-5.505,3.874,0.617,0.332,0.097
96.0,-5.833,-5.505,3.874,0.617,0.332,0.097
99.0,-5.833,-5.505,3.874,0.617,0.332,0.097
103.0,-5.764,-5.67,4.056,0.648,0.376,0.132
107.0,-5.764,-5.67,4.056,0.648,0.376,0.132
110.0,-5.764,-5.67,4.056,0.648,0.376,0.132
114.0,-5.703,-5.69,4.292,0.672,0.401,0.132
118.0,-5.703,-5.69,4.292,0.672,0.401,0.132
121.0,-5.506,-5.77,4.445,0.68,0.418,0.113
125.0,-5.506,-5.77,4.445,0.68,0.418,0.113
129.0,-5.506,-5.77,4.445,0.68,0.418,0.113
133.0,-5.242,-5.567,4.511,0.683,0.432,0.077
136.0,-5.242,-5.567,4.511,0.683,0.432,0.077
140.0,-5.242,-5.567,4.407,0.683,0.432,0.077
144.0,-5.164,-5.037,4.407,0.61,0.473,0.021
148.0,-5.164,-5.037,4.407,0.61,0.473,0.021
151.0,-5.095,-5.166,4.389,0.445,0.518,-0.045
155.0,-5.095,-5.166,4.389,0.445,0.518,-0.045
159.0,-5.095,-5.166,4.389,0.445,0.518,-0.045
163.0,-5.049,-5.238,4.339,0.289,0.564,-0.115
167.0,-5.049,-5.238,4.339,0.289,0.564,-0.115
170.0,-5.268,-5.378,4.209,0.289,0.564,-0.176
174.0,-5.268,-5.378,4.209,0.145,0.621,-0.176
178.0,-5.268,-5.378,4.209,0.145,0.621,-0.176
182.0,-5.291,-5.404,4.162,0.009,0.673,-0.239
186.0,-5.291,-5.404,4.162,0.009,0.673,-0.239
190.0,-5.291,-5.404,4.128,0.009,0.673,-0.239
193.0,-5.384,-5.548,4.128,-0.106,0.726,-0.301
197.0,-5.384,-5.548,4.128,-0.106,0.726,-0.301
201.0,-5.329,-5.816,4.134,-0.172,0.778,-0.34
205.0,-5.329,-5.816,4.134,-0.172,0.778,-0.34
209.0,-5.329,-5.816,4.134,-0.172,0.778,-0.34
213.0,-5.273,-5.867,4.098,-0.173,0.837,-0.356
217.0,-5.273,-5.867,4.098,-0.173,0.837,-0.356
221.0,-5.302,-5.69,4.149,-0.164,0.902,-0.368
225.0,-5.302,-5.69,4.149,-0.164,0.902,-0.368
229.0,-5.302,-5.69,4.149,-0.164,0.902,-0.368
232.0,-5.386,-5.4,4.286,-0.183,0.966,-0.387
236.0,-5.386,-5.4,4.286,-0.183,0.966,-0.387
240.0,-5.431,-5.38,4.515,-0.229,1.022,-0.4
244.0,-5.431,-5.38,4.515,-0.229,1.022,-0.4
248.0,-5.431,-5.38,4.515,-0.229,1.022,-0.4
252.0,-5.515,-5.503,4.88,-0.245,1.067,-0.389
256.0,-5.515,-5.503,4.88,-0.245,1.067,-0.389
260.0,-5.629,-5.356,5.329,-0.207,1.102,-0.369
264.0,-5.629,-5.356,5.329,-0.207,1.102,-0.369
268.0,-5.629,-5.356,5.329,-0.207,1.102,-0.369
271.0,-5.765,-4.912,5.642,-0.156,1.13,-0.357
275.0,-5.765,-4.912,5.642,-0.156,1.13,-0.357
279.0,-6.223,-4.237,5.943,-0.163,1.157,-0.352
283.0,-6.223,-4.237,5.943,-0.163,1.157,-0.352
287.0,-6.223,-4.237,5.943,-0.163,1.157,-0.352
291.0,-6.13,-4.156,6.109,-0.218,1.116,-0.363
295.0,-6.13,-4.156,6.109,-0.218,1.116,-0.363
299.0,-5.893,-4.768,6.285,-0.218,1.121,-0.328
303.0,-5.893,-4.768,6.285,-0.224,1.121,-0.328
307.0,-5.893,-4.768,6.285,-0.224,1.121,-0.328
311.0,-5.687,-4.908,6.212,-0.052,1.081,-0.252
314.0,-5.687,-4.908,6.212,-0.052,1.081,-0.252
318.0,-5.799,-4.978,6.263,-0.052,1.081,-0.156
322.0,-5.799,-4.978,6.263,0.158,1.087,-0.156
326.0,-5.799,-4.978,6.263,0.158,1.087,-0.156
330.0,-6.178,-4.998,6.179,0.378,1.08,-0.049
334.0,-6.178,-4.998,6.179,0.378,1.08,-0.049
338.0,-6.178,-4.998,6.066,0.378,1.08,-0.049
341.0,-6.905,-4.895,6.066,0.585,1.05,0.062
345.0,-6.905,-4.895,6.066,0.585,1.05,0.062
349.0,-8.021,-4.393,6.051,0.718,0.964,0.148
353.0,-8.021,-4.393,6.051,0.718,0.964,0.148
356.0,-8.021,-4.393,6.051,0.718,0.964,0.148
360.0,-8.558,-4.385,6.284,0.742,0.809,0.208
364.0,-8.558,-4.385,6.284,0.742,0.809,0.208
368.0,-8.962,-4.575,6.415,0.742,0.809,0.208
371.0,-8.962,-4.575,6.415,0.754,0.644,0.307
375.0,-8.962,-4.575,6.415,0.754,0.644,0.307
379.0,-9.412,-4.722,6.513,0.77,0.497,0.45
382.0,-9.412,-4.722,6.513,0.77,0.497,0.45
386.0,-9.412,-4.722,6.513,0.77,0.497,0.45
390.0,-9.807,-4.856,6.533,0.762,0.362,0.608
394.0,-9.807,-4.856,6.533,0.762,0.362,0.608
397.0,-10.077,-4.892,6.674,0.762,0.362,0.739
401.0,-10.077,-4.892,6.674,0.725,0.244,0.739
405.0,-10.077,-4.892,6.674,0.725,0.244,0.739
409.0,-10.354,-4.813,7.061,0.668,0.145,0.825
413.0,-10.354,-4.813,7.061,0.668,0.145,0.825
416.0,-10.354,-4.813,7.061,0.668,0.145,0.825
420.0,-10.833,-4.756,7.67,0.606,0.058,0.881
424.0,-10.833,-4.756,7.67,0.606,0.058,0.881
428.0,-11.609,-4.793,8.49,0.557,-0.03,0.945
432.0,-11.609,-4.793,8.49,0.557,-0.03,0.945
436.0,-11.609,-4.793,8.49,0.557,-0.03,0.945
440.0,-12.595,-4.923,9.402,0.536,-0.143,1.048
444.0,-12.595,-4.923,9.402,0.536,-0.143,1.048
447.0,-13.531,-5.197,10.216,0.551,-0.301,1.19
451.0,-13.531,-5.197,10.216,0.551,-0.301,1.19
455.0,-13.531,-5.197,10.216,0.551,-0.301,1.19
459.0,-14.213,-5.704,10.923,0.607,-0.522,1.334
463.0,-14.213,-5.704,10.923,0.607,-0.522,1.334
467.0,-14.305,-6.143,11.234,0.707,-0.81,1.42
471.0,-14.305,-6.143,11.234,0.707,-0.81,1.42
475.0,-14.305,-6.143,11.234,0.707,-0.81,1.42
479.0,-13.644,-6.211,11.216,0.837,-1.117,1.413
483.0,-13.644,-6.211,11.216,0.837,-1.117,1.413
487.0,-12.592,-6.014,11.037,0.984,-1.387,1.321
491.0,-12.592,-6.014,11.037,0.984,-1.387,1.321
495.0,-12.592,-6.014,11.037,0.984,-1.387,1.321
499.0,-11.724,-5.707,11.087,1.142,-1.598,1.178
503.0,-11.724,-5.707,11.087,1.142,-1.598,1.178
507.0,-11.28,-5.29,11.301,1.306,-1.773,1.031
511.0,-11.28,-5.29,11.301,1.306,-1.773,1.031
515.0,-11.28,-5.29,11.742,1.306,-1.773,1.031
519.0,-11.083,-4.914,11.742,1.46,-1.939,0.924
523.0,-11.083,-4.914,11.742,1.46,-1.939,0.924
527.0,-10.933,-4.804,12.392,1.592,-2.125,0.869
531.0,-10.933,-4.804,12.392,1.592,-2.125,0.869
535.0,-10.713,-4.897,13.097,1.592,-2.125,0.869
539.0,-10.713,-4.897,13.097,1.714,-2.338,0.842
543.0,-10.713,-4.897,13.097,1.714,-2.338,0.842
547.0,-10.485,-5.141,13.717,1.846,-2.572,0.826
551.0,-10.485,-5.141,13.717,1.846,-2.572,0.826
555.0,-10.279,-5.439,14.102,1.846,-2.572,0.821
559.0,-10.279,-5.439,14.102,1.995,-2.817,0.821
563.0,-10.279,-5.439,14.102,1.995,-2.817,0.821
567.0,-10.053,-5.65,14.325,2.16,-3.062,0.827
571.0,-10.053,-5.65,14.325,2.16,-3.062,0.827
575.0,-9.812,-5.612,14.304,2.16,-3.297,0.851
579.0,-9.812,-5.612,14.304,2.332,-3.297,0.851
583.0,-9.812,-5.612,14.304,2.332,-3.297,0.851
587.0,-9.525,-5.623,14.098,2.485,-3.511,0.893
591.0,-9.525,-5.623,14.098,2.485,-3.511,0.893
595.0,-9.391,-5.785,14.021,2.485,-3.511,0.922
599.0,-9.391,-5.785,14.021,2.587,-3.698,0.922
603.0,-9.391,-5.785,14.021,2.587,-3.698,0.922
606.0,-9.643,-6.115,14.196,2.614,-3.869,0.912
610.0,-9.643,-6.115,14.196,2.614,-3.869,0.912
614.0,-10.034,-6.551,14.557,2.614,-3.869,0.912
618.0,-10.034,-6.551,14.557,2.563,-4.044,0.847
622.0,-10.034,-6.551,14.557,2.563,-4.044,0.847
626.0,-10.038,-6.872,14.913,2.453,-4.232,0.714
630.0,-10.038,-6.872,14.913,2.453,-4.232,0.714
634.0,-9.782,-6.954,15.264,2.453,-4.232,0.524
638.0,-9.782,-6.954,15.264,2.317,-4.422,0.524
642.0,-9.782,-6.954,15.264,2.317,-4.422,0.524
646.0,-9.708,-7.229,15.561,2.184,-4.597,0.334
650.0,-9.708,-7.229,15.561,2.184,-4.597,0.334
654.0,-9.8,-7.743,15.73,2.184,-4.597,0.334
658.0,-9.8,-7.743,15.73,2.096,-4.756,0.177
662.0,-9.8,-7.743,15.73,2.096,-4.756,0.177
666.0,-9.69,-8.509,15.687,2.096,-4.91,0.032
669.0,-9.69,-8.509,15.687,2.096,-4.91,0.032
673.0,-9.69,-9.307,15.376,2.096,-4.91,0.032
677.0,-9.427,-9.307,15.376,2.212,-4.987,-0.146
681.0,-9.427,-9.307,15.376,2.212,-4.987,-0.146
685.0,-8.993,-9.631,14.691,2.442,-4.992,-0.346
689.0,-8.993,-9.631,14.691,2.442,-4.992,-0.346
693.0,-8.477,-9.702,13.845,2.442,-4.992,-0.346
697.0,-8.477,-9.702,13.845,2.734,-4.992,-0.53
701.0,-8.477,-9.702,13.845,2.734,-4.992,-0.53
705.0,-7.784,-9.588,12.852,3.076,-4.992,-0.685
709.0,-7.784,-9.588,12.852,3.076,-4.992,-0.685
713.0,-7.315,-9.631,11.949,3.076,-4.992,-0.685
717.0,-7.315,-9.631,11.949,3.402,-4.992,-0.8
721.0,-7.315,-9.631,11.949,3.402,-4.992,-0.8
725.0,-7.183,-9.906,11.225,3.694,-4.992,-0.894
729.0,-7.183,-9.906,11.225,3.694,-4.992,-0.894
733.0,-7.165,-10.096,10.388,3.694,-4.992,-0.972
737.0,-7.165,-10.096,10.388,3.962,-4.992,-0.972
741.0,-7.165,-10.096,10.388,3.962,-4.992,-0.972
745.0,-6.937,-10.002,9.494,4.203,-4.992,-1.036
749.0,-6.937,-10.002,9.494,4.203,-4.992,-1.036
753.0,-6.531,-9.788,8.865,4.406,-4.992,-1.104
757.0,-6.531,-9.788,8.865,4.406,-4.992,-1.104
761.0,-6.531,-9.788,8.865,4.406,-4.992,-1.104
765.0,-6.143,-9.19,8.097,4.562,-4.992,-1.206
769.0,-6.143,-9.19,8.097,4.562,-4.992,-1.206
773.0,-5.73,-8.371,7.135,4.654,-4.992,-1.318
777.0,-5.73,-8.371,7.135,4.654,-4.992,-1.318
781.0,-5.73,-8.371,7.135,4.654,-4.992,-1.318
785.0,-5.142,-7.576,6.2,4.655,-4.992,-1.422
789.0,-5.142,-7.576,6.2,4.655,-4.992,-1.422
792.0,-4.915,-7.341,5.149,4.655,-4.992,-1.538
796.0,-4.915,-7.341,5.149,4.605,-4.992,-1.538
800.0,-4.915,-7.341,5.149,4.605,-4.992,-1.538
804.0,-4.015,-6.891,4.393,4.542,-4.992,-1.687
808.0,-4.015,-6.891,4.393,4.542,-4.992,-1.687
812.0,-3.491,-6.429,3.64,4.542,-4.992,-1.868
816.0,-3.491,-6.429,3.64,4.412,-4.992,-1.868
820.0,-3.491,-6.429,3.64,4.412,-4.992,-1.868
824.0,-3.097,-6.129,2.934,4.259,-4.992,-2.052
828.0,-3.097,-6.129,2.934,4.259,-4.992,-2.052
831.0,-2.608,-5.777,2.185,4.259,-4.992,-2.052
835.0,-2.608,-5.777,2.185,4.113,-4.962,-2.234
839.0,-2.608,-5.777,2.185,4.113,-4.962,-2.234
843.0,-2.085,-5.275,1.332,3.976,-4.78,-2.41
847.0,-2.085,-5.275,1.332,3.976,-4.78,-2.41
851.0,-2.085,-4.695,0.516,3.976,-4.78,-2.41
855.0,-1.579,-4.695,0.516,3.851,-4.528,-2.579
859.0,-1.579,-4.695,0.516,3.851,-4.528,-2.579
863.0,-1.075,-3.87,-0.239,3.733,-4.242,-2.742
867.0,-1.075,-3.87,-0.239,3.733,-4.242,-2.742
871.0,-1.075,-3.87,-0.94,3.733,-4.242,-2.742
875.0,-0.571,-2.883,-0.94,3.638,-3.972,-2.878
879.0,-0.571,-2.883,-0.94,3.638,-3.972,-2.878
883.0,-0.032,-1.682,-1.361,3.572,-3.725,-2.966
887.0,-0.032,-1.682,-1.361,3.572,-3.725,-2.966
891.0,0.115,-0.213,-1.732,3.572,-3.725,-2.966
895.0,0.115,-0.213,-1.732,3.558,-3.462,-3.006
898.0,0.115,-0.213,-1.732,3.558,-3.462,-3.006
902.0,0.55,1.747,-2.244,3.615,-3.232,-2.983
906.0,0.55,1.747,-2.244,3.615,-3.232,-2.983
910.0,0.55,1.747,-2.819,3.615,-3.232,-2.983
914.0,1.247,4.024,-2.819,3.717,-3.012,-2.875
918.0,1.247,4.024,-2.819,3.717,-3.012,-2.875
921.0,2.197,6.284,-3.559,3.812,-2.775,-2.684
925.0,2.197,6.284,-3.559,3.812,-2.775,-2.684
929.0,2.197,6.284,-3.559,3.812,-2.775,-2.684
933.0,3.097,8.595,-4.229,3.862,-2.495,-2.446
937.0,3.097,8.595,-4.229,3.862,-2.495,-2.446
941.0,3.716,11.384,-4.968,3.878,-2.168,-2.176
944.0,3.716,11.384,-4.968,3.878,-2.168,-2.176
948.0,3.716,11.384,-4.968,3.878,-2.168,-2.176
952.0,4.231,14.622,-6.233,3.894,-1.795,-1.829
956.0,4.231,14.622,-6.233,3.894,-1.795,-1.829
960.0,4.741,17.845,-7.527,3.894,-1.795,-1.371
964.0,4.741,17.845,-7.527,3.928,-1.352,-1.371
968.0,4.741,17.845,-7.527,3.928,-1.352,-1.371
972.0,5.116,19.569,-8.67,3.955,-0.859,-0.833
976.0,5.116,19.569,-8.67,3.955,-0.859,-0.833
980.0,5.716,19.596,-9.677,3.955,-0.859,-0.833
984.0,5.716,19.596,-9.677,3.858,-0.324,-0.168
987.0,5.716,19.596,-9.677,3.858,-0.324,-0.168
991.0,6.659,19.596,-10.306,3.566,0.273,0.606
995.0,6.659,19.596,-10.306,3.566,0.273,0.606
999.0,6.659,19.596,-10.495,3.566,0.273,0.606
1003.0,7.336,19.596,-10.495,3.149,0.896,1.294
1007.0,7.336,19.596,-10.495,3.149,0.896,1.294
1011.0,7.447,19.596,-10.28,2.697,1.54,1.892
1015.0,7.447,19.596,-10.28,2.697,1.54,1.892
1018.0,7.447,19.596,-10.28,2.697,1.54,1.892
1022.0,7.2,19.596,-9.68,2.285,2.211,2.509
1026.0,7.2,19.596,-9.68,2.285,2.211,2.509
1030.0,6.3,19.596,-8.693,1.932,2.855,3.111
1034.0,6.3,19.596,-8.693,1.932,2.855,3.111
1038.0,6.3,19.596,-8.693,1.932,2.855,3.111
1041.0,5.127,19.596,-7.618,1.578,3.426,3.704
1045.0,5.127,19.596,-7.618,1.578,3.426,3.704
1049.0,3.566,19.589,-5.893,1.578,3.906,4.258
1053.0,3.566,19.589,-5.893,1.176,3.906,4.258
1057.0,3.566,19.589,-5.893,1.176,3.906,4.258
1061.0,1.564,18.468,-4.078,0.734,4.257,4.738
1064.0,1.564,18.468,-4.078,0.734,4.257,4.738
1068.0,1.564,16.078,-2.553,0.734,4.257,4.738
1072.0,-0.628,16.078,-2.553,0.295,4.474,4.997
1076.0,-0.628,16.078,-2.553,0.295,4.474,4.997
1080.0,-2.789,13.513,-1.54,-0.118,4.557,5.013
1084.0,-2.789,13.513,-1.54,-0.118,4.557,5.013
1088.0,-2.789,13.513,-1.065,-0.118,4.557,5.013
1092.0,-4.713,11.069,-1.065,-0.548,4.518,5.013
1096.0,-4.713,11.069,-1.065,-0.548,4.518,5.013
1100.0,-6.873,8.815,-0.467,-1.032,4.372,5.013
1104.0,-6.873,8.815,-0.467,-1.032,4.372,5.013
1108.0,-6.873,8.815,0.704,-1.032,4.372,5.013
1111.0,-9.575,6.319,0.704,-1.612,4.084,5.013
1115.0,-9.575,6.319,0.704,-1.612,4.084,5.013
1119.0,-12.284,3.296,2.179,-2.301,3.647,5.013
1123.0,-12.284,3.296,2.179,-2.301,3.647,5.013
1127.0,-12.284,3.296,2.179,-2.301,3.647,5.013
1131.0,-14.989,-0.167,3.753,-3.033,3.158,5.013
1135.0,-14.989,-0.167,3.753,-3.033,3.158,5.013
1139.0,-17.528,-3.743,5.363,-3.706,2.595,4.895
1143.0,-17.528,-3.743,5.363,-3.706,2.595,4.895
1147.0,-17.528,-3.743,5.363,-3.706,2.595,4.895
1151.0,-17.649,-7.661,6.258,-4.243,1.861,4.186
1155.0,-17.649,-7.661,6.258,-4.243,1.861,4.186
1159.0,-15.527,-12.468,6.292,-4.434,0.983,3.139
1163.0,-15.527,-12.468,6.292,-4.434,0.983,3.139
1167.0,-15.527,-16.452,6.233,-4.434,0.983,3.139
1171.0,-12.278,-16.452,6.233,-3.987,0.046,1.842
1175.0,-12.278,-16.452,6.233,-3.987,0.046,1.842
1179.0,-9.103,-18.601,5.626,-2.963,-0.76,0.499
1183.0,-9.103,-18.601,5.626,-2.963,-0.76,0.499
1187.0,-6.615,-18.72,4.567,-2.963,-1.317,-0.703
1191.0,-6.615,-18.72,4.567,-1.686,-1.317,-0.703
1196.0,-6.615,-18.72,4.567,-1.686,-1.317,-0.703
1200.0,-4.807,-17.544,3.696,-0.38,-1.642,-1.691
1204.0,-4.807,-17.544,3.696,-0.38,-1.642,-1.691
1208.0,-3.879,-15.713,3.559,0.818,-1.815,-2.439
1212.0,-3.879,-15.713,3.559,0.818,-1.815,-2.439
1216.0,-3.879,-13.283,3.203,0.818,-1.815,-2.439
1220.0,-3.843,-13.283,3.203,1.796,-1.954,-2.99
1224.0,-3.843,-13.283,3.203,1.796,-1.954,-2.99
1229.0,-4.083,-10.623,2.394,2.472,-2.107,-3.402
1233.0,-4.083,-10.623,2.394,2.472,-2.107,-3.402
1237.0,-4.058,-8.008,1.457,2.472,-2.256,-3.729
1241.0,-4.058,-8.008,1.457,2.803,-2.256,-3.729
1245.0,-4.058,-8.008,1.457,2.803,-2.256,-3.729
1249.0,-3.404,-5.683,0.482,2.819,-2.391,-4.026
1253.0,-3.404,-5.683,0.482,2.819,-2.391,-4.026
1257.0,-2.123,-3.419,0.013,2.611,-2.494,-4.338
1261.0,-2.123,-3.419,0.013,2.611,-2.494,-4.338
1265.0,-2.123,-3.419,0.013,2.611,-2.494,-4.338
1269.0,-0.556,-1.03,0.077,2.296,-2.584,-4.662
1273.0,-0.556,-1.03,0.077,2.296,-2.584,-4.662
1277.0,1.049,1.273,0.409,1.985,-2.659,-4.924
1280.0,1.049,1.273,0.409,1.985,-2.659,-4.924
1284.0,1.049,1.273,0.409,1.985,-2.659,-4.924
1288.0,2.559,3.012,0.886,1.738,-2.724,-4.994
1292.0,2.559,3.012,0.886,1.738,-2.724,-4.994
1296.0,3.948,4.613,1.051,1.738,-2.724,-4.995
1300.0,3.948,4.613,1.051,1.594,-2.797,-4.995
1303.0,3.948,4.613,1.051,1.594,-2.797,-4.995
1307.0,5.067,6.087,1.068,1.581,-2.885,-4.995
1311.0,5.067,6.087,1.068,1.581,-2.885,-4.995
1315.0,5.067,6.087,0.457,1.581,-2.885,-4.995
1319.0,5.932,8.017,0.457,1.683,-2.958,-4.995
1322.0,5.932,8.017,0.457,1.683,-2.958,-4.995
1326.0,6.594,10.399,-0.62,1.888,-3.017,-4.995
1330.0,6.594,10.399,-0.62,1.888,-3.017,-4.995
1334.0,6.594,10.399,-0.62,1.888,-3.017,-4.995
1338.0,6.697,13.249,-1.809,2.145,-3.059,-4.98
1342.0,6.697,13.249,-1.809,2.145,-3.059,-4.98
1346.0,7.227,17.133,-3.784,2.384,-3.124,-4.791
1350.0,7.227,17.133,-3.784,2.384,-3.124,-4.791
1354.0,7.227,17.133,-6.848,2.384,-3.124,-4.791
1358.0,8.773,19.572,-6.848,2.565,-3.129,-4.351
1362.0,8.773,19.572,-6.848,2.565,-3.129,-4.351
1366.0,10.829,19.596,-10.23,2.628,-3.007,-3.759
1370.0,10.829,19.596,-10.23,2.628,-3.007,-3.759
1375.0,12.511,19.596,-13.88,2.628,-3.007,-3.124
1379.0,12.511,19.596,-13.88,2.487,-2.723,-3.124
1383.0,12.511,19.596,-13.88,2.487,-2.723,-3.124
1387.0,14.099,19.596,-16.368,2.078,-2.256,-2.457
1391.0,14.099,19.596,-16.368,2.078,-2.256,-2.457
1395.0,14.264,19.596,-17.151,1.422,-1.632,-1.776
1400.0,14.264,19.596,-17.151,1.422,-1.632,-1.776
1404.0,14.264,19.596,-17.208,1.422,-1.632,-1.776
1408.0,12.997,19.596,-17.208,0.686,-0.911,-1.073
1412.0,12.997,19.596,-17.208,0.686,-0.911,-1.073
1416.0,11.599,19.596,-16.348,0.145,-0.132,-0.38
1420.0,11.599,19.596,-16.348,0.145,-0.132,-0.38
1425.0,10.688,19.596,-14.891,-0.022,0.65,0.288
1429.0,10.688,19.596,-14.891,-0.022,0.65,0.288
1433.0,10.688,19.596,-14.891,-0.022,0.65,0.288
1437.0,10.548,19.596,-13.815,0.107,1.396,0.983
1441.0,10.548,19.596,-13.815,0.107,1.396,0.983
1445.0,10.697,19.596,-13.586,0.335,2.102,1.684
1449.0,10.697,19.596,-13.586,0.335,2.102,1.684
1453.0,10.697,19.596,-13.586,0.335,2.102,1.684
1457.0,10.81,19.596,-14.153,0.548,2.809,2.339
1461.0,10.81,19.596,-14.153,0.548,2.809,2.339
1465.0,10.845,19.596,-14.569,0.669,3.54,2.964
1469.0,10.845,19.596,-14.569,0.669,3.54,2.964
1473.0,10.845,19.596,-14.303,0.669,3.54,2.964
1477.0,10.692,19.596,-14.303,0.668,4.273,3.582
1481.0,10.692,19.596,-14.303,0.668,4.273,3.582
1485.0,10.141,19.596,-12.986,0.608,4.883,4.201
1489.0,10.141,19.596,-12.986,0.608,4.883,4.201
1493.0,10.141,19.594,-11.363,0.608,4.883,4.201
1497.0,8.818,19.594,-11.363,0.595,5.015,4.78
1501.0,8.818,19.594,-11.363,0.595,5.015,4.78
1504.0,6.824,18.654,-9.788,0.613,5.015,5.009
1508.0,6.824,18.654,-9.788,0.613,5.015,5.009
1512.0,6.824,18.654,-7.544,0.613,5.015,5.009
1516.0,4.199,16.363,-7.544,0.583,5.015,5.013
1520.0,4.199,16.363,-7.544,0.583,5.015,5.013
1524.0,0.832,14.04,-5.255,0.45,5.015,5.013
1527.0,0.832,14.04,-5.255,0.45,5.015,5.013
1531.0,0.832,14.04,-5.255,0.45,5.015,5.013
1535.0,-3.258,11.823,-2.995,0.198,5.015,5.013
1539.0,-3.258,11.823,-2.995,0.198,5.015,5.013
1543.0,-7.588,10.091,-1.445,-0.191,5.015,5.013
1547.0,-7.588,10.091,-1.445,-0.191,5.015,5.013
1551.0,-7.588,10.091,-1.445,-0.191,5.015,5.013
1555.0,-12.753,8.943,-0.572,-0.755,5.015,5.013
1559.0,-12.753,8.943,-0.572,-0.755,5.015,5.013
1563.0,-18.958,7.53,0.054,-1.577,5.015,5.013
1567.0,-18.958,7.53,0.054,-1.577,5.015,5.013
1571.0,-18.958,7.53,0.054,-1.577,5.015,5.013
1575.0,-19.6,3.991,0.125,-2.615,5.015,5.013
1578.0,-19.6,3.991,0.125,-2.615,5.015,5.013
1582.0,-19.6,-3.473,3.571,-3.433,4.993,5.013
1586.0,-19.6,-3.473,3.571,-3.433,4.993,5.013
1590.0,-19.6,-3.473,3.571,-3.433,4.993,5.013
1594.0,-19.6,-9.257,6.689,-3.63,4.201,4.989
1598.0,-19.6,-9.257,6.689,-3.63,4.201,4.989
1602.0,-18.048,-12.452,5.487,-3.246,2.57,4.455
1606.0,-18.048,-12.452,5.487,-3.246,2.57,4.455
1610.0,-18.048,-12.452,5.487,-3.246,2.57,4.455
1615.0,-9.936,-13.722,4.048,-2.465,1.311,3.244
1619.0,-9.936,-13.722,4.048,-2.465,1.311,3.244
1623.0,-3.763,-13.464,5.161,-1.653,0.408,1.819
1627.0,-3.763,-13.464,5.161,-1.653,0.408,1.819
1631.0,-3.763,-13.464,5.161,-1.653,0.408,1.819
1635.0,-0.297,-11.837,6.31,-0.916,-0.341,0.458
1639.0,-0.297,-11.837,6.31,-0.916,-0.341,0.458
1643.0,2.197,-9.421,5.941,-0.25,-0.977,-0.616
1647.0,2.197,-9.421,5.941,-0.25,-0.977,-0.616
1651.0,4.437,-7.265,4.778,-0.25,-0.977,-0.616
1655.0,4.437,-7.265,4.778,0.249,-1.356,-1.286
1659.0,4.437,-7.265,4.778,0.249,-1.356,-1.286
1662.0,6.239,-5.554,3.784,0.532,-1.424,-1.628
1666.0,6.239,-5.554,3.784,0.532,-1.424,-1.628
1670.0,6.239,-4.37,2.915,0.532,-1.424,-1.628
1674.0,8.157,-4.37,2.915,0.646,-1.354,-1.77
1678.0,8.157,-4.37,2.915,0.646,-1.354,-1.77
1682.0,10.685,-3.152,2.192,0.648,-1.205,-1.863
1686.0,10.685,-3.152,2.192,0.648,-1.205,-1.863
1690.0,10.685,-3.152,2.457,0.648,-1.205,-1.863
1694.0,12.401,-1.076,2.457,0.623,-0.865,-1.954
1698.0,12.401,-1.076,2.457,0.623,-0.865,-1.954
1702.0,12.762,0.943,3.215,0.623,-0.481,-1.896
1706.0,12.762,0.943,3.215,0.623,-0.481,-1.896
1710.0,12.762,2.399,3.585,0.623,-0.481,-1.896
1714.0,12.325,2.399,3.585,0.642,-0.218,-1.655
1718.0,12.325,2.399,3.585,0.642,-0.218,-1.655
1721.0,11.898,3.391,3.404,0.68,-0.061,-1.363
1725.0,11.898,3.391,3.404,0.68,-0.061,-1.363
1729.0,11.898,3.391,3.35,0.68,-0.061,-1.363
1733.0,11.404,3.931,3.35,0.729,0.043,-1.112
1737.0,11.404,3.931,3.35,0.729,0.043,-1.112
1741.0,10.535,4.53,3.343,0.75,0.089,-0.923
1745.0,10.535,4.53,3.343,0.75,0.089,-0.923
1748.0,10.535,4.53,3.343,0.75,0.089,-0.923
1752.0,9.272,5.171,3.386,0.718,0.082,-0.787
1756.0,9.272,5.171,3.386,0.718,0.082,-0.787
1760.0,8.468,5.745,3.491,0.718,0.006,-0.684
1763.0,8.468,5.745,3.491,0.637,0.006,-0.684
1767.0,8.468,5.745,3.491,0.637,0.006,-0.684
1771.0,8.332,6.315,3.591,0.514,-0.094,-0.607
1775.0,8.332,6.315,3.591,0.514,-0.094,-0.607
1779.0,8.332,6.315,3.591,0.514,-0.094,-0.607
1782.0,8.617,6.727,3.584,0.346,-0.155,-0.518
1786.0,8.617,6.727,3.584,0.346,-0.155,-0.518
1790.0,8.959,6.74,3.54,0.14,-0.153,-0.399
1794.0,8.959,6.74,3.54,0.14,-0.153,-0.399
1798.0,8.959,6.74,3.54,0.14,-0.153,-0.399
1802.0,9.065,6.401,3.459,-0.074,-0.113,-0.296
1805.0,9.065,6.401,3.459,-0.074,-0.113,-0.296
1809.0,8.704,5.943,3.377,-0.267,-0.053,-0.244
1813.0,8.704,5.943,3.377,-0.267,-0.053,-0.244
1817.0,8.704,5.943,3.377,-0.267,-0.053,-0.244
1821.0,8.058,5.435,3.334,-0.412,0.01,-0.234
1825.0,8.058,5.435,3.334,-0.412,0.01,-0.234
1829.0,7.476,4.869,3.23,-0.412,0.01,-0.247
1833.0,7.476,4.869,3.23,-0.487,0.058,-0.247
1836.0,7.476,4.869,3.23,-0.487,0.058,-0.247
1840.0,7.223,4.43,3.181,-0.483,0.079,-0.282
1844.0,7.223,4.43,3.181,-0.483,0.079,-0.282
1848.0,7.223,4.43,3.052,-0.483,0.079,-0.282
1852.0,7.228,4.186,3.052,-0.402,0.086,-0.33
1855.0,7.228,4.186,3.052,-0.402,0.086,-0.33
1859.0,7.582,4.152,2.813,-0.265,0.097,-0.366
1863.0,7.582,4.152,2.813,-0.265,0.097,-0.366
1867.0,7.582,4.152,2.813,-0.265,0.097,-0.366
1871.0,7.898,4.342,2.866,-0.099,0.131,-0.375
1875.0,7.898,4.342,2.866,-0.099,0.131,-0.375
1878.0,8.02,4.542,2.951,0.067,0.163,-0.338
1882.0,8.02,4.542,2.951,0.067,0.163,-0.338
1886.0,8.02,4.542,2.951,0.067,0.163,-0.338
1890.0,7.813,4.628,3.118,0.212,0.192,-0.268
1893.0,7.813,4.628,3.118,0.212,0.192,-0.268
1897.0,7.813,4.628,3.118,0.212,0.192,-0.268
1901.0,7.628,4.638,3.303,0.327,0.209,-0.185
1904.0,7.628,4.638,3.303,0.327,0.209,-0.185
1908.0,7.552,4.613,3.44,0.409,0.207,-0.113
1912.0,7.552,4.613,3.44,0.409,0.207,-0.113
1916.0,7.552,4.613,3.44,0.409,0.207,-0.113
1919.0,7.564,4.598,3.453,0.448,0.188,-0.066
1923.0,7.564,4.598,3.453,0.448,0.188,-0.066
1927.0,7.564,4.598,3.339,0.448,0.188,-0.066
1931.0,7.614,4.751,3.339,0.448,0.164,-0.046
1934.0,7.614,4.751,3.339,0.448,0.164,-0.046
1938.0,7.878,4.98,3.212,0.413,0.147,-0.047
1942.0,7.878,4.98,3.212,0.413,0.147,-0.047
1946.0,7.878,4.98,3.212,0.413,0.147,-0.047
1949.0,8.209,5.333,3.151,0.344,0.148,-0.067
1953.0,8.209,5.333,3.151,0.344,0.148,-0.067
1957.0,8.313,5.64,3.103,0.344,0.148,-0.067
1960.0,8.313,5.64,3.103,0.243,0.172,-0.076
1964.0,8.313,5.64,3.103,0.243,0.172,-0.076
1968.0,8.24,5.645,3.2,0.12,0.209,-0.057
1972.0,8.24,5.645,3.2,0.12,0.209,-0.057
1975.0,8.24,5.645,3.2,0.12,0.209,-0.057
1979.0,7.884,5.444,3.488,-0.005,0.25,-0.037
1983.0,7.884,5.444,3.488,-0.005,0.25,-0.037
1987.0,7.354,5.179,3.75,-0.005,0.276,-0.023
1991.0,7.354,5.179,3.75,-0.113,0.276,-0.023
1994.0,7.354,5.179,3.75,-0.113,0.276,-0.023
1998.0,6.914,4.81,3.882,-0.191,0.277,-0.003
2002.0,6.914,4.81,3.882,-0.191,0.277,-0.003
2006.0,6.914,4.405,3.893,-0.191,0.277,-0.003
2010.0,6.8,4.405,3.893,-0.237,0.253,0.014
2013.0,6.8,4.405,3.893,-0.237,0.253,0.014
2017.0,6.92,4.097,3.809,-0.25,0.222,0.006
2021.0,6.92,4.097,3.809,-0.25,0.222,0.006
2025.0,6.92,4.097,3.809,-0.25,0.222,0.006
2028.0,7.134,3.901,3.717,-0.238,0.193,-0.027
2032.0,7.134,3.901,3.717,-0.238,0.193,-0.027
2036.0,7.415,3.916,3.559,-0.238,0.193,-0.072
2040.0,7.415,3.916,3.559,-0.214,0.176,-0.072
2044.0,7.415,3.916,3.559,-0.214,0.176,-0.072
2047.0,7.859,4.12,3.418,-0.189,0.177,-0.11
2051.0,7.859,4.12,3.418,-0.189,0.177,-0.11
2055.0,7.859,4.12,3.452,-0.189,0.177,-0.11
2059.0,8.027,4.358,3.452,-0.169,0.198,-0.138
2063.0,8.027,4.358,3.452,-0.169,0.198,-0.138
2067.0,7.787,4.47,3.595,-0.163,0.225,-0.154
2070.0,7.787,4.47,3.595,-0.163,0.225,-0.154
2074.0,7.787,4.47,3.595,-0.163,0.225,-0.154
2078.0,7.395,4.51,3.803,-0.162,0.247,-0.167
2082.0,7.395,4.51,3.803,-0.162,0.247,-0.167
2086.0,7.1,4.511,4.07,-0.154,0.253,-0.189
2089.0,7.1,4.511,4.07,-0.154,0.253,-0.189
2093.0,7.1,4.511,4.07,-0.154,0.253,-0.189
2097.0,6.924,4.516,4.221,-0.125,0.246,-0.218
2101.0,6.924,4.516,4.221,-0.125,0.246,-0.218
2105.0,6.956,4.447,4.311,-0.125,0.246,-0.218
2109.0,6.956,4.447,4.311,-0.069,0.233,-0.247
2112.0,6.956,4.447,4.311,-0.069,0.233,-0.247
2116.0,7.059,4.488,4.306,0.015,0.226,-0.284
2120.0,7.059,4.488,4.306,0.015,0.226,-0.284
2124.0,7.059,4.488,4.306,0.015,0.226,-0.284
2127.0,7.183,4.638,4.314,0.122,0.233,-0.317
2131.0,7.183,4.638,4.314,0.122,0.233,-0.317
2135.0,7.156,4.846,4.414,0.122,0.24,-0.332
2139.0,7.156,4.846,4.414,0.242,0.24,-0.332
2142.0,7.156,4.846,4.414,0.242,0.24,-0.332
2146.0,6.851,5.02,4.519,0.367,0.228,-0.324
2150.0,6.851,5.02,4.519,0.367,0.228,-0.324
2154.0,6.851,5.02,4.519,0.367,0.228,-0.324
2157.0,6.523,5.221,4.475,0.49,0.19,-0.293
2161.0,6.523,5.221,4.475,0.49,0.19,-0.293
2165.0,6.514,5.335,4.322,0.603,0.136,-0.243
2168.0,6.514,5.335,4.322,0.603,0.136,-0.243
2172.0,6.514,5.335,4.322,0.603,0.136,-0.243
2176.0,6.797,5.386,4.161,0.699,0.087,-0.198
2180.0,6.797,5.386,4.161,0.699,0.087,-0.198
2183.0,6.797,5.386,3.959,0.699,0.087,-0.198
2187.0,7.185,5.446,3.959,0.773,0.044,-0.169
2191.0,7.185,5.446,3.959,0.773,0.044,-0.169
2195.0,7.536,5.639,3.817,0.822,0.015,-0.158
2198.0,7.536,5.639,3.817,0.822,0.015,-0.158
2202.0,7.536,5.639,3.817,0.822,0.015,-0.158
2206.0,7.719,5.869,3.672,0.841,-0.001,-0.153
2210.0,7.719,5.869,3.672,0.841,-0.001,-0.153
2213.0,7.744,6.077,3.517,0.841,-0.001,-0.153
2217.0,7.744,6.077,3.517,0.833,-0.002,-0.15
2221.0,7.744,6.077,3.517,0.833,-0.002,-0.15
2225.0,7.685,6.215,3.445,0.809,0.011,-0.138
2229.0,7.685,6.215,3.445,0.809,0.011,-0.138
2232.0,7.685,6.215,3.445,0.809,0.011,-0.138
2236.0,7.755,6.188,3.369,0.774,0.026,-0.107
2240.0,7.755,6.188,3.369,0.774,0.026,-0.107
2244.0,7.849,6.066,3.263,0.73,0.04,-0.068
2247.0,7.849,6.066,3.263,0.73,0.04,-0.068
2251.0,7.849,6.066,3.263,0.73,0.04,-0.068
2255.0,7.749,5.917,3.134,0.679,0.058,-0.041
2258.0,7.749,5.917,3.134,0.679,0.058,-0.041
2262.0,7.749,5.917,3.134,0.679,0.058,-0.041
2266.0,7.537,5.798,2.967,0.621,0.078,-0.024
2270.0,7.537,5.798,2.967,0.621,0.078,-0.024
2273.0,7.595,5.779,2.758,0.547,0.092,-0.016
2277.0,7.595,5.779,2.758,0.547,0.092,-0.016
2281.0,7.595,5.779,2.758,0.547,0.092,-0.016
2285.0,7.726,5.934,2.683,0.45,0.109,-0.032
2288.0,7.726,5.934,2.683,0.45,0.109,-0.032
2292.0,7.726,5.934,2.728,0.45,0.109,-0.032
2296.0,7.641,6.224,2.728,0.327,0.134,-0.044
2300.0,7.641,6.224,2.728,0.327,0.134,-0.044
2303.0,7.425,6.453,2.784,0.183,0.163,-0.023
2307.0,7.425,6.453,2.784,0.183,0.163,-0.023
2311.0,7.425,6.453,2.784,0.183,0.163,-0.023
2314.0,7.347,6.546,2.84,0.038,0.186,0.021
2318.0,7.347,6.546,2.84,0.038,0.186,0.021
2322.0,7.347,6.406,2.919,0.038,0.186,0.021
2325.0,7.418,6.406,2.919,-0.095,0.2,0.071
2329.0,7.418,6.406,2.919,-0.095,0.2,0.071
2333.0,7.462,6.068,2.991,-0.206,0.204,0.115
2337.0,7.462,6.068,2.991,-0.206,0.204,0.115
2340.0,7.462,6.068,2.991,-0.206,0.204,0.115
2344.0,7.3,5.667,3.089,-0.288,0.216,0.144
2348.0,7.3,5.667,3.089,-0.288,0.216,0.144
2352.0,7.042,5.334,3.243,-0.288,0.216,0.144
2355.0,7.042,5.334,3.243,-0.335,0.231,0.162
2359.0,7.042,5.334,3.243,-0.335,0.231,0.162
2363.0,6.857,4.998,3.378,-0.349,0.232,0.175
2366.0,6.857,4.998,3.378,-0.349,0.232,0.175
2370.0,6.857,4.998,3.378,-0.349,0.232,0.175
2374.0,6.657,4.76,3.453,-0.337,0.218,0.179
2378.0,6.657,4.76,3.453,-0.337,0.218,0.179
2381.0,6.495,4.534,3.47,-0.337,0.218,0.185
2385.0,6.495,4.534,3.47,-0.306,0.2,0.185
2389.0,6.495,4.534,3.47,-0.306,0.2,0.185
2393.0,6.502,4.338,3.425,-0.262,0.186,0.2
2396.0,6.502,4.338,3.425,-0.262,0.186,0.2
2400.0,6.502,4.338,3.425,-0.262,0.186,0.2
2404.0,6.695,4.083,3.425,-0.207,0.169,0.216
2408.0,6.695,4.083,3.425,-0.207,0.169,0.216
2411.0,6.906,3.867,3.351,-0.207,0.149,0.213
2415.0,6.906,3.867,3.351,-0.143,0.149,0.213
2419.0,6.906,3.867,3.351,-0.143,0.149,0.213
2422.0,7.197,3.726,3.239,-0.072,0.13,0.188
2426.0,7.197,3.726,3.239,-0.072,0.13,0.188
2430.0,7.197,3.726,3.239,-0.072,0.13,0.188
2434.0,7.493,3.669,3.212,0.005,0.122,0.135
2437.0,7.493,3.669,3.212,0.005,0.122,0.135
2441.0,7.631,3.779,3.266,0.08,0.124,0.057
2445.0,7.631,3.779,3.266,0.08,0.124,0.057
2448.0,7.631,3.779,3.266,0.08,0.124,0.057
2452.0,7.516,4.03,3.26,0.142,0.132,-0.011
2456.0,7.516,4.03,3.26,0.142,0.132,-0.011
2459.0,7.516,4.03,3.26,0.142,0.132,-0.011
2463.0,7.432,4.238,3.322,0.186,0.146,-0.05
2467.0,7.432,4.238,3.322,0.186,0.146,-0.05
2471.0,7.276,4.415,3.367,0.219,0.161,-0.058
2474.0,7.276,4.415,3.367,0.219,0.161,-0.058
2478.0,7.276,4.415,3.367,0.219,0.161,-0.058
2482.0,6.957,4.526,3.333,0.242,0.168,-0.038
2485.0,6.957,4.526,3.333,0.242,0.168,-0.038
2489.0,6.957,4.526,3.333,0.242,0.168,-0.038
2493.0,6.708,4.525,3.155,0.257,0.167,0.003
2497.0,6.708,4.525,3.155,0.257,0.167,0.003
2500.0,6.665,4.458,2.897,0.268,0.16,0.041
2504.0,6.665,4.458,2.897,0.268,0.16,0.041
2507.0,6.665,4.458,2.897,0.268,0.16,0.041
2511.0,6.739,4.445,2.653,0.274,0.153,0.057
2515.0,6.739,4.445,2.653,0.274,0.153,0.057
2518.0,6.739,4.445,2.653,0.274,0.153,0.057
2522.0,6.852,4.546,2.396,0.269,0.156,0.053
2526.0,6.852,4.546,2.396,0.269,0.156,0.053
2529.0,6.852,4.718,2.213,0.269,0.156,0.046
2533.0,6.852,4.718,2.213,0.245,0.169,0.046
2537.0,6.852,4.718,2.213,0.245,0.169,0.046
2540.0,6.738,4.932,2.258,0.196,0.19,0.045
2544.0,6.738,4.932,2.258,0.196,0.19,0.045
2548.0,6.738,4.932,2.258,0.196,0.19,0.045
2551.0,6.549,5.104,2.425,0.127,0.204,0.053
2555.0,6.549,5.104,2.425,0.127,0.204,0.053
2559.0,6.549,5.104,2.623,0.127,0.204,0.053
2562.0,6.364,5.177,2.623,0.041,0.211,0.065
2566.0,6.364,5.177,2.623,0.041,0.211,0.065
2569.0,6.234,5.101,2.746,-0.056,0.209,0.077
2573.0,6.234,5.101,2.746,-0.056,0.209,0.077
2577.0,6.234,5.101,2.746,-0.056,0.209,0.077
2581.0,6.2,4.909,2.751,-0.157,0.197,0.08
2584.0,6.2,4.909,2.751,-0.157,0.197,0.08
2588.0,6.2,4.909,2.785,-0.157,0.197,0.08
2592.0,6.245,4.694,2.785,-0.25,0.184,0.055
2596.0,6.245,4.694,2.785,-0.25,0.184,0.055
2599.0,6.296,4.513,2.838,-0.327,0.167,0.015
2603.0,6.296,4.513,2.838,-0.327,0.167,0.015
2607.0,6.296,4.513,2.838,-0.327,0.167,0.015
2611.0,6.375,4.351,2.958,-0.379,0.148,-0.029
2614.0,6.375,4.351,2.958,-0.379,0.148,-0.029
2618.0,6.449,4.189,3.028,-0.379,0.148,-0.029
2622.0,6.449,4.189,3.028,-0.405,0.128,-0.068
2626.0,6.449,4.189,3.028,-0.405,0.128,-0.068
2630.0,6.568,4.068,3.063,-0.404,0.108,-0.104
2633.0,6.568,4.068,3.063,-0.404,0.108,-0.104
2637.0,6.568,4.068,3.063,-0.404,0.108,-0.104
2641.0,6.778,4.001,3.197,-0.379,0.096,-0.139
2645.0,6.778,4.001,3.197,-0.379,0.096,-0.139
2649.0,6.906,4.003,3.314,-0.333,0.088,-0.169
2653.0,6.906,4.003,3.314,-0.333,0.088,-0.169
2656.0,6.906,4.003,3.314,-0.333,0.088,-0.169
2660.0,6.922,4.07,3.332,-0.267,0.078,-0.189
2664.0,6.922,4.07,3.332,-0.267,0.078,-0.189
2668.0,7.021,4.143,3.37,-0.267,0.08,-0.2
2672.0,7.021,4.143,3.37,-0.189,0.08,-0.2
2675.0,7.021,4.143,3.37,-0.189,0.08,-0.2
2679.0,7.231,4.221,3.467,-0.102,0.091,-0.208
2683.0,7.231,4.221,3.467,-0.102,0.091,-0.208
2687.0,7.231,4.433,3.502,-0.102,0.091,-0.208
2691.0,7.501,4.433,3.502,-0.008,0.102,-0.214
2695.0,7.501,4.433,3.502,-0.008,0.102,-0.214
2698.0,7.809,4.649,3.516,0.087,0.119,-0.203
2702.0,7.809,4.649,3.516,0.087,0.119,-0.203
2706.0,7.809,4.649,3.516,0.087,0.119,-0.203
2710.0,8.131,4.834,3.515,0.177,0.147,-0.185
2713.0,8.131,4.834,3.515,0.177,0.147,-0.185
2717.0,8.434,5.084,3.437,0.177,0.147,-0.18
2721.0,8.434,5.084,3.437,0.26,0.186,-0.18
2725.0,8.434,5.084,3.437,0.26,0.186,-0.18
2728.0,8.602,5.357,3.48,0.328,0.228,-0.195
2732.0,8.602,5.357,3.48,0.328,0.228,-0.195
2736.0,8.602,5.357,3.48,0.328,0.228,-0.195
2739.0,8.571,5.608,3.601,0.377,0.263,-0.222
2743.0,8.571,5.608,3.601,0.377,0.263,-0.222
2747.0,8.432,5.867,3.736,0.405,0.293,-0.25
2751.0,8.432,5.867,3.736,0.405,0.293,-0.25
2754.0,8.432,5.867,3.736,0.405,0.293,-0.25
2758.0,8.374,6.071,3.976,0.419,0.318,-0.266
2762.0,8.374,6.071,3.976,0.419,0.318,-0.266
2766.0,8.374,6.071,3.976,0.419,0.318,-0.266
2769.0,8.422,6.269,4.16,0.424,0.324,-0.279
2773.0,8.422,6.269,4.16,0.424,0.324,-0.279
2777.0,8.539,6.51,4.296,0.425,0.313,-0.296
2780.0,8.539,6.51,4.296,0.425,0.313,-0.296
2784.0,8.539,6.51,4.296,0.425,0.313,-0.296
2788.0,8.676,6.738,4.42,0.417,0.301,-0.308
2792.0,8.676,6.738,4.42,0.417,0.301,-0.308
2795.0,8.676,6.738,4.669,0.417,0.301,-0.308
2799.0,8.637,6.927,4.669,0.402,0.288,-0.298
2803.0,8.637,6.927,4.669,0.402,0.288,-0.298
2807.0,8.506,7.074,4.795,0.38,0.258,-0.253
2810.0,8.506,7.074,4.795,0.38,0.258,-0.253
2814.0,8.506,7.074,4.795,0.38,0.258,-0.253
2818.0,8.477,7.102,4.805,0.353,0.215,-0.193
2822.0,8.477,7.102,4.805,0.353,0.215,-0.193
2825.0,8.521,7.074,4.798,0.353,0.215,-0.193
2829.0,8.521,7.074,4.798,0.316,0.171,-0.138
2833.0,8.521,7.074,4.798,0.316,0.171,-0.138
2836.0,8.546,7.029,4.722,0.262,0.124,-0.09
2840.0,8.546,7.029,4.722,0.262,0.124,-0.09
2844.0,8.546,7.029,4.722,0.262,0.124,-0.09
2848.0,8.681,6.928,4.54,0.184,0.07,-0.051
2851.0,8.681,6.928,4.54,0.184,0.07,-0.051
2855.0,8.932,6.814,4.435,0.184,0.07,-0.039
2859.0,8.932,6.814,4.435,0.083,0.02,-0.039
2863.0,8.932,6.814,4.435,0.083,0.02,-0.039
2866.0,9.126,6.703,4.406,-0.041,-0.019,-0.056
2870.0,9.126,6.703,4.406,-0.041,-0.019,-0.056
2874.0,9.126,6.703,4.406,-0.041,-0.019,-0.056
2878.0,9.193,6.509,4.394,-0.178,-0.046,-0.082
2882.0,9.193,6.509,4.394,-0.178,-0.046,-0.082
2886.0,9.351,6.26,4.417,-0.312,-0.063,-0.117
2890.0,9.351,6.26,4.417,-0.312,-0.063,-0.117
2894.0,9.351,6.26,4.417,-0.312,-0.063,-0.117
2898.0,9.334,6.022,4.501,-0.429,-0.059,-0.167
2902.0,9.334,6.022,4.501,-0.429,-0.059,-0.167
2905.0,9.044,5.721,4.522,-0.52,-0.04,-0.202
2909.0,9.044,5.721,4.522,-0.52,-0.04,-0.202
2913.0,9.044,5.721,4.522,-0.52,-0.04,-0.202
2917.0,8.758,5.314,4.463,-0.581,-0.017,-0.208
2921.0,8.758,5.314,4.463,-0.581,-0.017,-0.208
2925.0,8.679,4.945,4.434,-0.606,0.015,-0.22
2929.0,8.679,4.945,4.434,-0.606,0.015,-0.22
2933.0,8.679,4.945,4.434,-0.606,0.015,-0.22
2936.0,8.552,4.704,4.534,-0.593,0.054,-0.255
2940.0,8.552,4.704,4.534,-0.593,0.054,-0.255
2944.0,8.209,4.572,4.705,-0.593,0.054,-0.286
2948.0,8.209,4.572,4.705,-0.555,0.096,-0.286
2952.0,8.209,4.572,4.705,-0.555,0.096,-0.286
2955.0,7.698,4.513,4.881,-0.491,0.125,-0.298
2959.0,7.698,4.513,4.881,-0.491,0.125,-0.298
2963.0,7.698,4.513,5.032,-0.491,0.125,-0.298
2967.0,7.207,4.454,5.032,-0.398,0.13,-0.301
2971.0,7.207,4.454,5.032,-0.398,0.13,-0.301
2975.0,6.759,4.388,5.1,-0.287,0.116,-0.298
2978.0,6.759,4.388,5.1,-0.287,0.116,-0.298
2982.0,6.759,4.388,5.1,-0.287,0.116,-0.298
2986.0,6.422,4.291,5.067,-0.17,0.09,-0.287
2990.0,6.422,4.291,5.067,-0.17,0.09,-0.287
2994.0,6.386,4.245,4.97,-0.054,0.058,-0.274
2998.0,6.386,4.245,4.97,-0.054,0.058,-0.274
