deltaTime,Acc_X,Acc_Y,Acc_Z,Gyro_X,Gyro_Y,Gyro_Z
0.0,-8.477,-2.352,2.727,0.703,-0.162,0.131
3.0,-8.477,-2.352,2.727,0.703,-0.162,0.131
6.0,-8.556,-2.057,2.771,0.621,-0.08,0.106
9.0,-8.556,-2.057,2.771,0.621,-0.08,0.106
12.0,-8.556,-2.057,2.771,0.621,-0.08,0.106
15.0,-8.877,-1.698,2.895,0.621,-0.08,0.106
18.0,-8.877,-1.698,2.895,0.484,0.039,0.069
21.0,-8.877,-1.698,2.895,0.484,0.039,0.069
24.0,-8.877,-1.698,2.895,0.484,0.039,0.069
27.0,-8.887,-1.012,3.099,0.303,0.112,-0.007
30.0,-8.887,-1.012,3.099,0.303,0.112,-0.007
33.0,-8.887,-1.012,3.099,0.303,0.112,-0.007
36.0,-8.763,-0.407,3.345,0.052,0.138,-0.12
39.0,-8.763,-0.407,3.345,0.052,0.138,-0.12
43.0,-8.763,-0.407,3.345,0.052,0.138,-0.12
47.0,-8.564,-0.167,3.69,-0.231,0.145,-0.215
50.0,-8.564,-0.167,3.69,-0.231,0.145,-0.215
54.0,-7.932,-0.545,3.986,-0.231,0.145,-0.252
58.0,-7.932,-0.545,3.986,-0.48,0.137,-0.252
62.0,-7.932,-0.545,3.986,-0.48,0.137,-0.252
66.0,-7.49,-1.053,4.206,-0.603,0.128,-0.238
70.0,-7.49,-1.053,4.206,-0.603,0.128,-0.238
73.0,-7.49,-1.053,4.206,-0.603,0.128,-0.238
77.0,-7.416,-1.409,4.379,-0.618,0.126,-0.215
81.0,-7.416,-1.409,4.379,-0.618,0.126,-0.215
85.0,-7.213,-1.68,4.529,-0.582,0.125,-0.183
89.0,-7.213,-1.68,4.529,-0.582,0.125,-0.183
92.0,-7.213,-1.68,4.529,-0.582,0.125,-0.183
96.0,-7.244,-1.878,4.637,-0.522,0.112,-0.144
100.0,-7.244,-1.878,4.637,-0.522,0.112,-0.144
104.0,-7.243,-2.308,4.702,-0.447,0.085,-0.108
108.0,-7.243,-2.308,4.702,-0.447,0.085,-0.108
112.0,-7.243,-2.308,4.702,-0.447,0.085,-0.108
116.0,-7.245,-2.75,4.669,-0.336,0.057,-0.063
120.0,-7.245,-2.75,4.669,-0.336,0.057,-0.063
124.0,-7.187,-2.995,4.55,-0.336,0.04,-0.023
127.0,-7.187,-2.995,4.55,-0.198,0.04,-0.023
131.0,-7.187,-2.995,4.55,-0.198,0.04,-0.023
135.0,-7.275,-3.162,4.426,-0.061,0.045,0.01
139.0,-7.275,-3.162,4.426,-0.061,0.045,0.01
143.0,-7.31,-2.67,4.298,-0.061,0.045,0.01
147.0,-7.31,-2.67,4.298,0.041,0.062,0.018
150.0,-7.31,-2.67,4.298,0.041,0.062,0.018
154.0,-7.513,-1.974,4.333,0.016,0.092,0.006
158.0,-7.513,-1.974,4.333,0.016,0.092,0.006
162.0,-7.513,-1.974,4.333,0.016,0.092,0.006
165.0,-7.829,-1.547,4.588,-0.12,0.116,0.006
169.0,-7.829,-1.547,4.588,-0.12,0.116,0.006
173.0,-8.081,-1.29,4.883,-0.12,0.119,0.034
177.0,-8.081,-1.29,4.883,-0.294,0.119,0.034
181.0,-8.081,-1.29,4.883,-0.294,0.119,0.034
184.0,-8.291,-1.376,5.151,-0.458,0.105,0.088
188.0,-8.291,-1.376,5.151,-0.458,0.105,0.088
192.0,-8.291,-1.617,5.323,-0.458,0.105,0.088
196.0,-8.41,-1.617,5.323,-0.562,0.082,0.159
200.0,-8.41,-1.617,5.323,-0.562,0.082,0.159
204.0,-8.166,-1.993,5.389,-0.593,0.059,0.236
207.0,-8.166,-1.993,5.389,-0.593,0.059,0.236
211.0,-8.166,-1.993,5.389,-0.593,0.059,0.236
215.0,-8.272,-2.395,5.539,-0.548,0.056,0.313
219.0,-8.272,-2.395,5.539,-0.548,0.056,0.313
223.0,-8.497,-2.281,5.76,-0.457,0.06,0.367
226.0,-8.497,-2.281,5.76,-0.457,0.06,0.367
230.0,-8.497,-2.281,5.76,-0.457,0.06,0.367
234.0,-8.681,-1.81,5.876,-0.416,0.044,0.375
238.0,-8.681,-1.81,5.876,-0.416,0.044,0.375
242.0,-9.003,-1.225,5.985,-0.416,0.044,0.375
246.0,-9.003,-1.225,5.985,-0.456,-0.017,0.345
249.0,-9.003,-1.225,5.985,-0.456,-0.017,0.345
253.0,-8.881,-1.416,6.127,-0.57,-0.098,0.306
257.0,-8.881,-1.416,6.127,-0.57,-0.098,0.306
261.0,-8.881,-1.403,6.101,-0.57,-0.098,0.306
265.0,-8.363,-1.403,6.101,-0.639,-0.141,0.287
269.0,-8.363,-1.403,6.101,-0.639,-0.141,0.287
273.0,-8.077,-1.128,5.929,-0.676,-0.172,0.276
277.0,-8.077,-1.128,5.929,-0.676,-0.172,0.276
281.0,-8.077,-1.128,5.832,-0.676,-0.172,0.276
285.0,-8.257,-1.07,5.832,-0.754,-0.184,0.275
289.0,-8.257,-1.07,5.832,-0.754,-0.184,0.275
292.0,-8.454,-1.535,6.019,-0.817,-0.186,0.306
296.0,-8.454,-1.535,6.019,-0.817,-0.186,0.306
300.0,-8.454,-1.535,6.019,-0.817,-0.186,0.306
304.0,-9.211,-1.472,5.843,-0.816,-0.197,0.361
308.0,-9.211,-1.472,5.843,-0.816,-0.197,0.361
312.0,-9.844,-1.387,5.789,-0.824,-0.301,0.384
316.0,-9.844,-1.387,5.789,-0.824,-0.301,0.384
320.0,-9.844,-1.387,5.789,-0.824,-0.301,0.384
324.0,-10.111,-1.506,5.823,-0.849,-0.449,0.389
328.0,-10.111,-1.506,5.823,-0.849,-0.449,0.389
332.0,-10.129,-1.652,5.87,-0.869,-0.594,0.391
336.0,-10.129,-1.652,5.87,-0.869,-0.594,0.391
340.0,-10.129,-1.652,5.87,-0.869,-0.594,0.391
344.0,-10.0,-1.873,5.95,-0.867,-0.729,0.393
348.0,-10.0,-1.873,5.95,-0.867,-0.729,0.393
352.0,-9.915,-2.105,6.145,-0.835,-0.856,0.383
356.0,-9.915,-2.105,6.145,-0.835,-0.856,0.383
359.0,-9.915,-2.105,6.145,-0.835,-0.856,0.383
363.0,-9.868,-2.258,6.368,-0.768,-0.975,0.356
367.0,-9.868,-2.258,6.368,-0.768,-0.975,0.356
371.0,-9.824,-2.365,6.701,-0.672,-1.08,0.32
375.0,-9.824,-2.365,6.701,-0.672,-1.08,0.32
379.0,-9.824,-2.365,6.701,-0.672,-1.08,0.32
383.0,-9.794,-2.471,7.175,-0.555,-1.168,0.285
387.0,-9.794,-2.471,7.175,-0.555,-1.168,0.285
391.0,-9.823,-2.667,7.662,-0.415,-1.244,0.254
395.0,-9.823,-2.667,7.662,-0.415,-1.244,0.254
399.0,-9.823,-2.667,7.662,-0.415,-1.244,0.254
402.0,-9.988,-3.005,8.267,-0.247,-1.31,0.23
406.0,-9.988,-3.005,8.267,-0.247,-1.31,0.23
410.0,-10.329,-3.629,9.077,-0.03,-1.381,0.21
414.0,-10.329,-3.629,9.077,-0.03,-1.381,0.21
418.0,-10.329,-3.629,9.077,-0.03,-1.381,0.21
422.0,-10.787,-4.189,10.136,0.264,-1.486,0.187
426.0,-10.787,-4.189,10.136,0.264,-1.486,0.187
430.0,-11.332,-4.609,11.125,0.648,-1.658,0.167
434.0,-11.332,-4.609,11.125,0.648,-1.658,0.167
438.0,-11.332,-4.609,11.125,0.648,-1.658,0.167
442.0,-11.801,-4.823,11.641,1.111,-1.894,0.157
446.0,-11.801,-4.823,11.641,1.111,-1.894,0.157
450.0,-11.93,-5.002,11.736,1.62,-2.161,0.16
454.0,-11.93,-5.002,11.736,1.62,-2.161,0.16
458.0,-11.93,-5.002,11.736,1.62,-2.161,0.16
462.0,-11.676,-5.276,11.728,2.157,-2.414,0.168
466.0,-11.676,-5.276,11.728,2.157,-2.414,0.168
470.0,-11.264,-5.388,11.853,2.724,-2.633,0.168
474.0,-11.264,-5.388,11.853,2.724,-2.633,0.168
478.0,-11.264,-5.388,12.038,2.724,-2.633,0.168
482.0,-11.0,-5.043,12.038,3.286,-2.819,0.18
486.0,-11.0,-5.043,12.038,3.286,-2.819,0.18
490.0,-10.688,-4.182,12.349,3.753,-2.97,0.241
494.0,-10.688,-4.182,12.349,3.753,-2.97,0.241
498.0,-10.688,-3.408,12.759,3.753,-2.97,0.241
502.0,-10.992,-3.408,12.759,4.044,-3.089,0.349
506.0,-10.992,-3.408,12.759,4.044,-3.089,0.349
510.0,-10.539,-2.35,13.226,4.175,-3.316,0.451
514.0,-10.539,-2.35,13.226,4.175,-3.316,0.451
518.0,-10.342,-1.409,13.608,4.175,-3.316,0.451
522.0,-10.342,-1.409,13.608,4.106,-3.516,0.503
526.0,-10.342,-1.409,13.608,4.106,-3.516,0.503
530.0,-10.207,-0.483,13.823,3.875,-3.742,0.501
534.0,-10.207,-0.483,13.823,3.875,-3.742,0.501
538.0,-9.973,0.387,13.737,3.875,-3.742,0.473
542.0,-9.973,0.387,13.737,3.503,-3.969,0.473
546.0,-9.973,0.387,13.737,3.503,-3.969,0.473
549.0,-9.66,0.937,13.688,3.029,-4.165,0.439
553.0,-9.66,0.937,13.688,3.029,-4.165,0.439
557.0,-9.66,0.937,13.771,3.029,-4.165,0.439
561.0,-9.413,0.938,13.771,2.516,-4.334,0.386
565.0,-9.413,0.938,13.771,2.516,-4.334,0.386
569.0,-9.37,0.357,14.236,2.032,-4.504,0.298
572.0,-9.37,0.357,14.236,2.032,-4.504,0.298
576.0,-9.37,0.357,14.236,2.032,-4.504,0.298
580.0,-9.301,-0.6,14.686,1.648,-4.695,0.166
584.0,-9.301,-0.6,14.686,1.648,-4.695,0.166
588.0,-8.994,-1.764,15.05,1.395,-4.885,0.004
592.0,-8.994,-1.764,15.05,1.395,-4.885,0.004
596.0,-8.994,-1.764,15.05,1.395,-4.885,0.004
600.0,-8.514,-2.935,15.066,1.281,-4.984,-0.162
604.0,-8.514,-2.935,15.066,1.281,-4.984,-0.162
608.0,-7.943,-3.85,15.056,1.31,-4.992,-0.311
612.0,-7.943,-3.85,15.056,1.31,-4.992,-0.311
616.0,-7.943,-3.85,15.056,1.31,-4.992,-0.311
620.0,-7.572,-4.612,15.118,1.492,-4.992,-0.44
624.0,-7.572,-4.612,15.118,1.492,-4.992,-0.44
627.0,-7.35,-5.224,14.85,1.806,-4.992,-0.549
631.0,-7.35,-5.224,14.85,1.806,-4.992,-0.549
635.0,-7.35,-5.224,14.85,1.806,-4.992,-0.549
639.0,-6.877,-5.325,14.272,2.203,-4.992,-0.623
643.0,-6.877,-5.325,14.272,2.203,-4.992,-0.623
647.0,-6.116,-5.26,13.631,2.623,-4.992,-0.647
651.0,-6.116,-5.26,13.631,2.623,-4.992,-0.647
655.0,-6.116,-5.26,13.631,2.623,-4.992,-0.647
659.0,-5.401,-4.952,12.708,3.018,-4.992,-0.636
663.0,-5.401,-4.952,12.708,3.018,-4.992,-0.636
667.0,-4.739,-4.611,11.978,3.344,-4.992,-0.62
671.0,-4.739,-4.611,11.978,3.344,-4.992,-0.62
675.0,-4.739,-4.611,11.978,3.344,-4.992,-0.62
679.0,-4.186,-4.137,11.316,3.571,-4.992,-0.627
683.0,-4.186,-4.137,11.316,3.571,-4.992,-0.627
687.0,-3.669,-3.539,10.454,3.674,-4.992,-0.64
691.0,-3.669,-3.539,10.454,3.674,-4.992,-0.64
695.0,-3.669,-3.539,9.577,3.674,-4.992,-0.64
699.0,-3.159,-2.9,9.577,3.656,-4.992,-0.659
703.0,-3.159,-2.9,9.577,3.656,-4.992,-0.659
707.0,-2.712,-2.352,9.123,3.569,-4.992,-0.698
711.0,-2.712,-2.352,9.123,3.569,-4.992,-0.698
715.0,-2.712,-2.352,9.123,3.569,-4.992,-0.698
719.0,-2.513,-1.873,8.716,3.436,-4.992,-0.727
723.0,-2.513,-1.873,8.716,3.436,-4.992,-0.727
727.0,-2.472,-1.865,8.328,3.235,-4.992,-0.741
731.0,-2.472,-1.865,8.328,3.235,-4.992,-0.741
734.0,-2.472,-1.865,8.328,3.235,-4.992,-0.741
738.0,-2.643,-2.137,7.857,2.998,-4.992,-0.769
742.0,-2.643,-2.137,7.857,2.998,-4.992,-0.769
746.0,-2.803,-2.62,7.205,2.756,-4.992,-0.838
750.0,-2.803,-2.62,7.205,2.756,-4.992,-0.838
754.0,-2.803,-2.62,7.205,2.756,-4.992,-0.838
758.0,-2.353,-2.745,6.013,2.554,-4.992,-0.951
762.0,-2.353,-2.745,6.013,2.554,-4.992,-0.951
766.0,-1.594,-2.829,4.865,2.421,-4.992,-1.095
770.0,-1.594,-2.829,4.865,2.421,-4.992,-1.095
774.0,-1.594,-2.829,4.865,2.421,-4.992,-1.095
777.0,-0.838,-2.873,3.747,2.382,-4.992,-1.248
781.0,-0.838,-2.873,3.747,2.382,-4.992,-1.248
785.0,0.046,-2.959,2.629,2.436,-4.973,-1.386
789.0,0.046,-2.959,2.629,2.436,-4.973,-1.386
793.0,0.046,-2.959,2.629,2.436,-4.973,-1.386
797.0,0.97,-3.017,1.765,2.583,-4.825,-1.513
800.0,0.97,-3.017,1.765,2.583,-4.825,-1.513
804.0,1.705,-2.676,1.043,2.583,-4.825,-1.513
808.0,1.705,-2.676,1.043,2.813,-4.595,-1.655
812.0,1.705,-2.676,1.043,2.813,-4.595,-1.655
816.0,2.324,-1.901,0.409,3.075,-4.32,-1.791
820.0,2.324,-1.901,0.409,3.075,-4.32,-1.791
823.0,2.324,-1.901,0.409,3.075,-4.32,-1.791
827.0,2.593,-0.903,-0.202,3.331,-4.022,-1.902
831.0,2.593,-0.903,-0.202,3.331,-4.022,-1.902
835.0,3.283,0.662,-0.979,3.578,-3.783,-1.975
839.0,3.283,0.662,-0.979,3.578,-3.783,-1.975
843.0,3.283,0.662,-0.979,3.578,-3.783,-1.975
847.0,3.845,2.569,-2.117,3.776,-3.501,-1.994
850.0,3.845,2.569,-2.117,3.776,-3.501,-1.994
854.0,4.811,4.737,-3.401,3.941,-3.198,-1.934
858.0,4.811,4.737,-3.401,3.941,-3.198,-1.934
862.0,4.811,4.737,-3.401,3.941,-3.198,-1.934
866.0,6.199,6.423,-4.353,4.062,-2.857,-1.802
869.0,6.199,6.423,-4.353,4.062,-2.857,-1.802
873.0,7.719,7.746,-4.676,4.062,-2.857,-1.802
877.0,7.719,7.746,-4.676,4.112,-2.481,-1.655
881.0,7.719,7.746,-4.676,4.112,-2.481,-1.655
885.0,8.611,9.241,-4.552,4.098,-2.082,-1.52
889.0,8.611,9.241,-4.552,4.098,-2.082,-1.52
892.0,8.611,9.241,-4.552,4.098,-2.082,-1.52
896.0,8.803,10.892,-4.692,4.055,-1.676,-1.347
900.0,8.803,10.892,-4.692,4.055,-1.676,-1.347
904.0,9.109,12.488,-5.658,3.992,-1.258,-1.088
908.0,9.109,12.488,-5.658,3.992,-1.258,-1.088
912.0,9.109,12.488,-5.658,3.992,-1.258,-1.088
916.0,10.025,14.049,-7.54,3.912,-0.771,-0.749
920.0,10.025,14.049,-7.54,3.912,-0.771,-0.749
924.0,11.245,15.771,-9.838,3.847,-0.166,-0.357
928.0,11.245,15.771,-9.838,3.847,-0.166,-0.357
932.0,11.245,15.771,-9.838,3.847,-0.166,-0.357
936.0,12.75,17.685,-12.287,3.809,0.558,0.132
940.0,12.75,17.685,-12.287,3.809,0.558,0.132
943.0,13.591,19.019,-13.511,3.813,1.405,0.725
947.0,13.591,19.019,-13.511,3.813,1.405,0.725
951.0,13.591,19.019,-13.511,3.813,1.405,0.725
955.0,13.783,19.581,-12.797,3.839,2.22,1.354
959.0,13.783,19.581,-12.797,3.839,2.22,1.354
963.0,12.816,19.504,-11.408,3.834,2.987,2.023
967.0,12.816,19.504,-11.408,3.834,2.987,2.023
971.0,12.816,19.504,-11.408,3.834,2.987,2.023
975.0,10.866,18.566,-9.391,3.784,3.655,2.688
979.0,10.866,18.566,-9.391,3.784,3.655,2.688
982.0,8.3,17.031,-7.181,3.784,4.196,3.257
986.0,8.3,17.031,-7.181,3.684,4.196,3.257
990.0,8.3,17.031,-7.181,3.684,4.196,3.257
994.0,5.643,15.4,-5.285,3.501,4.618,3.706
997.0,5.643,15.4,-5.285,3.501,4.618,3.706
1001.0,5.643,15.4,-5.285,3.501,4.618,3.706
1005.0,3.178,13.825,-3.874,3.202,4.93,4.031
1009.0,3.178,13.825,-3.874,3.202,4.93,4.031
1012.0,0.77,12.314,-3.023,2.761,5.015,4.24
1016.0,0.77,12.314,-3.023,2.761,5.015,4.24
1020.0,0.77,12.314,-3.023,2.761,5.015,4.24
1024.0,-1.586,11.005,-2.741,2.164,5.015,4.343
1028.0,-1.586,11.005,-2.741,2.164,5.015,4.343
1032.0,-4.155,9.757,-2.375,2.164,5.015,4.364
1036.0,-4.155,9.757,-2.375,1.411,5.015,4.364
1039.0,-4.155,9.757,-2.375,1.411,5.015,4.364
1043.0,-7.159,8.512,-1.173,0.503,5.015,4.355
1047.0,-7.159,8.512,-1.173,0.503,5.015,4.355
1051.0,-7.159,6.657,1.46,0.503,5.015,4.355
1055.0,-11.005,6.657,1.46,-0.502,4.976,4.326
1058.0,-11.005,6.657,1.46,-0.502,4.976,4.326
1062.0,-16.606,3.178,4.705,-1.471,4.555,4.129
1066.0,-16.606,3.178,4.705,-1.471,4.555,4.129
1070.0,-16.606,3.178,4.705,-1.471,4.555,4.129
1074.0,-19.585,-1.099,6.747,-2.307,3.695,3.623
1078.0,-19.585,-1.099,6.747,-2.307,3.695,3.623
1082.0,-19.593,-4.418,7.671,-2.966,2.563,2.889
1086.0,-19.593,-4.418,7.671,-2.966,2.563,2.889
1090.0,-19.593,-4.418,7.624,-2.966,2.563,2.889
1094.0,-16.636,-6.244,7.624,-3.429,1.365,2.078
1098.0,-16.636,-6.244,7.624,-3.429,1.365,2.078
1102.0,-11.857,-7.361,6.107,-3.665,0.296,1.209
1106.0,-11.857,-7.361,6.107,-3.665,0.296,1.209
1110.0,-11.857,-8.368,4.889,-3.665,0.296,1.209
1114.0,-8.669,-8.368,4.889,-3.658,-0.591,0.277
1118.0,-8.669,-8.368,4.889,-3.658,-0.591,0.277
1122.0,-6.389,-9.416,4.394,-3.442,-1.308,-0.654
1126.0,-6.389,-9.416,4.394,-3.442,-1.308,-0.654
1130.0,-4.424,-9.914,4.185,-3.442,-1.308,-1.489
1134.0,-4.424,-9.914,4.185,-3.058,-1.821,-1.489
1138.0,-4.424,-9.914,4.185,-3.058,-1.821,-1.489
1142.0,-2.972,-9.732,4.274,-2.551,-2.12,-2.16
1147.0,-2.972,-9.732,4.274,-2.551,-2.12,-2.16
1151.0,-2.097,-8.957,4.364,-1.984,-2.288,-2.647
1155.0,-2.097,-8.957,4.364,-1.984,-2.288,-2.647
1159.0,-2.097,-8.957,4.364,-1.984,-2.288,-2.647
1163.0,-1.635,-7.78,4.252,-1.408,-2.413,-2.969
1167.0,-1.635,-7.78,4.252,-1.408,-2.413,-2.969
1171.0,-1.329,-6.361,3.944,-0.873,-2.551,-3.172
1175.0,-1.329,-6.361,3.944,-0.873,-2.551,-3.172
1179.0,-1.329,-4.819,3.421,-0.873,-2.551,-3.172
1183.0,-0.991,-4.819,3.421,-0.429,-2.71,-3.305
1187.0,-0.991,-4.819,3.421,-0.429,-2.71,-3.305
1191.0,-0.349,-3.448,2.751,-0.1,-2.874,-3.421
1195.0,-0.349,-3.448,2.751,-0.1,-2.874,-3.421
1200.0,0.683,-2.166,2.234,-0.1,-3.004,-3.568
1204.0,0.683,-2.166,2.234,0.136,-3.004,-3.568
1207.0,0.683,-2.166,2.234,0.136,-3.004,-3.568
1211.0,2.036,-0.749,1.691,0.319,-3.064,-3.755
1215.0,2.036,-0.749,1.691,0.319,-3.064,-3.755
1219.0,3.541,0.884,1.249,0.319,-3.058,-3.956
1223.0,3.541,0.884,1.249,0.508,-3.058,-3.956
1227.0,3.541,0.884,1.249,0.508,-3.058,-3.956
1231.0,5.335,2.979,0.803,0.747,-3.017,-4.125
1234.0,5.335,2.979,0.803,0.747,-3.017,-4.125
1238.0,5.335,2.979,0.365,0.747,-3.017,-4.125
1242.0,7.399,5.081,0.365,1.037,-2.938,-4.203
1246.0,7.399,5.081,0.365,1.037,-2.938,-4.203
1250.0,9.119,6.723,0.388,1.347,-2.863,-4.196
1254.0,9.119,6.723,0.388,1.347,-2.863,-4.196
1257.0,9.119,6.723,0.388,1.347,-2.863,-4.196
1261.0,10.151,8.185,0.28,1.63,-2.84,-4.158
1265.0,10.151,8.185,0.28,1.63,-2.84,-4.158
1269.0,10.333,10.04,-0.497,1.867,-2.837,-4.108
1273.0,10.333,10.04,-0.497,1.867,-2.837,-4.108
1277.0,10.333,10.04,-0.497,1.867,-2.837,-4.108
1281.0,10.148,12.273,-1.925,2.073,-2.811,-3.992
1285.0,10.148,12.273,-1.925,2.073,-2.811,-3.992
1289.0,10.201,14.728,-3.65,2.254,-2.758,-3.782
1293.0,10.201,14.728,-3.65,2.254,-2.758,-3.782
1298.0,10.201,14.728,-6.394,2.254,-2.758,-3.782
1302.0,10.762,17.885,-6.394,2.4,-2.661,-3.468
1306.0,10.762,17.885,-6.394,2.4,-2.661,-3.468
1310.0,12.291,19.582,-9.628,2.474,-2.486,-3.013
1314.0,12.291,19.582,-9.628,2.474,-2.486,-3.013
1318.0,14.75,19.596,-12.54,2.474,-2.168,-2.451
1322.0,14.75,19.596,-12.54,2.339,-2.168,-2.451
1326.0,14.75,19.596,-12.54,2.339,-2.168,-2.451
1330.0,17.186,19.596,-15.062,1.973,-1.679,-1.912
1335.0,17.186,19.596,-15.062,1.973,-1.679,-1.912
1339.0,18.441,19.596,-16.704,1.481,-1.033,-1.438
1343.0,18.441,19.596,-16.704,1.481,-1.033,-1.438
1347.0,18.315,19.596,-16.749,1.481,-1.033,-1.438
1351.0,18.315,19.596,-16.749,1.02,-0.272,-0.93
1355.0,18.315,19.596,-16.749,1.02,-0.272,-0.93
1360.0,16.72,19.596,-14.367,0.683,0.499,-0.335
1364.0,16.72,19.596,-14.367,0.683,0.499,-0.335
1368.0,13.989,19.596,-11.128,0.52,1.151,0.292
1372.0,13.989,19.596,-11.128,0.52,1.151,0.292
1376.0,13.989,19.596,-11.128,0.52,1.151,0.292
1380.0,11.289,19.596,-9.586,0.537,1.638,0.918
1384.0,11.289,19.596,-9.586,0.537,1.638,0.918
1388.0,10.191,19.596,-9.797,0.649,2.054,1.574
1391.0,10.191,19.596,-9.797,0.649,2.054,1.574
1395.0,10.191,19.596,-9.797,0.649,2.054,1.574
1399.0,10.81,19.596,-10.463,0.795,2.496,2.225
1403.0,10.81,19.596,-10.463,0.795,2.496,2.225
1407.0,11.769,19.596,-10.774,0.887,3.005,2.811
1411.0,11.769,19.596,-10.774,0.887,3.005,2.811
1415.0,11.769,19.596,-10.774,0.887,3.005,2.811
1419.0,12.114,19.461,-10.42,0.864,3.554,3.305
1423.0,12.114,19.461,-10.42,0.864,3.554,3.305
1427.0,11.758,18.386,-10.094,0.761,4.106,3.722
1431.0,11.758,18.386,-10.094,0.761,4.106,3.722
1435.0,11.758,18.386,-10.094,0.761,4.106,3.722
1439.0,10.829,16.863,-9.085,0.592,4.647,4.102
1443.0,10.829,16.863,-9.085,0.592,4.647,4.102
1447.0,9.296,15.195,-7.815,0.377,4.986,4.44
1451.0,9.296,15.195,-7.815,0.377,4.986,4.44
1455.0,9.296,15.195,-7.815,0.377,4.986,4.44
1458.0,7.052,13.079,-6.059,0.137,5.015,4.76
1462.0,7.052,13.079,-6.059,0.137,5.015,4.76
1466.0,4.132,10.68,-3.903,-0.12,5.015,4.984
1470.0,4.132,10.68,-3.903,-0.12,5.015,4.984
1474.0,4.132,10.68,-3.903,-0.12,5.015,4.984
1478.0,0.983,8.34,-1.794,-0.385,5.015,5.013
1482.0,0.983,8.34,-1.794,-0.385,5.015,5.013
1485.0,-2.28,6.771,-0.379,-0.385,5.015,5.013
1489.0,-2.28,6.771,-0.379,-0.662,5.015,5.013
1493.0,-2.28,6.771,-0.379,-0.662,5.015,5.013
1497.0,-5.776,6.077,0.27,-1.001,5.015,5.013
1501.0,-5.776,6.077,0.27,-1.001,5.015,5.013
1505.0,-5.776,6.077,-0.267,-1.001,5.015,5.013
1509.0,-9.201,5.543,-0.267,-1.434,5.015,5.013
1513.0,-9.201,5.543,-0.267,-1.434,5.015,5.013
1517.0,-13.536,4.786,-0.19,-1.913,5.015,5.013
1521.0,-13.536,4.786,-0.19,-1.913,5.015,5.013
1525.0,-13.536,4.786,1.898,-1.913,5.015,5.013
1528.0,-18.588,1.821,1.898,-2.254,5.005,5.013
1532.0,-18.588,1.821,1.898,-2.254,5.005,5.013
1536.0,-19.6,-3.855,3.788,-2.19,4.558,4.985
1540.0,-19.6,-3.855,3.788,-2.19,4.558,4.985
1544.0,-19.6,-3.855,5.16,-2.19,4.558,4.985
1548.0,-19.6,-6.907,5.16,-1.663,3.319,4.58
1552.0,-19.6,-6.907,5.16,-1.663,3.319,4.58
1556.0,-14.779,-7.977,4.7,-1.04,1.857,3.885
1560.0,-14.779,-7.977,4.7,-1.04,1.857,3.885
1564.0,-4.18,-8.286,2.876,-1.04,1.857,3.885
1568.0,-4.18,-8.286,2.876,-0.583,0.855,2.889
1572.0,-4.18,-8.286,2.876,-0.583,0.855,2.889
1576.0,1.525,-7.104,2.557,-0.311,0.392,1.55
1580.0,1.525,-7.104,2.557,-0.311,0.392,1.55
1584.0,1.525,-7.104,2.557,-0.311,0.392,1.55
1587.0,3.315,-5.243,4.145,-0.235,0.012,0.343
1591.0,3.315,-5.243,4.145,-0.235,0.012,0.343
1595.0,4.412,-4.034,4.999,-0.252,-0.517,-0.517
1599.0,4.412,-4.034,4.999,-0.252,-0.517,-0.517
1603.0,4.412,-4.034,4.999,-0.252,-0.517,-0.517
1607.0,5.483,-3.312,4.6,-0.275,-1.04,-1.129
1611.0,5.483,-3.312,4.6,-0.275,-1.04,-1.129
1615.0,6.184,-2.564,3.881,-0.328,-1.362,-1.57
1619.0,6.184,-2.564,3.881,-0.328,-1.362,-1.57
1623.0,6.184,-2.564,3.881,-0.328,-1.362,-1.57
1627.0,6.543,-1.957,3.448,-0.448,-1.471,-1.85
1631.0,6.543,-1.957,3.448,-0.448,-1.471,-1.85
1635.0,7.049,-1.358,3.135,-0.609,-1.469,-2.001
1639.0,7.049,-1.358,3.135,-0.609,-1.469,-2.001
1643.0,7.049,-1.358,2.73,-0.609,-1.469,-2.001
1647.0,8.062,-0.658,2.73,-0.765,-1.381,-2.089
1651.0,8.062,-0.658,2.73,-0.765,-1.381,-2.089
1655.0,9.069,0.495,2.795,-0.86,-1.151,-2.138
1659.0,9.069,0.495,2.795,-0.86,-1.151,-2.138
1663.0,9.069,0.495,3.537,-0.86,-1.151,-2.138
1667.0,9.465,1.714,3.537,-0.853,-0.853,-2.083
1671.0,9.465,1.714,3.537,-0.853,-0.853,-2.083
1674.0,9.696,2.636,4.164,-0.74,-0.615,-1.884
1678.0,9.696,2.636,4.164,-0.74,-0.615,-1.884
1682.0,9.696,2.636,4.164,-0.74,-0.615,-1.884
1686.0,9.908,3.291,4.25,-0.536,-0.446,-1.589
1690.0,9.908,3.291,4.25,-0.536,-0.446,-1.589
1694.0,10.103,3.646,4.279,-0.261,-0.32,-1.255
1698.0,10.103,3.646,4.279,-0.261,-0.32,-1.255
1702.0,10.103,3.646,4.279,-0.261,-0.32,-1.255
1706.0,10.384,3.885,4.089,0.046,-0.244,-0.928
1710.0,10.384,3.885,4.089,0.046,-0.244,-0.928
1714.0,10.746,4.16,3.797,0.33,-0.192,-0.652
1718.0,10.746,4.16,3.797,0.33,-0.192,-0.652
1722.0,10.746,4.16,3.797,0.33,-0.192,-0.652
1725.0,10.798,4.543,3.46,0.551,-0.137,-0.453
1729.0,10.798,4.543,3.46,0.551,-0.137,-0.453
1733.0,10.674,5.067,3.078,0.691,-0.092,-0.313
1737.0,10.674,5.067,3.078,0.691,-0.092,-0.313
1741.0,10.674,5.067,3.078,0.691,-0.092,-0.313
1745.0,10.615,5.41,2.911,0.736,-0.049,-0.198
1749.0,10.615,5.41,2.911,0.736,-0.049,-0.198
1753.0,10.545,5.487,3.033,0.69,-0.008,-0.12
1757.0,10.545,5.487,3.033,0.69,-0.008,-0.12
1761.0,10.545,5.487,3.033,0.69,-0.008,-0.12
1765.0,10.143,5.561,3.239,0.572,0.033,-0.11
1768.0,10.143,5.561,3.239,0.572,0.033,-0.11
1772.0,9.396,5.539,3.519,0.406,0.071,-0.147
1776.0,9.396,5.539,3.519,0.406,0.071,-0.147
1780.0,9.396,5.539,3.519,0.406,0.071,-0.147
1783.0,8.528,5.514,3.844,0.227,0.098,-0.192
1787.0,8.528,5.514,3.844,0.227,0.098,-0.192
1791.0,8.528,5.514,3.844,0.227,0.098,-0.192
1795.0,7.69,5.358,4.124,0.075,0.107,-0.217
1798.0,7.69,5.358,4.124,0.075,0.107,-0.217
1802.0,7.104,5.025,4.184,-0.029,0.083,-0.224
1806.0,7.104,5.025,4.184,-0.029,0.083,-0.224
1810.0,7.104,5.025,4.184,-0.029,0.083,-0.224
1814.0,6.933,4.674,4.038,-0.088,0.036,-0.23
1817.0,6.933,4.674,4.038,-0.088,0.036,-0.23
1821.0,7.156,4.392,3.839,-0.088,0.036,-0.248
1825.0,7.156,4.392,3.839,-0.111,-0.012,-0.248
1829.0,7.156,4.392,3.839,-0.111,-0.012,-0.248
1833.0,7.537,4.293,3.543,-0.113,-0.044,-0.259
1837.0,7.537,4.293,3.543,-0.113,-0.044,-0.259
1841.0,7.962,4.298,3.169,-0.113,-0.044,-0.259
1844.0,7.962,4.298,3.169,-0.104,-0.051,-0.24
1848.0,7.962,4.298,3.169,-0.104,-0.051,-0.24
1852.0,8.379,4.264,2.975,-0.101,-0.03,-0.194
1856.0,8.379,4.264,2.975,-0.101,-0.03,-0.194
1860.0,8.379,4.264,2.97,-0.101,-0.03,-0.194
1864.0,8.485,4.251,2.97,-0.115,0.008,-0.144
1868.0,8.485,4.251,2.97,-0.115,0.008,-0.144
1872.0,8.289,4.295,3.036,-0.152,0.038,-0.092
1875.0,8.289,4.295,3.036,-0.152,0.038,-0.092
1879.0,8.289,4.295,3.036,-0.152,0.038,-0.092
1883.0,7.945,4.38,3.14,-0.211,0.058,-0.044
1887.0,7.945,4.38,3.14,-0.211,0.058,-0.044
1891.0,7.638,4.474,3.179,-0.291,0.06,0.009
1894.0,7.638,4.474,3.179,-0.291,0.06,0.009
1898.0,7.638,4.474,3.179,-0.291,0.06,0.009
1902.0,7.671,4.478,3.108,-0.382,0.044,0.066
1906.0,7.671,4.478,3.108,-0.382,0.044,0.066
1909.0,7.671,4.478,3.014,-0.382,0.044,0.066
1913.0,8.016,4.357,3.014,-0.47,0.023,0.105
1917.0,8.016,4.357,3.014,-0.47,0.023,0.105
1921.0,8.359,4.196,2.836,-0.545,0.016,0.104
1924.0,8.359,4.196,2.836,-0.545,0.016,0.104
1928.0,8.359,4.196,2.836,-0.545,0.016,0.104
1932.0,8.615,4.053,2.819,-0.603,0.029,0.074
1936.0,8.615,4.053,2.819,-0.603,0.029,0.074
1939.0,8.615,3.941,3.014,-0.603,0.029,0.074
1943.0,8.742,3.941,3.014,-0.639,0.055,0.029
1947.0,8.742,3.941,3.014,-0.639,0.055,0.029
1950.0,8.617,3.822,3.293,-0.645,0.082,-0.02
1954.0,8.617,3.822,3.293,-0.645,0.082,-0.02
1958.0,8.617,3.822,3.293,-0.645,0.082,-0.02
1962.0,8.286,3.678,3.553,-0.62,0.1,-0.062
1966.0,8.286,3.678,3.553,-0.62,0.1,-0.062
1970.0,7.956,3.528,3.83,-0.57,0.109,-0.096
1973.0,7.956,3.528,3.83,-0.57,0.109,-0.096
1977.0,7.956,3.528,3.83,-0.57,0.109,-0.096
1981.0,7.762,3.415,3.996,-0.494,0.106,-0.116
1985.0,7.762,3.415,3.996,-0.494,0.106,-0.116
1989.0,7.697,3.314,4.007,-0.494,0.106,-0.116
1993.0,7.697,3.314,4.007,-0.397,0.1,-0.109
1996.0,7.697,3.314,4.007,-0.397,0.1,-0.109
2000.0,7.765,3.233,3.957,-0.28,0.099,-0.077
2004.0,7.765,3.233,3.957,-0.28,0.099,-0.077
2008.0,7.765,3.233,3.957,-0.28,0.099,-0.077
2012.0,7.876,3.2,3.939,-0.148,0.1,-0.034
2015.0,7.876,3.2,3.939,-0.148,0.1,-0.034
2019.0,8.069,3.241,3.849,-0.01,0.094,0.012
2023.0,8.069,3.241,3.849,-0.01,0.094,0.012
2027.0,8.069,3.241,3.849,-0.01,0.094,0.012
2030.0,8.245,3.374,3.703,0.123,0.081,0.05
2034.0,8.245,3.374,3.703,0.123,0.081,0.05
2038.0,8.245,3.374,3.583,0.123,0.081,0.05
2041.0,8.31,3.482,3.583,0.234,0.066,0.076
2045.0,8.31,3.482,3.583,0.234,0.066,0.076
2049.0,8.271,3.559,3.494,0.317,0.046,0.091
2052.0,8.271,3.559,3.494,0.317,0.046,0.091
2056.0,8.271,3.559,3.494,0.317,0.046,0.091
2060.0,8.235,3.627,3.446,0.371,0.02,0.093
2063.0,8.235,3.627,3.446,0.371,0.02,0.093
2067.0,8.235,3.627,3.446,0.371,0.02,0.093
2071.0,8.143,3.702,3.41,0.395,-0.002,0.077
2074.0,8.143,3.702,3.41,0.395,-0.002,0.077
2078.0,8.059,3.842,3.299,0.395,-0.017,0.053
2082.0,8.059,3.842,3.299,0.39,-0.017,0.053
2085.0,8.059,3.842,3.299,0.39,-0.017,0.053
2089.0,8.191,3.97,3.196,0.358,-0.022,0.036
2093.0,8.191,3.97,3.196,0.358,-0.022,0.036
2097.0,8.191,3.97,3.196,0.358,-0.022,0.036
2100.0,8.502,4.1,3.153,0.306,-0.014,0.018
2104.0,8.502,4.1,3.153,0.306,-0.014,0.018
2108.0,8.871,4.252,3.072,0.242,0.005,0.002
2112.0,8.871,4.252,3.072,0.242,0.005,0.002
2115.0,8.871,4.252,3.072,0.242,0.005,0.002
2119.0,9.124,4.395,3.084,0.172,0.044,-0.005
2123.0,9.124,4.395,3.084,0.172,0.044,-0.005
2126.0,9.124,4.395,3.084,0.172,0.044,-0.005
2130.0,9.133,4.516,3.22,0.102,0.099,0.01
2134.0,9.133,4.516,3.22,0.102,0.099,0.01
2137.0,8.961,4.512,3.275,0.102,0.148,0.058
2141.0,8.961,4.512,3.275,0.036,0.148,0.058
2145.0,8.961,4.512,3.275,0.036,0.148,0.058
2148.0,8.816,4.441,3.211,-0.025,0.183,0.118
2152.0,8.816,4.441,3.211,-0.025,0.183,0.118
2156.0,8.816,4.441,3.211,-0.025,0.183,0.118
2159.0,8.742,4.341,3.063,-0.081,0.212,0.159
2163.0,8.742,4.341,3.063,-0.081,0.212,0.159
2167.0,8.671,4.155,2.906,-0.081,0.239,0.173
2171.0,8.671,4.155,2.906,-0.138,0.239,0.173
2174.0,8.671,4.155,2.906,-0.138,0.239,0.173
2178.0,8.556,3.96,2.827,-0.191,0.262,0.164
2182.0,8.556,3.96,2.827,-0.191,0.262,0.164
2186.0,8.556,3.96,2.827,-0.191,0.262,0.164
2189.0,8.357,3.76,2.963,-0.23,0.275,0.132
2193.0,8.357,3.76,2.963,-0.23,0.275,0.132
2197.0,8.061,3.597,3.248,-0.246,0.264,0.085
2200.0,8.061,3.597,3.248,-0.246,0.264,0.085
2204.0,8.061,3.597,3.248,-0.246,0.264,0.085
2208.0,7.707,3.461,3.577,-0.237,0.223,0.031
2212.0,7.707,3.461,3.577,-0.237,0.223,0.031
2215.0,7.707,3.461,3.814,-0.237,0.223,0.031
2219.0,7.333,3.402,3.814,-0.21,0.157,-0.014
2223.0,7.333,3.402,3.814,-0.21,0.157,-0.014
2227.0,7.122,3.326,3.975,-0.174,0.073,-0.043
2231.0,7.122,3.326,3.975,-0.174,0.073,-0.043
2234.0,7.122,3.326,3.975,-0.174,0.073,-0.043
2238.0,7.062,3.315,3.965,-0.133,-0.003,-0.069
2242.0,7.062,3.315,3.965,-0.133,-0.003,-0.069
2246.0,7.079,3.324,3.963,-0.095,-0.059,-0.076
2250.0,7.079,3.324,3.963,-0.095,-0.059,-0.076
2254.0,7.079,3.324,3.963,-0.095,-0.059,-0.076
2258.0,7.201,3.322,3.893,-0.065,-0.108,-0.064
2262.0,7.201,3.322,3.893,-0.065,-0.108,-0.064
2266.0,7.505,3.268,3.76,-0.065,-0.156,-0.056
2269.0,7.505,3.268,3.76,-0.046,-0.156,-0.056
2273.0,7.505,3.268,3.76,-0.046,-0.156,-0.056
2277.0,7.784,3.275,3.607,-0.032,-0.194,-0.075
2281.0,7.784,3.275,3.607,-0.032,-0.194,-0.075
2285.0,7.88,3.293,3.464,-0.032,-0.194,-0.114
2289.0,7.88,3.293,3.464,-0.024,-0.216,-0.114
2293.0,7.88,3.293,3.464,-0.024,-0.216,-0.114
2297.0,8.045,3.343,3.276,-0.023,-0.229,-0.153
2301.0,8.045,3.343,3.276,-0.023,-0.229,-0.153
2305.0,8.33,3.465,3.123,-0.023,-0.229,-0.153
2309.0,8.33,3.465,3.123,-0.017,-0.225,-0.194
2312.0,8.33,3.465,3.123,-0.017,-0.225,-0.194
2316.0,8.574,3.595,3.022,-0.007,-0.206,-0.229
2320.0,8.574,3.595,3.022,-0.007,-0.206,-0.229
2324.0,8.574,3.698,2.949,-0.007,-0.206,-0.229
2328.0,8.586,3.698,2.949,0.009,-0.17,-0.253
2332.0,8.586,3.698,2.949,0.009,-0.17,-0.253
2336.0,8.583,3.728,2.952,0.025,-0.138,-0.255
2340.0,8.583,3.728,2.952,0.025,-0.138,-0.255
2343.0,8.583,3.728,2.952,0.025,-0.138,-0.255
2347.0,8.701,3.787,3.032,0.052,-0.114,-0.26
2351.0,8.701,3.787,3.032,0.052,-0.114,-0.26
2355.0,8.722,3.92,3.154,0.088,-0.092,-0.282
2359.0,8.722,3.92,3.154,0.088,-0.092,-0.282
2362.0,8.722,3.92,3.154,0.088,-0.092,-0.282
2366.0,8.484,4.077,3.237,0.129,-0.063,-0.291
2370.0,8.484,4.077,3.237,0.129,-0.063,-0.291
2374.0,8.168,4.156,3.26,0.129,-0.063,-0.262
2378.0,8.168,4.156,3.26,0.178,-0.033,-0.262
2382.0,8.168,4.156,3.26,0.178,-0.033,-0.262
2385.0,8.099,4.178,3.236,0.241,-0.015,-0.22
2389.0,8.099,4.178,3.236,0.241,-0.015,-0.22
2393.0,8.099,4.178,3.196,0.241,-0.015,-0.22
2397.0,8.06,4.259,3.196,0.315,-0.008,-0.196
2401.0,8.06,4.259,3.196,0.315,-0.008,-0.196
2404.0,7.987,4.352,3.078,0.387,-0.017,-0.171
2408.0,7.987,4.352,3.078,0.387,-0.017,-0.171
2412.0,7.987,4.352,3.078,0.387,-0.017,-0.171
2416.0,7.838,4.399,2.923,0.448,-0.03,-0.137
2420.0,7.838,4.399,2.923,0.448,-0.03,-0.137
2424.0,7.764,4.409,2.742,0.448,-0.043,-0.1
2427.0,7.764,4.409,2.742,0.495,-0.043,-0.1
2431.0,7.764,4.409,2.742,0.495,-0.043,-0.1
2435.0,7.731,4.414,2.573,0.525,-0.054,-0.069
2439.0,7.731,4.414,2.573,0.525,-0.054,-0.069
2443.0,7.731,4.481,2.456,0.525,-0.054,-0.069
2446.0,7.749,4.481,2.456,0.532,-0.06,-0.043
2450.0,7.749,4.481,2.456,0.532,-0.06,-0.043
2454.0,7.796,4.622,2.355,0.517,-0.062,-0.027
2458.0,7.796,4.622,2.355,0.517,-0.062,-0.027
2462.0,7.796,4.622,2.355,0.517,-0.062,-0.027
2466.0,8.061,4.755,2.244,0.476,-0.065,-0.016
2469.0,8.061,4.755,2.244,0.476,-0.065,-0.016
2473.0,8.383,4.848,2.182,0.411,-0.064,-0.02
2477.0,8.383,4.848,2.182,0.411,-0.064,-0.02
2481.0,8.383,4.848,2.182,0.411,-0.064,-0.02
2485.0,8.539,4.921,2.085,0.323,-0.061,-0.044
2489.0,8.539,4.921,2.085,0.323,-0.061,-0.044
2492.0,8.558,4.978,1.953,0.323,-0.061,-0.079
2496.0,8.558,4.978,1.953,0.215,-0.048,-0.079
2500.0,8.558,4.978,1.953,0.215,-0.048,-0.079
2504.0,8.573,5.066,1.9,0.099,-0.015,-0.117
2508.0,8.573,5.066,1.9,0.099,-0.015,-0.117
2511.0,8.573,5.066,1.9,0.099,-0.015,-0.117
2515.0,8.582,5.118,1.958,-0.014,0.035,-0.147
2519.0,8.582,5.118,1.958,-0.014,0.035,-0.147
2523.0,8.558,5.043,2.112,-0.114,0.089,-0.16
2527.0,8.558,5.043,2.112,-0.114,0.089,-0.16
2531.0,8.558,5.043,2.112,-0.114,0.089,-0.16
2534.0,8.331,4.924,2.275,-0.195,0.142,-0.175
2538.0,8.331,4.924,2.275,-0.195,0.142,-0.175
2542.0,7.922,4.853,2.495,-0.195,0.196,-0.187
2546.0,7.922,4.853,2.495,-0.248,0.196,-0.187
2550.0,7.922,4.853,2.495,-0.248,0.196,-0.187
2553.0,7.496,4.779,2.704,-0.268,0.233,-0.18
2557.0,7.496,4.779,2.704,-0.268,0.233,-0.18
2561.0,7.496,4.622,2.792,-0.268,0.233,-0.18
2565.0,7.259,4.622,2.792,-0.254,0.24,-0.155
2569.0,7.259,4.622,2.792,-0.254,0.24,-0.155
2573.0,7.194,4.478,2.83,-0.209,0.226,-0.135
2576.0,7.194,4.478,2.83,-0.209,0.226,-0.135
2580.0,7.194,4.478,2.83,-0.209,0.226,-0.135
2584.0,7.06,4.348,2.875,-0.14,0.209,-0.125
2588.0,7.06,4.348,2.875,-0.14,0.209,-0.125
2592.0,6.873,4.308,2.904,-0.059,0.191,-0.107
2595.0,6.873,4.308,2.904,-0.059,0.191,-0.107
2599.0,6.873,4.308,2.904,-0.059,0.191,-0.107
2603.0,6.725,4.306,2.904,0.029,0.17,-0.081
2607.0,6.725,4.306,2.904,0.029,0.17,-0.081
2611.0,6.706,4.403,2.861,0.029,0.17,-0.081
2614.0,6.706,4.403,2.861,0.116,0.143,-0.055
2618.0,6.706,4.403,2.861,0.116,0.143,-0.055
2622.0,6.781,4.496,2.847,0.191,0.11,-0.031
2625.0,6.781,4.496,2.847,0.191,0.11,-0.031
2629.0,6.781,4.496,2.847,0.191,0.11,-0.031
2633.0,6.97,4.574,2.77,0.242,0.07,-0.01
2637.0,6.97,4.574,2.77,0.242,0.07,-0.01
2640.0,7.284,4.7,2.651,0.242,0.07,-0.009
2644.0,7.284,4.7,2.651,0.27,0.034,-0.009
2648.0,7.284,4.7,2.651,0.27,0.034,-0.009
2652.0,7.66,4.872,2.567,0.275,0.01,-0.029
2655.0,7.66,4.872,2.567,0.275,0.01,-0.029
2659.0,7.66,4.872,2.567,0.275,0.01,-0.029
2663.0,7.992,5.069,2.532,0.254,0.002,-0.059
2667.0,7.992,5.069,2.532,0.254,0.002,-0.059
2670.0,8.247,5.234,2.508,0.254,0.008,-0.092
2674.0,8.247,5.234,2.508,0.21,0.008,-0.092
2678.0,8.247,5.234,2.508,0.21,0.008,-0.092
2681.0,8.419,5.394,2.505,0.152,0.031,-0.127
2685.0,8.419,5.394,2.505,0.152,0.031,-0.127
2689.0,8.419,5.394,2.505,0.152,0.031,-0.127
2693.0,8.448,5.495,2.556,0.085,0.073,-0.156
2696.0,8.448,5.495,2.556,0.085,0.073,-0.156
2700.0,8.346,5.541,2.721,0.017,0.122,-0.175
2704.0,8.346,5.541,2.721,0.017,0.122,-0.175
2708.0,8.346,5.541,2.721,0.017,0.122,-0.175
2711.0,8.191,5.508,2.865,-0.041,0.165,-0.183
2715.0,8.191,5.508,2.865,-0.041,0.165,-0.183
2719.0,8.191,5.454,2.967,-0.041,0.165,-0.183
2723.0,8.089,5.454,2.967,-0.078,0.201,-0.186
2727.0,8.089,5.454,2.967,-0.078,0.201,-0.186
2730.0,8.016,5.381,3.08,-0.091,0.235,-0.184
2734.0,8.016,5.381,3.08,-0.091,0.235,-0.184
2738.0,8.016,5.381,3.08,-0.091,0.235,-0.184
2742.0,7.963,5.273,3.187,-0.078,0.258,-0.177
2746.0,7.963,5.273,3.187,-0.078,0.258,-0.177
2750.0,7.842,5.166,3.243,-0.039,0.272,-0.164
2753.0,7.842,5.166,3.243,-0.039,0.272,-0.164
2757.0,7.842,5.166,3.243,-0.039,0.272,-0.164
2761.0,7.699,5.108,3.321,0.021,0.277,-0.149
2765.0,7.699,5.108,3.321,0.021,0.277,-0.149
2768.0,7.699,5.075,3.413,0.021,0.277,-0.149
2772.0,7.44,5.075,3.413,0.092,0.277,-0.131
2776.0,7.44,5.075,3.413,0.092,0.277,-0.131
2780.0,7.167,5.084,3.459,0.166,0.264,-0.104
2783.0,7.167,5.084,3.459,0.166,0.264,-0.104
2787.0,7.167,5.084,3.459,0.166,0.264,-0.104
2791.0,6.996,5.108,3.456,0.235,0.243,-0.07
2795.0,6.996,5.108,3.456,0.235,0.243,-0.07
2798.0,6.96,5.079,3.457,0.235,0.243,-0.07
2802.0,6.96,5.079,3.457,0.29,0.22,-0.035
2806.0,6.96,5.079,3.457,0.29,0.22,-0.035
2810.0,7.04,5.073,3.416,0.33,0.193,-0.01
2813.0,7.04,5.073,3.416,0.33,0.193,-0.01
2817.0,7.04,5.073,3.416,0.33,0.193,-0.01
2821.0,7.155,5.114,3.346,0.356,0.172,-0.004
2824.0,7.155,5.114,3.346,0.356,0.172,-0.004
2828.0,7.3,5.196,3.328,0.356,0.16,-0.016
2832.0,7.3,5.196,3.328,0.368,0.16,-0.016
2836.0,7.3,5.196,3.328,0.368,0.16,-0.016
2839.0,7.37,5.234,3.398,0.37,0.159,-0.041
2843.0,7.37,5.234,3.398,0.37,0.159,-0.041
2847.0,7.37,5.234,3.398,0.37,0.159,-0.041
2851.0,7.334,5.264,3.421,0.365,0.16,-0.073
2854.0,7.334,5.264,3.421,0.365,0.16,-0.073
2858.0,7.353,5.307,3.351,0.359,0.157,-0.1
2862.0,7.353,5.307,3.351,0.359,0.157,-0.1
2865.0,7.353,5.307,3.351,0.359,0.157,-0.1
2869.0,7.396,5.281,3.324,0.353,0.15,-0.122
2873.0,7.396,5.281,3.324,0.353,0.15,-0.122
2877.0,7.396,5.281,3.312,0.353,0.15,-0.122
2880.0,7.387,5.241,3.312,0.342,0.131,-0.144
2884.0,7.387,5.241,3.312,0.342,0.131,-0.144
2888.0,7.422,5.21,3.244,0.331,0.094,-0.15
2892.0,7.422,5.21,3.244,0.331,0.094,-0.15
2895.0,7.422,5.21,3.244,0.331,0.094,-0.15
2899.0,7.623,5.13,3.112,0.321,0.053,-0.145
2903.0,7.623,5.13,3.112,0.321,0.053,-0.145
2907.0,7.623,5.142,3.016,0.321,0.053,-0.145
2910.0,7.86,5.142,3.016,0.311,0.029,-0.15
2914.0,7.86,5.142,3.016,0.311,0.029,-0.15
2918.0,7.994,5.286,2.92,0.297,0.027,-0.15
2921.0,7.994,5.286,2.92,0.297,0.027,-0.15
2925.0,7.994,5.286,2.92,0.297,0.027,-0.15
2929.0,8.133,5.431,2.919,0.277,0.037,-0.129
2933.0,8.133,5.431,2.919,0.277,0.037,-0.129
2936.0,8.228,5.566,2.966,0.277,0.037,-0.129
2940.0,8.228,5.566,2.966,0.253,0.054,-0.103
2944.0,8.228,5.566,2.966,0.253,0.054,-0.103
2948.0,8.146,5.657,2.999,0.222,0.071,-0.079
2951.0,8.146,5.657,2.999,0.222,0.071,-0.079
2955.0,8.146,5.657,2.999,0.222,0.071,-0.079
2959.0,8.043,5.67,3.005,0.184,0.084,-0.053
2963.0,8.043,5.67,3.005,0.184,0.084,-0.053
2966.0,8.006,5.605,3.035,0.184,0.084,-0.037
2970.0,8.006,5.605,3.035,0.143,0.094,-0.037
2974.0,8.006,5.605,3.035,0.143,0.094,-0.037
2977.0,8.011,5.492,3.083,0.111,0.095,-0.037
2981.0,8.011,5.492,3.083,0.111,0.095,-0.037
2985.0,8.011,5.492,3.083,0.111,0.095,-0.037
2989.0,7.884,5.391,3.095,0.091,0.092,-0.05
2992.0,7.884,5.391,3.095,0.091,0.092,-0.05
2996.0,7.691,5.305,3.09,0.082,0.092,-0.061
3000.0,7.691,5.305,3.09,0.082,0.092,-0.061
