deltaTime,Acc_X,Acc_Y,Acc_Z,Gyro_X,Gyro_Y,Gyro_Z
0.0,-9.154,-1.507,3.942,-0.171,0.157,-0.151
3.0,-9.206,-1.469,4.041,-0.082,0.163,-0.13
6.0,-9.206,-1.469,4.041,-0.082,0.163,-0.13
9.0,-9.206,-1.469,4.041,-0.082,0.163,-0.13
12.0,-9.369,-1.633,4.257,0.003,0.16,-0.087
15.0,-9.369,-1.633,4.257,0.003,0.16,-0.087
18.0,-9.369,-1.633,4.257,0.003,0.16,-0.087
21.0,-9.277,-1.758,4.34,0.003,0.133,-0.054
24.0,-9.277,-1.758,4.34,0.096,0.133,-0.054
27.0,-9.277,-1.758,4.34,0.096,0.133,-0.054
30.0,-9.277,-1.758,4.34,0.096,0.133,-0.054
33.0,-8.992,-1.79,4.208,0.196,0.094,-0.032
37.0,-8.992,-1.79,4.208,0.196,0.094,-0.032
40.0,-8.992,-1.695,3.91,0.196,0.094,-0.032
44.0,-8.672,-1.695,3.91,0.288,0.062,-0.031
48.0,-8.672,-1.695,3.91,0.288,0.062,-0.031
51.0,-8.431,-1.648,3.668,0.371,0.051,-0.038
55.0,-8.431,-1.648,3.668,0.371,0.051,-0.038
59.0,-8.431,-1.648,3.668,0.371,0.051,-0.038
63.0,-8.436,-1.577,3.552,0.452,0.09,-0.027
66.0,-8.436,-1.577,3.552,0.452,0.09,-0.027
70.0,-8.588,-1.214,3.558,0.452,0.09,-0.027
74.0,-8.588,-1.214,3.558,0.516,0.142,-0.01
78.0,-8.588,-1.214,3.558,0.516,0.142,-0.01
81.0,-8.604,-1.254,3.635,0.539,0.174,0.014
85.0,-8.604,-1.254,3.635,0.539,0.174,0.014
89.0,-8.604,-1.254,3.635,0.539,0.174,0.014
92.0,-8.787,-1.343,3.772,0.561,0.196,0.059
96.0,-8.787,-1.343,3.772,0.561,0.196,0.059
100.0,-8.856,-1.308,3.83,0.561,0.196,0.059
103.0,-8.856,-1.308,3.83,0.579,0.19,0.087
107.0,-8.856,-1.308,3.83,0.579,0.19,0.087
111.0,-8.765,-1.201,3.726,0.552,0.17,0.087
114.0,-8.765,-1.201,3.726,0.552,0.17,0.087
118.0,-8.765,-1.201,3.726,0.552,0.17,0.087
122.0,-8.663,-1.03,3.543,0.47,0.151,0.063
126.0,-8.663,-1.03,3.543,0.47,0.151,0.063
129.0,-8.737,-0.896,3.441,0.47,0.151,0.034
133.0,-8.737,-0.896,3.441,0.339,0.153,0.034
137.0,-8.737,-0.896,3.441,0.339,0.153,0.034
141.0,-8.97,-0.997,3.474,0.194,0.159,0.006
144.0,-8.97,-0.997,3.474,0.194,0.159,0.006
148.0,-8.97,-0.997,3.474,0.194,0.159,0.006
152.0,-9.136,-1.062,3.546,0.088,0.157,-0.021
156.0,-9.136,-1.062,3.546,0.088,0.157,-0.021
159.0,-9.285,-1.114,3.612,0.007,0.148,-0.043
163.0,-9.285,-1.114,3.612,0.007,0.148,-0.043
167.0,-9.285,-1.114,3.612,0.007,0.148,-0.043
171.0,-9.166,-1.167,3.53,-0.04,0.127,-0.051
175.0,-9.166,-1.167,3.53,-0.04,0.127,-0.051
179.0,-9.256,-1.27,3.382,-0.04,0.127,-0.051
183.0,-9.256,-1.27,3.382,-0.06,0.116,-0.048
187.0,-9.256,-1.27,3.382,-0.06,0.116,-0.048
190.0,-9.322,-1.277,3.215,-0.063,0.121,-0.028
194.0,-9.322,-1.277,3.215,-0.063,0.121,-0.028
198.0,-9.623,-1.442,3.196,-0.063,0.121,-0.028
202.0,-9.623,-1.442,3.196,-0.064,0.142,0.01
206.0,-9.623,-1.442,3.196,-0.064,0.142,0.01
210.0,-9.687,-1.554,3.253,-0.043,0.156,0.064
214.0,-9.687,-1.554,3.253,-0.043,0.156,0.064
217.0,-9.687,-1.554,3.253,-0.043,0.156,0.064
221.0,-9.338,-1.445,3.294,-0.019,0.169,0.118
225.0,-9.338,-1.445,3.294,-0.019,0.169,0.118
229.0,-9.142,-1.192,3.229,-0.038,0.186,0.155
233.0,-9.142,-1.192,3.229,-0.038,0.186,0.155
237.0,-9.142,-1.192,3.229,-0.038,0.186,0.155
240.0,-9.297,-1.081,3.117,-0.112,0.203,0.187
244.0,-9.297,-1.081,3.117,-0.112,0.203,0.187
248.0,-9.083,-1.111,2.971,-0.112,0.203,0.227
252.0,-9.083,-1.111,2.971,-0.199,0.213,0.227
256.0,-9.083,-1.111,2.971,-0.199,0.213,0.227
259.0,-8.786,-1.267,2.778,-0.277,0.235,0.254
263.0,-8.786,-1.267,2.778,-0.277,0.235,0.254
267.0,-8.786,-1.267,2.728,-0.277,0.235,0.254
271.0,-8.703,-1.415,2.728,-0.341,0.274,0.258
275.0,-8.703,-1.415,2.728,-0.341,0.274,0.258
279.0,-8.514,-1.458,2.824,-0.382,0.31,0.247
282.0,-8.514,-1.458,2.824,-0.382,0.31,0.247
286.0,-8.514,-1.458,2.824,-0.382,0.31,0.247
290.0,-8.583,-1.324,3.025,-0.417,0.343,0.228
294.0,-8.583,-1.324,3.025,-0.417,0.343,0.228
298.0,-8.669,-1.032,3.187,-0.47,0.358,0.2
301.0,-8.669,-1.032,3.187,-0.47,0.358,0.2
305.0,-8.669,-1.032,3.187,-0.47,0.358,0.2
309.0,-8.898,-0.756,3.223,-0.56,0.353,0.169
313.0,-8.898,-0.756,3.223,-0.56,0.353,0.169
317.0,-9.098,-0.593,3.213,-0.56,0.353,0.169
321.0,-9.098,-0.593,3.213,-0.679,0.331,0.146
324.0,-9.098,-0.593,3.213,-0.679,0.331,0.146
328.0,-9.236,-0.589,3.251,-0.805,0.303,0.135
332.0,-9.236,-0.589,3.251,-0.805,0.303,0.135
336.0,-9.236,-0.589,3.251,-0.805,0.303,0.135
340.0,-9.26,-0.645,3.408,-0.918,0.272,0.133
343.0,-9.26,-0.645,3.408,-0.918,0.272,0.133
347.0,-9.343,-0.87,3.66,-0.999,0.232,0.138
351.0,-9.343,-0.87,3.66,-0.999,0.232,0.138
355.0,-9.343,-0.87,3.66,-0.999,0.232,0.138
359.0,-9.573,-0.97,4.031,-1.036,0.178,0.144
363.0,-9.573,-0.97,4.031,-1.036,0.178,0.144
366.0,-9.684,-0.797,4.449,-1.036,0.178,0.152
370.0,-9.684,-0.797,4.449,-1.066,0.119,0.152
374.0,-9.684,-0.797,4.449,-1.066,0.119,0.152
378.0,-9.648,-0.304,4.774,-1.135,0.056,0.145
382.0,-9.648,-0.304,4.774,-1.135,0.056,0.145
385.0,-9.648,-0.304,4.942,-1.135,0.056,0.145
389.0,-9.629,0.12,4.942,-1.266,-0.0,0.104
393.0,-9.629,0.12,4.942,-1.266,-0.0,0.104
397.0,-9.302,0.17,5.031,-1.395,-0.054,0.063
401.0,-9.302,0.17,5.031,-1.395,-0.054,0.063
405.0,-9.302,0.17,5.031,-1.395,-0.054,0.063
408.0,-9.27,-1.081,6.193,-1.446,-0.014,0.087
412.0,-9.27,-1.081,6.193,-1.446,-0.014,0.087
416.0,-9.555,-2.251,6.587,-1.215,0.026,0.203
420.0,-9.555,-2.251,6.587,-1.215,0.026,0.203
424.0,-9.555,-2.251,6.587,-1.215,0.026,0.203
428.0,-10.313,-2.5,6.091,-0.851,-0.021,0.316
432.0,-10.313,-2.5,6.091,-0.851,-0.021,0.316
436.0,-10.504,-2.468,5.457,-0.851,-0.181,0.327
440.0,-10.504,-2.468,5.457,-0.498,-0.181,0.327
444.0,-10.504,-2.468,5.457,-0.498,-0.181,0.327
448.0,-10.326,-2.397,4.751,-0.208,-0.333,0.272
452.0,-10.326,-2.397,4.751,-0.208,-0.333,0.272
456.0,-9.949,-2.221,4.107,0.012,-0.426,0.222
459.0,-9.949,-2.221,4.107,0.012,-0.426,0.222
463.0,-9.949,-2.221,4.107,0.012,-0.426,0.222
467.0,-9.554,-2.188,3.729,0.175,-0.439,0.208
471.0,-9.554,-2.188,3.729,0.175,-0.439,0.208
475.0,-9.263,-2.359,3.623,0.175,-0.439,0.208
479.0,-9.263,-2.359,3.623,0.309,-0.384,0.216
482.0,-9.263,-2.359,3.623,0.309,-0.384,0.216
486.0,-9.178,-2.576,3.648,0.439,-0.298,0.213
490.0,-9.178,-2.576,3.648,0.439,-0.298,0.213
494.0,-9.178,-2.576,3.648,0.439,-0.298,0.213
498.0,-9.4,-2.709,3.817,0.575,-0.212,0.174
501.0,-9.4,-2.709,3.817,0.575,-0.212,0.174
505.0,-9.79,-2.791,4.109,0.712,-0.16,0.1
509.0,-9.79,-2.791,4.109,0.712,-0.16,0.1
513.0,-9.79,-2.791,4.109,0.712,-0.16,0.1
517.0,-10.081,-2.767,4.351,0.846,-0.159,0.006
521.0,-10.081,-2.767,4.351,0.846,-0.159,0.006
525.0,-10.113,-2.748,4.415,0.846,-0.191,-0.091
529.0,-10.113,-2.748,4.415,0.973,-0.191,-0.091
533.0,-10.113,-2.748,4.415,0.973,-0.191,-0.091
537.0,-9.872,-2.726,4.438,1.093,-0.217,-0.191
540.0,-9.872,-2.726,4.438,1.093,-0.217,-0.191
544.0,-9.498,-2.641,4.456,1.203,-0.215,-0.285
548.0,-9.498,-2.641,4.456,1.203,-0.215,-0.285
552.0,-9.498,-2.641,4.456,1.203,-0.215,-0.285
556.0,-9.135,-2.43,4.462,1.301,-0.184,-0.364
560.0,-9.135,-2.43,4.462,1.301,-0.184,-0.364
564.0,-8.838,-2.1,4.613,1.301,-0.131,-0.418
568.0,-8.838,-2.1,4.613,1.393,-0.131,-0.418
572.0,-8.838,-2.1,4.613,1.393,-0.131,-0.418
576.0,-8.768,-1.984,4.932,1.484,-0.084,-0.437
579.0,-8.768,-1.984,4.932,1.484,-0.084,-0.437
583.0,-8.792,-2.057,5.176,1.484,-0.084,-0.437
587.0,-8.792,-2.057,5.176,1.576,-0.064,-0.444
591.0,-8.792,-2.057,5.176,1.576,-0.064,-0.444
595.0,-8.8,-2.169,5.538,1.682,-0.068,-0.468
599.0,-8.8,-2.169,5.538,1.682,-0.068,-0.468
603.0,-8.982,-2.244,6.27,1.682,-0.068,-0.468
607.0,-8.982,-2.244,6.27,1.798,-0.112,-0.505
611.0,-8.982,-2.244,6.27,1.798,-0.112,-0.505
615.0,-9.211,-2.294,6.823,1.919,-0.217,-0.545
619.0,-9.211,-2.294,6.823,1.919,-0.217,-0.545
622.0,-9.211,-2.294,7.179,1.919,-0.217,-0.545
626.0,-9.461,-2.426,7.179,2.032,-0.346,-0.584
630.0,-9.461,-2.426,7.179,2.032,-0.346,-0.584
634.0,-9.72,-2.689,7.526,2.129,-0.479,-0.624
638.0,-9.72,-2.689,7.526,2.129,-0.479,-0.624
642.0,-9.72,-2.689,7.526,2.129,-0.479,-0.624
646.0,-9.87,-2.774,7.778,2.217,-0.616,-0.668
650.0,-9.87,-2.774,7.778,2.217,-0.616,-0.668
654.0,-9.981,-2.599,8.006,2.303,-0.754,-0.715
658.0,-9.981,-2.599,8.006,2.303,-0.754,-0.715
662.0,-9.981,-2.599,8.006,2.303,-0.754,-0.715
665.0,-10.161,-2.381,8.185,2.387,-0.896,-0.755
669.0,-10.161,-2.381,8.185,2.387,-0.896,-0.755
673.0,-10.348,-1.917,8.286,2.464,-1.046,-0.784
677.0,-10.348,-1.917,8.286,2.464,-1.046,-0.784
681.0,-10.348,-1.917,8.286,2.464,-1.046,-0.784
685.0,-10.617,-1.499,8.367,2.531,-1.204,-0.785
689.0,-10.617,-1.499,8.367,2.531,-1.204,-0.785
693.0,-10.911,-1.366,8.541,2.603,-1.369,-0.757
697.0,-10.911,-1.366,8.541,2.603,-1.369,-0.757
701.0,-10.911,-1.366,8.805,2.603,-1.369,-0.757
705.0,-11.125,-1.342,8.805,2.679,-1.534,-0.721
709.0,-11.125,-1.342,8.805,2.679,-1.534,-0.721
713.0,-11.337,-1.268,9.245,2.741,-1.709,-0.681
717.0,-11.337,-1.268,9.245,2.741,-1.709,-0.681
721.0,-11.411,-1.052,9.639,2.741,-1.709,-0.681
725.0,-11.411,-1.052,9.639,2.786,-1.902,-0.646
729.0,-11.411,-1.052,9.639,2.786,-1.902,-0.646
733.0,-11.335,-0.619,10.061,2.819,-2.098,-0.623
737.0,-11.335,-0.619,10.061,2.819,-2.098,-0.623
741.0,-11.389,-0.258,10.366,2.819,-2.098,-0.593
746.0,-11.389,-0.258,10.366,2.835,-2.301,-0.593
750.0,-11.389,-0.258,10.366,2.835,-2.301,-0.593
754.0,-11.399,-0.058,10.536,2.84,-2.508,-0.543
758.0,-11.399,-0.058,10.536,2.84,-2.508,-0.543
762.0,-11.213,0.121,10.602,2.851,-2.694,-0.477
766.0,-11.213,0.121,10.602,2.851,-2.694,-0.477
770.0,-11.213,0.121,10.602,2.851,-2.694,-0.477
774.0,-10.846,0.293,10.609,2.871,-2.855,-0.406
778.0,-10.846,0.293,10.609,2.871,-2.855,-0.406
782.0,-10.467,0.511,10.546,2.891,-2.993,-0.343
786.0,-10.467,0.511,10.546,2.891,-2.993,-0.343
790.0,-10.467,0.511,10.546,2.891,-2.993,-0.343
794.0,-10.08,0.741,10.483,2.886,-3.085,-0.288
798.0,-10.08,0.741,10.483,2.886,-3.085,-0.288
802.0,-9.899,0.666,10.63,2.836,-3.14,-0.259
806.0,-9.899,0.666,10.63,2.836,-3.14,-0.259
810.0,-9.899,0.666,10.63,2.836,-3.14,-0.259
814.0,-9.756,0.676,11.085,2.769,-3.234,-0.252
817.0,-9.756,0.676,11.085,2.769,-3.234,-0.252
821.0,-9.937,0.766,11.666,2.675,-3.319,-0.262
825.0,-9.937,0.766,11.666,2.675,-3.319,-0.262
829.0,-9.937,0.766,11.666,2.675,-3.319,-0.262
833.0,-10.265,0.919,12.29,2.587,-3.411,-0.262
837.0,-10.265,0.919,12.29,2.587,-3.411,-0.262
841.0,-10.481,0.976,12.721,2.529,-3.531,-0.24
845.0,-10.481,0.976,12.721,2.529,-3.531,-0.24
849.0,-10.481,0.976,12.721,2.529,-3.531,-0.24
853.0,-10.371,1.096,12.797,2.506,-3.656,-0.216
857.0,-10.371,1.096,12.797,2.506,-3.656,-0.216
861.0,-10.177,1.159,12.9,2.512,-3.774,-0.195
865.0,-10.177,1.159,12.9,2.512,-3.774,-0.195
869.0,-10.177,1.159,12.9,2.512,-3.774,-0.195
873.0,-9.881,1.201,12.77,2.545,-3.897,-0.166
877.0,-9.881,1.201,12.77,2.545,-3.897,-0.166
881.0,-9.337,1.518,12.328,2.594,-3.985,-0.115
885.0,-9.337,1.518,12.328,2.594,-3.985,-0.115
889.0,-9.337,1.518,12.328,2.594,-3.985,-0.115
893.0,-8.777,1.83,12.223,2.666,-4.026,-0.027
896.0,-8.777,1.83,12.223,2.666,-4.026,-0.027
900.0,-8.475,1.764,12.453,2.75,-4.056,0.084
904.0,-8.475,1.764,12.453,2.75,-4.056,0.084
908.0,-8.475,1.764,12.453,2.75,-4.056,0.084
912.0,-8.355,1.74,12.564,2.836,-4.103,0.188
916.0,-8.355,1.74,12.564,2.836,-4.103,0.188
919.0,-8.002,1.881,12.477,2.924,-4.151,0.283
923.0,-8.002,1.881,12.477,2.924,-4.151,0.283
927.0,-8.002,1.881,12.477,2.924,-4.151,0.283
931.0,-7.501,1.875,12.388,3.028,-4.183,0.374
935.0,-7.501,1.875,12.388,3.028,-4.183,0.374
939.0,-7.158,1.695,12.363,3.028,-4.183,0.374
942.0,-7.158,1.695,12.363,3.14,-4.196,0.458
946.0,-7.158,1.695,12.363,3.14,-4.196,0.458
950.0,-6.881,1.826,12.105,3.252,-4.186,0.533
954.0,-6.881,1.826,12.105,3.252,-4.186,0.533
958.0,-6.881,1.826,12.105,3.252,-4.186,0.533
961.0,-6.649,2.347,11.913,3.368,-4.169,0.615
965.0,-6.649,2.347,11.913,3.368,-4.169,0.615
969.0,-6.204,2.684,11.315,3.462,-4.167,0.734
973.0,-6.204,2.684,11.315,3.462,-4.167,0.734
977.0,-6.204,2.684,11.315,3.462,-4.167,0.734
981.0,-5.442,2.834,10.649,3.508,-4.147,0.875
984.0,-5.442,2.834,10.649,3.508,-4.147,0.875
988.0,-4.831,2.908,10.133,3.508,-4.147,0.998
992.0,-4.831,2.908,10.133,3.52,-4.074,0.998
996.0,-4.831,2.908,10.133,3.52,-4.074,0.998
1000.0,-4.663,2.811,9.632,3.528,-4.003,1.108
1003.0,-4.663,2.811,9.632,3.528,-4.003,1.108
1007.0,-4.663,2.811,9.13,3.528,-4.003,1.108
1011.0,-4.199,2.669,9.13,3.54,-3.956,1.215
1015.0,-4.199,2.669,9.13,3.54,-3.956,1.215
1019.0,-3.991,2.386,8.743,3.539,-3.869,1.31
1023.0,-3.991,2.386,8.743,3.539,-3.869,1.31
1026.0,-3.991,2.386,8.743,3.539,-3.869,1.31
1030.0,-3.796,2.312,8.386,3.537,-3.777,1.4
1034.0,-3.796,2.312,8.386,3.537,-3.777,1.4
1038.0,-3.549,2.186,8.262,3.54,-3.686,1.493
1042.0,-3.549,2.186,8.262,3.54,-3.686,1.493
1045.0,-3.549,2.186,8.262,3.54,-3.686,1.493
1049.0,-3.318,1.759,8.134,3.557,-3.618,1.572
1053.0,-3.318,1.759,8.134,3.557,-3.618,1.572
1057.0,-2.994,1.418,7.789,3.557,-3.618,1.572
1061.0,-2.994,1.418,7.789,3.606,-3.569,1.613
1065.0,-2.994,1.418,7.789,3.606,-3.569,1.613
1068.0,-2.843,1.585,7.418,3.699,-3.498,1.609
1072.0,-2.843,1.585,7.418,3.699,-3.498,1.609
1076.0,-2.843,1.585,7.418,3.699,-3.498,1.609
1080.0,-2.72,2.152,7.07,3.843,-3.42,1.595
1084.0,-2.72,2.152,7.07,3.843,-3.42,1.595
1087.0,-2.494,2.6,6.513,3.998,-3.353,1.616
1091.0,-2.494,2.6,6.513,3.998,-3.353,1.616
1095.0,-2.494,2.6,6.513,3.998,-3.353,1.616
1099.0,-2.084,2.612,5.834,4.087,-3.288,1.69
1103.0,-2.084,2.612,5.834,4.087,-3.288,1.69
1107.0,-1.439,2.548,5.09,4.087,-3.288,1.751
1110.0,-1.439,2.548,5.09,4.08,-3.205,1.751
1114.0,-1.439,2.548,5.09,4.08,-3.205,1.751
1118.0,-0.704,3.02,4.68,3.995,-3.101,1.724
1122.0,-0.704,3.02,4.68,3.995,-3.101,1.724
1126.0,-0.704,3.02,4.367,3.995,-3.101,1.724
1129.0,-0.425,4.088,4.367,3.878,-3.004,1.639
1133.0,-0.425,4.088,4.367,3.878,-3.004,1.639
1137.0,-0.077,4.676,3.859,3.742,-2.919,1.608
1141.0,-0.077,4.676,3.859,3.742,-2.919,1.608
1145.0,-0.077,4.676,3.859,3.742,-2.919,1.608
1149.0,0.665,4.476,3.431,3.561,-2.82,1.629
1152.0,0.665,4.476,3.431,3.561,-2.82,1.629
1156.0,1.4,4.071,3.142,3.561,-2.701,1.61
1160.0,1.4,4.071,3.142,3.346,-2.701,1.61
1164.0,1.4,4.071,3.142,3.346,-2.701,1.61
1167.0,1.707,4.108,3.018,3.134,-2.568,1.524
1171.0,1.707,4.108,3.018,3.134,-2.568,1.524
1175.0,1.707,4.108,3.018,3.134,-2.568,1.524
1178.0,1.867,4.232,2.638,2.957,-2.451,1.425
1182.0,1.867,4.232,2.638,2.957,-2.451,1.425
1186.0,2.216,4.114,2.309,2.818,-2.34,1.342
1190.0,2.216,4.114,2.309,2.818,-2.34,1.342
1193.0,2.216,4.114,2.309,2.818,-2.34,1.342
1197.0,2.783,3.841,1.828,2.76,-2.225,1.233
1201.0,2.783,3.841,1.828,2.76,-2.225,1.233
1205.0,2.783,3.841,1.828,2.76,-2.225,1.233
1208.0,3.602,3.983,1.144,2.796,-2.086,1.087
1212.0,3.602,3.983,1.144,2.796,-2.086,1.087
1216.0,4.372,4.254,0.493,2.898,-1.915,0.958
1219.0,4.372,4.254,0.493,2.898,-1.915,0.958
1223.0,4.372,4.254,0.493,2.898,-1.915,0.958
1227.0,4.939,4.534,-0.27,3.031,-1.72,0.854
1231.0,4.939,4.534,-0.27,3.031,-1.72,0.854
1235.0,5.527,4.989,-1.439,3.031,-1.72,0.854
1238.0,5.527,4.989,-1.439,3.147,-1.487,0.776
1242.0,5.527,4.989,-1.439,3.147,-1.487,0.776
1246.0,6.397,5.737,-2.782,3.239,-1.22,0.71
1250.0,6.397,5.737,-2.782,3.239,-1.22,0.71
1254.0,6.397,5.737,-2.782,3.239,-1.22,0.71
1258.0,7.381,6.478,-4.292,3.309,-0.908,0.634
1261.0,7.381,6.478,-4.292,3.309,-0.908,0.634
1265.0,8.563,6.946,-5.986,3.36,-0.524,0.55
1269.0,8.563,6.946,-5.986,3.36,-0.524,0.55
1273.0,8.563,6.946,-5.986,3.36,-0.524,0.55
1277.0,9.651,7.717,-7.263,3.416,-0.059,0.432
1280.0,9.651,7.717,-7.263,3.416,-0.059,0.432
1284.0,10.438,9.041,-8.496,3.416,-0.059,0.333
1288.0,10.438,9.041,-8.496,3.508,0.454,0.333
1292.0,10.438,9.041,-8.496,3.508,0.454,0.333
1296.0,11.209,10.191,-10.222,3.635,1.029,0.346
1300.0,11.209,10.191,-10.222,3.635,1.029,0.346
1304.0,11.977,11.166,-12.282,3.635,1.029,0.346
1308.0,11.977,11.166,-12.282,3.785,1.677,0.453
1312.0,11.977,11.166,-12.282,3.785,1.677,0.453
1316.0,12.887,12.218,-14.547,3.931,2.394,0.611
1320.0,12.887,12.218,-14.547,3.931,2.394,0.611
1324.0,13.63,13.34,-16.479,3.931,2.394,0.815
1328.0,13.63,13.34,-16.479,4.03,3.199,0.815
1332.0,13.63,13.34,-16.479,4.03,3.199,0.815
1336.0,14.646,14.713,-18.47,4.078,4.075,1.114
1340.0,14.646,14.713,-18.47,4.078,4.075,1.114
1344.0,15.574,16.02,-19.097,4.078,4.857,1.548
1348.0,15.574,16.02,-19.097,4.112,4.857,1.548
1352.0,15.574,16.02,-19.097,4.112,4.857,1.548
1356.0,15.098,16.368,-17.118,4.121,5.015,2.1
1360.0,15.098,16.368,-17.118,4.121,5.015,2.1
1364.0,13.154,15.562,-13.95,4.06,5.015,2.714
1368.0,13.154,15.562,-13.95,4.06,5.015,2.714
1372.0,13.154,15.562,-13.95,4.06,5.015,2.714
1376.0,9.614,14.471,-11.099,3.89,5.015,3.282
1380.0,9.614,14.471,-11.099,3.89,5.015,3.282
1383.0,4.825,13.18,-9.208,3.576,5.015,3.774
1387.0,4.825,13.18,-9.208,3.576,5.015,3.774
1391.0,4.825,13.18,-9.208,3.576,5.015,3.774
1395.0,-0.791,11.025,-6.885,3.082,5.015,4.171
1399.0,-0.791,11.025,-6.885,3.082,5.015,4.171
1403.0,-8.037,8.715,-3.674,3.082,5.015,4.423
1407.0,-8.037,8.715,-3.674,2.391,5.015,4.423
1410.0,-8.037,8.715,-3.674,2.391,5.015,4.423
1414.0,-17.264,6.382,0.71,1.496,5.015,4.51
1418.0,-17.264,6.382,0.71,1.496,5.015,4.51
1422.0,-17.264,6.382,3.135,1.496,5.015,4.51
1426.0,-19.6,2.592,3.135,0.474,5.015,4.416
1429.0,-19.6,2.592,3.135,0.474,5.015,4.416
1433.0,-19.6,-1.244,6.931,-0.386,4.985,4.132
1437.0,-19.6,-1.244,6.931,-0.386,4.985,4.132
1441.0,-19.6,-1.244,6.931,-0.386,4.985,4.132
1445.0,-19.6,-3.159,10.16,-1.008,3.964,3.718
1449.0,-19.6,-3.159,10.16,-1.008,3.964,3.718
1453.0,-18.639,-4.239,8.829,-1.591,1.962,2.993
1457.0,-18.639,-4.239,8.829,-1.591,1.962,2.993
1461.0,-18.639,-4.239,7.521,-1.591,1.962,2.993
1465.0,-13.287,-3.96,7.521,-2.3,0.363,1.849
1469.0,-13.287,-3.96,7.521,-2.3,0.363,1.849
1473.0,-9.848,-3.157,7.399,-3.158,-0.846,0.531
1477.0,-9.848,-3.157,7.399,-3.158,-0.846,0.531
1481.0,-7.448,-2.983,6.641,-3.158,-0.846,0.531
1485.0,-7.448,-2.983,6.641,-3.953,-1.759,-0.66
1489.0,-7.448,-2.983,6.641,-3.953,-1.759,-0.66
1494.0,-4.54,-3.894,5.96,-4.408,-2.344,-1.568
1498.0,-4.54,-3.894,5.96,-4.408,-2.344,-1.568
1502.0,-1.639,-5.495,5.59,-4.387,-2.647,-2.196
1506.0,-1.639,-5.495,5.59,-4.387,-2.647,-2.196
1510.0,-1.639,-5.495,5.59,-4.387,-2.647,-2.196
1514.0,0.534,-6.612,5.124,-3.902,-2.822,-2.639
1518.0,0.534,-6.612,5.124,-3.902,-2.822,-2.639
1522.0,1.808,-6.529,4.633,-3.106,-2.988,-2.981
1526.0,1.808,-6.529,4.633,-3.106,-2.988,-2.981
1530.0,1.808,-6.529,4.633,-3.106,-2.988,-2.981
1534.0,2.195,-5.387,4.175,-2.219,-3.156,-3.243
1538.0,2.195,-5.387,4.175,-2.219,-3.156,-3.243
1542.0,2.351,-3.412,3.999,-1.372,-3.29,-3.404
1546.0,2.351,-3.412,3.999,-1.372,-3.29,-3.404
1550.0,2.351,-3.412,3.999,-1.372,-3.29,-3.404
1554.0,3.102,-1.108,3.98,-0.561,-3.357,-3.433
1558.0,3.102,-1.108,3.98,-0.561,-3.357,-3.433
1562.0,4.607,0.892,3.644,0.224,-3.349,-3.338
1566.0,4.607,0.892,3.644,0.224,-3.349,-3.338
1569.0,4.607,0.892,3.644,0.224,-3.349,-3.338
1573.0,6.242,2.355,2.831,0.936,-3.294,-3.211
1577.0,6.242,2.355,2.831,0.936,-3.294,-3.211
1581.0,7.072,3.404,2.023,1.499,-3.209,-3.142
1585.0,7.072,3.404,2.023,1.499,-3.209,-3.142
1589.0,7.072,3.404,2.023,1.499,-3.209,-3.142
1592.0,6.979,4.494,1.138,1.859,-3.124,-3.156
1596.0,6.979,4.494,1.138,1.859,-3.124,-3.156
1600.0,6.528,5.952,0.294,1.859,-3.124,-3.205
1604.0,6.528,5.952,0.294,2.033,-3.037,-3.205
1608.0,6.528,5.952,0.294,2.033,-3.037,-3.205
1612.0,6.696,7.403,-0.756,2.088,-2.967,-3.227
1615.0,6.696,7.403,-0.756,2.088,-2.967,-3.227
1619.0,6.696,7.403,-1.736,2.088,-2.967,-3.227
1623.0,7.481,8.609,-1.736,2.064,-2.885,-3.205
1627.0,7.481,8.609,-1.736,2.064,-2.885,-3.205
1631.0,8.516,9.559,-2.981,1.975,-2.778,-3.13
1635.0,8.516,9.559,-2.981,1.975,-2.778,-3.13
1639.0,8.516,9.559,-2.981,1.975,-2.778,-3.13
1643.0,9.556,10.499,-4.406,1.838,-2.646,-3.025
1647.0,9.556,10.499,-4.406,1.838,-2.646,-3.025
1651.0,10.314,11.563,-5.376,1.642,-2.48,-2.892
1655.0,10.314,11.563,-5.376,1.642,-2.48,-2.892
1659.0,10.314,12.884,-6.078,1.642,-2.48,-2.892
1663.0,10.695,12.884,-6.078,1.383,-2.341,-2.717
1667.0,10.695,12.884,-6.078,1.383,-2.341,-2.717
1671.0,11.245,13.924,-6.972,1.077,-2.237,-2.481
1675.0,11.245,13.924,-6.972,1.077,-2.237,-2.481
1679.0,11.979,14.521,-8.019,1.077,-2.102,-2.22
1683.0,11.979,14.521,-8.019,0.773,-2.102,-2.22
1687.0,11.979,14.521,-8.019,0.773,-2.102,-2.22
1692.0,12.971,15.01,-9.117,0.541,-1.879,-1.953
1696.0,12.971,15.01,-9.117,0.541,-1.879,-1.953
1700.0,13.949,15.518,-10.105,0.425,-1.567,-1.672
1704.0,13.949,15.518,-10.105,0.425,-1.567,-1.672
1708.0,13.949,15.518,-10.991,0.425,-1.567,-1.672
1712.0,14.575,16.01,-10.991,0.419,-1.184,-1.372
1716.0,14.575,16.01,-10.991,0.419,-1.184,-1.372
1721.0,14.794,16.506,-11.635,0.495,-0.744,-1.063
1725.0,14.794,16.506,-11.635,0.495,-0.744,-1.063
1729.0,14.664,17.163,-12.332,0.624,-0.268,-0.734
1733.0,14.664,17.163,-12.332,0.624,-0.268,-0.734
1737.0,14.664,17.163,-12.332,0.624,-0.268,-0.734
1741.0,14.572,17.872,-13.047,0.774,0.236,-0.367
1745.0,14.572,17.872,-13.047,0.774,0.236,-0.367
1750.0,14.858,19.001,-14.337,0.938,0.775,0.03
1754.0,14.858,19.001,-14.337,0.938,0.775,0.03
1758.0,14.858,19.001,-16.073,0.938,0.775,0.03
1762.0,15.543,19.592,-16.073,1.119,1.378,0.501
1765.0,15.543,19.592,-16.073,1.119,1.378,0.501
1769.0,16.356,19.596,-17.606,1.306,2.054,1.05
1773.0,16.356,19.596,-17.606,1.306,2.054,1.05
1777.0,17.074,19.596,-18.809,1.306,2.054,1.05
1781.0,17.074,19.596,-18.809,1.455,2.779,1.657
1785.0,17.074,19.596,-18.809,1.455,2.779,1.657
1789.0,17.445,19.596,-18.805,1.504,3.545,2.307
1793.0,17.445,19.596,-18.805,1.504,3.545,2.307
1797.0,17.009,19.596,-16.955,1.504,3.545,2.963
1801.0,17.009,19.596,-16.955,1.406,4.315,2.963
1805.0,17.009,19.596,-16.955,1.406,4.315,2.963
1809.0,15.462,19.596,-14.111,1.194,4.909,3.584
1813.0,15.462,19.596,-14.111,1.194,4.909,3.584
1817.0,13.34,19.468,-11.664,1.194,5.015,4.16
1821.0,13.34,19.468,-11.664,0.957,5.015,4.16
1825.0,13.34,19.468,-11.664,0.957,5.015,4.16
1829.0,10.993,18.014,-9.31,0.723,5.015,4.719
1833.0,10.993,18.014,-9.31,0.723,5.015,4.719
1837.0,8.11,15.688,-7.488,0.723,5.015,5.001
1841.0,8.11,15.688,-7.488,0.458,5.015,5.001
1845.0,8.11,15.688,-7.488,0.458,5.015,5.001
1849.0,4.382,12.955,-5.791,0.115,5.015,5.013
1852.0,4.382,12.955,-5.791,0.115,5.015,5.013
1856.0,4.382,10.104,-3.839,0.115,5.015,5.013
1860.0,-0.145,10.104,-3.839,-0.337,5.015,5.013
1864.0,-0.145,10.104,-3.839,-0.337,5.015,5.013
1868.0,-5.868,7.915,-1.846,-0.922,5.015,5.013
1872.0,-5.868,7.915,-1.846,-0.922,5.015,5.013
1876.0,-5.868,7.915,0.378,-0.922,5.015,5.013
1880.0,-13.402,6.49,0.378,-1.679,5.015,5.013
1884.0,-13.402,6.49,0.378,-1.679,5.015,5.013
1888.0,-19.479,3.939,2.196,-2.542,5.015,5.013
1891.0,-19.479,3.939,2.196,-2.542,5.015,5.013
1895.0,-19.479,3.939,2.196,-2.542,5.015,5.013
1899.0,-19.6,-0.082,3.62,-3.39,5.015,5.013
1903.0,-19.6,-0.082,3.62,-3.39,5.015,5.013
1907.0,-19.6,-2.864,6.213,-4.105,4.895,5.013
1911.0,-19.6,-2.864,6.213,-4.105,4.895,5.013
1915.0,-19.6,-2.864,4.6,-4.105,4.895,5.013
1919.0,-19.139,-5.969,4.6,-4.55,3.752,5.013
1923.0,-19.139,-5.969,4.6,-4.55,3.752,5.013
1927.0,-9.653,-10.013,1.461,-4.831,2.437,4.693
1931.0,-9.653,-10.013,1.461,-4.831,2.437,4.693
1935.0,-9.653,-11.653,3.537,-4.831,2.437,4.693
1939.0,-0.273,-11.653,3.537,-5.002,1.499,2.849
1943.0,-0.273,-11.653,3.537,-5.002,1.499,2.849
1947.0,4.37,-9.817,6.627,-5.013,0.472,0.533
1951.0,4.37,-9.817,6.627,-5.013,0.472,0.533
1955.0,4.37,-9.817,6.736,-5.013,0.472,0.533
1959.0,7.047,-8.523,6.736,-5.013,-0.569,-1.257
1963.0,7.047,-8.523,6.736,-5.013,-0.569,-1.257
1967.0,7.861,-9.968,5.469,-4.949,-1.172,-2.369
1971.0,7.861,-9.968,5.469,-4.949,-1.172,-2.369
1975.0,7.861,-9.968,4.445,-4.949,-1.172,-2.369
1979.0,6.879,-11.074,4.445,-4.256,-1.324,-3.051
1983.0,6.879,-11.074,4.445,-4.256,-1.324,-3.051
1987.0,6.101,-11.033,3.551,-3.016,-1.278,-3.367
1991.0,6.101,-11.033,3.551,-3.016,-1.278,-3.367
1995.0,6.468,-9.964,2.981,-3.016,-1.278,-3.424
1999.0,6.468,-9.964,2.981,-1.575,-1.159,-3.424
2003.0,6.468,-9.964,2.981,-1.575,-1.159,-3.424
2007.0,7.939,-8.143,2.953,-0.077,-0.977,-3.368
2011.0,7.939,-8.143,2.953,-0.077,-0.977,-3.368
2015.0,9.188,-6.048,3.582,-0.077,-0.702,-3.245
2019.0,9.188,-6.048,3.582,1.345,-0.702,-3.245
2023.0,9.188,-6.048,3.582,1.345,-0.702,-3.245
2027.0,9.446,-3.894,4.436,2.614,-0.434,-3.016
2031.0,9.446,-3.894,4.436,2.614,-0.434,-3.016
2035.0,9.198,-1.905,4.471,2.614,-0.295,-2.68
2038.0,9.198,-1.905,4.471,3.671,-0.295,-2.68
2042.0,9.198,-1.905,4.471,3.671,-0.295,-2.68
2046.0,8.739,-0.049,3.945,4.478,-0.242,-2.334
2050.0,8.739,-0.049,3.945,4.478,-0.242,-2.334
2054.0,8.125,1.741,3.2,4.478,-0.242,-2.034
2058.0,8.125,1.741,3.2,4.938,-0.256,-2.034
2062.0,8.125,1.741,3.2,4.938,-0.256,-2.034
2065.0,7.926,3.503,2.168,4.995,-0.334,-1.766
2069.0,7.926,3.503,2.168,4.995,-0.334,-1.766
2073.0,7.926,3.503,2.168,4.995,-0.334,-1.766
2077.0,8.343,5.029,1.253,4.995,-0.427,-1.529
2081.0,8.343,5.029,1.253,4.995,-0.427,-1.529
2085.0,9.288,6.585,0.136,4.995,-0.508,-1.314
2088.0,9.288,6.585,0.136,4.995,-0.508,-1.314
2092.0,9.288,6.585,0.136,4.995,-0.508,-1.314
2096.0,10.768,8.404,-1.164,4.872,-0.535,-1.1
2100.0,10.768,8.404,-1.164,4.872,-0.535,-1.1
2104.0,12.062,9.94,-1.905,4.299,-0.453,-0.852
2108.0,12.062,9.94,-1.905,4.299,-0.453,-0.852
2112.0,12.062,9.94,-1.905,4.299,-0.453,-0.852
2116.0,12.525,10.557,-2.032,3.426,-0.288,-0.6
2120.0,12.525,10.557,-2.032,3.426,-0.288,-0.6
2124.0,11.864,10.052,-1.711,2.384,-0.103,-0.457
2128.0,11.864,10.052,-1.711,2.384,-0.103,-0.457
2132.0,11.864,10.052,-1.711,2.384,-0.103,-0.457
2136.0,10.633,9.063,-1.211,1.346,0.046,-0.453
2140.0,10.633,9.063,-1.211,1.346,0.046,-0.453
2144.0,9.433,7.85,-0.319,0.456,0.154,-0.503
2148.0,9.433,7.85,-0.319,0.456,0.154,-0.503
2152.0,9.433,7.85,-0.319,0.456,0.154,-0.503
2156.0,8.471,6.795,0.474,-0.224,0.211,-0.542
2160.0,8.471,6.795,0.474,-0.224,0.211,-0.542
2163.0,7.698,5.795,1.052,-0.698,0.222,-0.566
2167.0,7.698,5.795,1.052,-0.698,0.222,-0.566
2171.0,7.698,5.795,1.052,-0.698,0.222,-0.566
2175.0,7.115,4.834,1.409,-1.0,0.201,-0.602
2179.0,7.115,4.834,1.409,-1.0,0.201,-0.602
2182.0,6.653,4.049,1.758,-1.0,0.201,-0.675
2186.0,6.653,4.049,1.758,-1.171,0.159,-0.675
2190.0,6.653,4.049,1.758,-1.171,0.159,-0.675
2194.0,6.176,3.463,2.099,-1.236,0.102,-0.769
2198.0,6.176,3.463,2.099,-1.236,0.102,-0.769
2202.0,6.176,3.463,2.316,-1.236,0.102,-0.769
2205.0,5.706,2.837,2.316,-1.221,0.028,-0.858
2209.0,5.706,2.837,2.316,-1.221,0.028,-0.858
2213.0,5.264,2.197,2.468,-1.144,-0.07,-0.949
2217.0,5.264,2.197,2.468,-1.144,-0.07,-0.949
2221.0,5.264,2.197,2.468,-1.144,-0.07,-0.949
2225.0,4.804,1.793,2.595,-1.014,-0.195,-1.055
2229.0,4.804,1.793,2.595,-1.014,-0.195,-1.055
2233.0,4.391,1.436,2.606,-0.843,-0.347,-1.168
2236.0,4.391,1.436,2.606,-0.843,-0.347,-1.168
2240.0,4.391,1.436,2.606,-0.843,-0.347,-1.168
2244.0,3.971,1.126,2.408,-0.643,-0.506,-1.293
2248.0,3.971,1.126,2.408,-0.643,-0.506,-1.293
2252.0,3.583,0.879,2.085,-0.43,-0.66,-1.439
2256.0,3.583,0.879,2.085,-0.43,-0.66,-1.439
2260.0,3.583,0.879,2.085,-0.43,-0.66,-1.439
2264.0,3.19,0.692,1.613,-0.214,-0.803,-1.612
2268.0,3.19,0.692,1.613,-0.214,-0.803,-1.612
2272.0,2.688,0.597,1.138,-0.015,-0.927,-1.807
2275.0,2.688,0.597,1.138,-0.015,-0.927,-1.807
2279.0,2.688,0.597,1.138,-0.015,-0.927,-1.807
2283.0,2.195,0.588,0.718,0.152,-1.04,-2.014
2287.0,2.195,0.588,0.718,0.152,-1.04,-2.014
2291.0,1.839,0.663,0.317,0.152,-1.04,-2.238
2295.0,1.839,0.663,0.317,0.285,-1.134,-2.238
2299.0,1.839,0.663,0.317,0.285,-1.134,-2.238
2302.0,1.594,0.914,0.095,0.389,-1.192,-2.481
2306.0,1.594,0.914,0.095,0.389,-1.192,-2.481
2310.0,1.594,0.914,0.077,0.389,-1.192,-2.481
2314.0,1.42,1.19,0.077,0.468,-1.215,-2.705
2318.0,1.42,1.19,0.077,0.468,-1.215,-2.705
2321.0,1.298,1.35,0.187,0.534,-1.218,-2.879
2325.0,1.298,1.35,0.187,0.534,-1.218,-2.879
2329.0,1.298,1.35,0.187,0.534,-1.218,-2.879
2333.0,1.146,1.478,0.289,0.591,-1.213,-3.01
2337.0,1.146,1.478,0.289,0.591,-1.213,-3.01
2341.0,0.921,1.6,0.352,0.591,-1.204,-3.101
2344.0,0.921,1.6,0.352,0.631,-1.204,-3.101
2348.0,0.921,1.6,0.352,0.631,-1.204,-3.101
2352.0,0.683,1.778,0.491,0.645,-1.183,-3.158
2356.0,0.683,1.778,0.491,0.645,-1.183,-3.158
2360.0,0.683,1.939,0.762,0.645,-1.183,-3.158
2363.0,0.626,1.939,0.762,0.645,-1.162,-3.209
2367.0,0.626,1.939,0.762,0.645,-1.162,-3.209
2371.0,0.76,2.101,0.941,0.639,-1.161,-3.276
2375.0,0.76,2.101,0.941,0.639,-1.161,-3.276
2379.0,0.76,2.101,0.941,0.639,-1.161,-3.276
2383.0,1.179,2.297,1.122,0.622,-1.186,-3.368
2386.0,1.179,2.297,1.122,0.622,-1.186,-3.368
2390.0,1.711,2.611,1.277,0.598,-1.216,-3.501
2394.0,1.711,2.611,1.277,0.598,-1.216,-3.501
2398.0,1.711,2.611,1.277,0.598,-1.216,-3.501
2402.0,2.256,2.95,1.315,0.541,-1.249,-3.625
2406.0,2.256,2.95,1.315,0.541,-1.249,-3.625
2409.0,2.676,3.29,1.192,0.541,-1.249,-3.707
2413.0,2.676,3.29,1.192,0.436,-1.265,-3.707
2417.0,2.676,3.29,1.192,0.436,-1.265,-3.707
2421.0,2.855,3.58,0.912,0.277,-1.241,-3.739
2425.0,2.855,3.58,0.912,0.277,-1.241,-3.739
2428.0,2.855,3.58,0.912,0.277,-1.241,-3.739
2432.0,2.899,3.751,0.478,0.063,-1.18,-3.733
2436.0,2.899,3.751,0.478,0.063,-1.18,-3.733
2440.0,2.717,3.884,-0.022,-0.22,-1.093,-3.712
2444.0,2.717,3.884,-0.022,-0.22,-1.093,-3.712
2448.0,2.717,3.884,-0.022,-0.22,-1.093,-3.712
2452.0,2.385,4.076,-0.564,-0.593,-1.001,-3.687
2456.0,2.385,4.076,-0.564,-0.593,-1.001,-3.687
2460.0,2.087,4.332,-0.977,-1.051,-0.912,-3.674
2464.0,2.087,4.332,-0.977,-1.051,-0.912,-3.674
2468.0,2.087,4.332,-0.977,-1.051,-0.912,-3.674
2472.0,2.154,4.504,-1.155,-1.578,-0.816,-3.698
2476.0,2.154,4.504,-1.155,-1.578,-0.816,-3.698
2480.0,2.79,4.41,-1.317,-2.143,-0.7,-3.804
2484.0,2.79,4.41,-1.317,-2.143,-0.7,-3.804
2488.0,2.79,4.41,-1.283,-2.143,-0.7,-3.804
2492.0,3.563,4.484,-1.283,-2.73,-0.541,-4.025
2496.0,3.563,4.484,-1.283,-2.73,-0.541,-4.025
2500.0,4.006,4.829,-1.29,-3.329,-0.33,-4.278
2504.0,4.006,4.829,-1.29,-3.329,-0.33,-4.278
2508.0,4.245,5.42,-1.305,-3.329,-0.33,-4.278
2512.0,4.245,5.42,-1.305,-3.937,-0.037,-4.462
2516.0,4.245,5.42,-1.305,-3.937,-0.037,-4.462
2520.0,3.922,6.144,-1.165,-4.556,0.335,-4.521
2524.0,3.922,6.144,-1.165,-4.556,0.335,-4.521
2528.0,3.729,6.419,-1.3,-4.556,0.335,-4.521
2531.0,3.729,6.419,-1.3,-4.974,0.742,-4.445
2535.0,3.729,6.419,-1.3,-4.974,0.742,-4.445
2539.0,3.866,6.16,-1.513,-5.013,1.196,-4.296
2543.0,3.866,6.16,-1.513,-5.013,1.196,-4.296
2547.0,3.866,6.16,-1.129,-5.013,1.196,-4.296
2551.0,3.809,5.577,-1.129,-5.013,1.733,-4.186
2555.0,3.809,5.577,-1.129,-5.013,1.733,-4.186
2559.0,2.425,5.009,-0.565,-5.013,2.298,-4.163
2563.0,2.425,5.009,-0.565,-5.013,2.298,-4.163
2567.0,2.425,5.009,-0.565,-5.013,2.298,-4.163
2571.0,1.43,4.186,-0.144,-5.013,2.812,-4.146
2574.0,1.43,4.186,-0.144,-5.013,2.812,-4.146
2578.0,0.666,3.41,0.581,-5.013,3.33,-4.097
2582.0,0.666,3.41,0.581,-5.013,3.33,-4.097
2586.0,0.666,3.41,0.581,-5.013,3.33,-4.097
2590.0,-0.397,3.19,2.175,-5.013,3.846,-3.947
2594.0,-0.397,3.19,2.175,-5.013,3.846,-3.947
2598.0,-2.657,3.723,4.763,-5.013,4.278,-3.59
2602.0,-2.657,3.723,4.763,-5.013,4.278,-3.59
2605.0,-2.657,3.723,4.763,-5.013,4.278,-3.59
2609.0,-4.886,3.882,6.692,-5.013,4.506,-2.942
2613.0,-4.886,3.882,6.692,-5.013,4.506,-2.942
2617.0,-5.917,3.637,7.841,-5.013,4.585,-2.132
2621.0,-5.917,3.637,7.841,-5.013,4.585,-2.132
2625.0,-5.917,3.637,7.841,-5.013,4.585,-2.132
2629.0,-6.68,3.236,8.081,-5.013,4.629,-1.363
2633.0,-6.68,3.236,8.081,-5.013,4.629,-1.363
2637.0,-6.955,3.331,7.6,-5.013,4.648,-0.69
2641.0,-6.955,3.331,7.6,-5.013,4.648,-0.69
2644.0,-6.955,3.331,7.6,-5.013,4.648,-0.69
2648.0,-6.729,3.157,7.547,-5.013,4.689,-0.07
2652.0,-6.729,3.157,7.547,-5.013,4.689,-0.07
2656.0,-6.728,2.841,6.915,-5.013,4.689,0.506
2660.0,-6.728,2.841,6.915,-5.013,4.823,0.506
2664.0,-6.728,2.841,6.915,-5.013,4.823,0.506
2668.0,-7.492,2.27,6.281,-5.013,4.993,1.026
2671.0,-7.492,2.27,6.281,-5.013,4.993,1.026
2675.0,-7.492,2.27,5.774,-5.013,4.993,1.026
2679.0,-9.033,1.177,5.774,-5.013,5.015,1.455
2683.0,-9.033,1.177,5.774,-5.013,5.015,1.455
2687.0,-10.924,0.368,5.111,-5.013,5.015,1.785
2691.0,-10.924,0.368,5.111,-5.013,5.015,1.785
2695.0,-10.924,0.368,5.111,-5.013,5.015,1.785
2698.0,-13.327,-0.379,6.169,-5.013,5.015,2.05
2702.0,-13.327,-0.379,6.169,-5.013,5.015,2.05
2706.0,-16.422,-1.436,7.95,-5.006,5.015,2.205
2710.0,-16.422,-1.436,7.95,-5.006,5.015,2.205
2714.0,-16.422,-1.436,7.95,-5.006,5.015,2.205
2718.0,-19.18,-1.868,8.526,-4.855,5.015,2.247
2722.0,-19.18,-1.868,8.526,-4.855,5.015,2.247
2726.0,-19.6,-1.763,8.935,-4.618,5.015,2.26
2730.0,-19.6,-1.763,8.935,-4.618,5.015,2.26
2734.0,-19.6,-1.763,8.935,-4.618,5.015,2.26
2738.0,-19.6,-1.908,9.954,-4.514,5.015,2.317
2742.0,-19.6,-1.908,9.954,-4.514,5.015,2.317
2746.0,-19.6,-2.203,10.681,-4.535,5.015,2.433
2750.0,-19.6,-2.203,10.681,-4.535,5.015,2.433
2755.0,-19.6,-2.383,10.98,-4.535,5.015,2.433
2759.0,-19.6,-2.383,10.98,-4.621,5.015,2.601
2763.0,-19.6,-2.383,10.98,-4.621,5.015,2.601
2767.0,-19.6,-2.579,11.067,-4.704,5.015,2.777
2771.0,-19.6,-2.579,11.067,-4.704,5.015,2.777
2775.0,-19.6,-2.786,10.283,-4.729,5.013,2.881
2779.0,-19.6,-2.786,10.283,-4.729,5.013,2.881
2783.0,-19.6,-2.786,10.283,-4.729,5.013,2.881
2787.0,-19.6,-2.563,8.607,-4.691,4.795,2.832
2791.0,-19.6,-2.563,8.607,-4.691,4.795,2.832
2795.0,-19.6,-1.774,7.036,-4.637,4.251,2.587
2799.0,-19.6,-1.774,7.036,-4.637,4.251,2.587
2803.0,-19.6,-1.774,7.036,-4.637,4.251,2.587
2807.0,-19.6,-0.65,6.022,-4.575,3.741,2.159
2811.0,-19.6,-0.65,6.022,-4.575,3.741,2.159
2815.0,-19.6,-0.134,4.893,-4.469,3.238,1.537
2819.0,-19.6,-0.134,4.893,-4.469,3.238,1.537
2823.0,-19.6,-0.134,4.893,-4.469,3.238,1.537
2827.0,-19.121,0.717,3.567,-4.348,2.707,0.742
2831.0,-19.121,0.717,3.567,-4.348,2.707,0.742
2835.0,-16.481,1.653,2.803,-4.295,2.234,-0.014
2839.0,-16.481,1.653,2.803,-4.295,2.234,-0.014
2843.0,-16.481,1.653,2.803,-4.295,2.234,-0.014
2847.0,-13.74,2.285,3.025,-4.3,1.894,-0.636
2851.0,-13.74,2.285,3.025,-4.3,1.894,-0.636
2855.0,-11.716,2.378,3.619,-4.311,1.65,-1.091
2859.0,-11.716,2.378,3.619,-4.311,1.65,-1.091
2863.0,-11.716,2.378,3.878,-4.311,1.65,-1.091
2867.0,-10.216,1.86,3.878,-4.289,1.445,-1.382
2871.0,-10.216,1.86,3.878,-4.289,1.445,-1.382
2875.0,-9.455,1.306,3.602,-4.217,1.28,-1.591
2879.0,-9.455,1.306,3.602,-4.217,1.28,-1.591
2883.0,-9.455,1.306,3.189,-4.217,1.28,-1.591
2887.0,-9.343,0.688,3.189,-4.128,1.175,-1.769
2890.0,-9.343,0.688,3.189,-4.128,1.175,-1.769
2894.0,-9.563,-0.026,2.932,-4.03,1.133,-1.917
2898.0,-9.563,-0.026,2.932,-4.03,1.133,-1.917
2902.0,-9.563,-0.026,2.892,-4.03,1.133,-1.917
2906.0,-9.955,-0.848,2.892,-3.915,1.132,-2.014
2910.0,-9.955,-0.848,2.892,-3.915,1.132,-2.014
2914.0,-10.542,-1.558,3.269,-3.779,1.141,-2.058
2918.0,-10.542,-1.558,3.269,-3.779,1.141,-2.058
2923.0,-11.656,-0.712,4.77,-3.779,1.141,-2.058
2927.0,-11.656,-0.712,4.77,-3.623,1.11,-2.005
2931.0,-11.656,-0.712,4.77,-3.623,1.11,-2.005
2935.0,-13.031,0.309,5.941,-3.436,0.986,-1.738
2939.0,-13.031,0.309,5.941,-3.436,0.986,-1.738
2943.0,-13.701,-0.907,6.337,-3.195,0.844,-1.339
2947.0,-13.701,-0.907,6.337,-3.195,0.844,-1.339
2951.0,-13.701,-0.907,6.337,-3.195,0.844,-1.339
2955.0,-12.808,-1.753,8.061,-2.897,0.641,-0.98
2959.0,-12.808,-1.753,8.061,-2.897,0.641,-0.98
2963.0,-11.125,-0.031,8.249,-2.662,0.309,-0.569
2967.0,-11.125,-0.031,8.249,-2.662,0.309,-0.569
2971.0,-11.125,-0.031,6.973,-2.662,0.309,-0.569
2975.0,-10.083,-0.132,6.973,-2.536,0.099,-0.056
2979.0,-10.083,-0.132,6.973,-2.536,0.099,-0.056
2984.0,-9.376,-1.212,5.343,-2.438,0.09,0.365
2987.0,-9.376,-1.212,5.343,-2.438,0.09,0.365
2991.0,-9.376,-2.416,4.412,-2.438,0.09,0.365
2995.0,-8.964,-2.416,4.412,-2.312,0.181,0.655
2999.0,-8.964,-2.416,4.412,-2.312,0.181,0.655
