deltaTime,Acc_X,Acc_Y,Acc_Z,Gyro_X,Gyro_Y,Gyro_Z
0.0,-10.622,-2.683,2.179,-0.028,-0.016,0.348
3.0,-10.622,-2.683,2.179,-0.028,-0.016,0.348
6.0,-10.345,-2.419,1.586,0.034,-0.04,0.397
9.0,-10.345,-2.419,1.586,0.034,-0.04,0.397
12.0,-10.345,-2.419,1.586,0.034,-0.04,0.397
15.0,-10.345,-2.419,1.145,0.034,-0.04,0.397
18.0,-9.772,-2.32,1.145,-0.033,-0.0,0.405
21.0,-9.772,-2.32,1.145,-0.033,-0.0,0.405
24.0,-9.772,-2.32,1.145,-0.033,-0.0,0.405
27.0,-9.557,-2.789,1.241,-0.205,0.132,0.399
30.0,-9.557,-2.789,1.241,-0.205,0.132,0.399
34.0,-9.557,-2.789,1.241,-0.205,0.132,0.399
37.0,-9.691,-3.614,1.874,-0.335,0.283,0.407
41.0,-9.691,-3.614,1.874,-0.335,0.283,0.407
45.0,-9.691,-3.614,1.874,-0.335,0.283,0.407
48.0,-9.96,-3.969,2.605,-0.309,0.416,0.453
52.0,-9.96,-3.969,2.605,-0.309,0.416,0.453
56.0,-10.084,-3.105,3.056,-0.198,0.488,0.512
60.0,-10.084,-3.105,3.056,-0.198,0.488,0.512
64.0,-10.084,-3.105,3.056,-0.198,0.488,0.512
67.0,-9.726,-1.995,3.291,-0.209,0.518,0.535
71.0,-9.726,-1.995,3.291,-0.209,0.518,0.535
75.0,-8.813,-1.503,3.431,-0.209,0.518,0.535
79.0,-8.813,-1.503,3.431,-0.346,0.524,0.539
82.0,-8.813,-1.503,3.431,-0.346,0.524,0.539
86.0,-7.914,-1.773,3.45,-0.505,0.535,0.529
90.0,-7.914,-1.773,3.45,-0.505,0.535,0.529
94.0,-7.914,-1.773,3.45,-0.505,0.535,0.529
97.0,-6.824,-2.587,3.641,-0.558,0.576,0.509
101.0,-6.824,-2.587,3.641,-0.558,0.576,0.509
105.0,-6.176,-2.897,4.182,-0.558,0.576,0.473
109.0,-6.176,-2.897,4.182,-0.445,0.653,0.473
112.0,-6.176,-2.897,4.182,-0.445,0.653,0.473
116.0,-6.032,-2.751,4.725,-0.246,0.727,0.426
120.0,-6.032,-2.751,4.725,-0.246,0.727,0.426
124.0,-6.032,-2.751,4.973,-0.246,0.727,0.426
128.0,-6.147,-2.198,4.973,-0.054,0.773,0.391
132.0,-6.147,-2.198,4.973,-0.054,0.773,0.391
135.0,-6.459,-1.631,5.113,0.052,0.799,0.375
139.0,-6.459,-1.631,5.113,0.052,0.799,0.375
143.0,-6.459,-1.631,5.113,0.052,0.799,0.375
147.0,-6.691,-1.408,5.244,0.052,0.809,0.384
150.0,-6.691,-1.408,5.244,0.052,0.809,0.384
154.0,-6.802,-1.075,5.363,0.052,0.809,0.384
158.0,-6.802,-1.075,5.363,-0.031,0.809,0.395
162.0,-6.802,-1.075,5.363,-0.031,0.809,0.395
165.0,-6.853,-0.139,5.368,-0.25,0.812,0.381
169.0,-6.853,-0.139,5.368,-0.25,0.812,0.381
173.0,-6.853,-0.139,5.368,-0.25,0.812,0.381
177.0,-7.531,-0.124,5.553,-0.646,0.81,0.346
181.0,-7.531,-0.124,5.553,-0.646,0.81,0.346
185.0,-8.462,-0.398,5.833,-1.04,0.78,0.309
188.0,-8.462,-0.398,5.833,-1.04,0.78,0.309
192.0,-8.462,-0.398,5.833,-1.04,0.78,0.309
196.0,-9.083,-0.656,5.956,-1.346,0.724,0.276
200.0,-9.083,-0.656,5.956,-1.346,0.724,0.276
204.0,-9.4,-1.143,6.12,-1.346,0.668,0.254
207.0,-9.4,-1.143,6.12,-1.584,0.668,0.254
211.0,-9.4,-1.143,6.12,-1.584,0.668,0.254
215.0,-9.525,-1.694,6.357,-1.749,0.623,0.237
219.0,-9.525,-1.694,6.357,-1.749,0.623,0.237
223.0,-9.525,-1.694,6.565,-1.749,0.623,0.237
227.0,-9.43,-2.194,6.565,-1.813,0.578,0.22
230.0,-9.43,-2.194,6.565,-1.813,0.578,0.22
234.0,-9.145,-2.672,6.609,-1.771,0.534,0.207
238.0,-9.145,-2.672,6.609,-1.771,0.534,0.207
242.0,-9.145,-2.672,6.609,-1.771,0.534,0.207
246.0,-8.877,-3.349,6.768,-1.622,0.487,0.182
249.0,-8.877,-3.349,6.768,-1.622,0.487,0.182
253.0,-8.56,-3.634,6.66,-1.353,0.462,0.146
257.0,-8.56,-3.634,6.66,-1.353,0.462,0.146
261.0,-8.56,-3.634,6.66,-1.353,0.462,0.146
265.0,-8.573,-3.87,6.739,-1.025,0.451,0.101
269.0,-8.573,-3.87,6.739,-1.025,0.451,0.101
272.0,-8.377,-3.25,6.075,-1.025,0.451,0.101
276.0,-8.377,-3.25,6.075,-0.622,0.35,0.066
280.0,-8.377,-3.25,6.075,-0.622,0.35,0.066
284.0,-8.318,-2.346,4.897,-0.319,0.239,0.05
288.0,-8.318,-2.346,4.897,-0.319,0.239,0.05
291.0,-8.318,-2.346,4.897,-0.319,0.239,0.05
295.0,-8.008,-2.35,3.863,-0.11,0.142,0.084
299.0,-8.008,-2.35,3.863,-0.11,0.142,0.084
303.0,-7.503,-2.404,3.042,0.089,0.123,0.183
307.0,-7.503,-2.404,3.042,0.089,0.123,0.183
310.0,-7.503,-2.404,3.042,0.089,0.123,0.183
314.0,-7.099,-2.37,2.5,0.265,0.166,0.303
318.0,-7.099,-2.37,2.5,0.265,0.166,0.303
322.0,-7.099,-2.265,2.166,0.265,0.166,0.303
325.0,-6.906,-2.265,2.166,0.402,0.233,0.409
329.0,-6.906,-2.265,2.166,0.402,0.233,0.409
333.0,-7.0,-2.085,2.02,0.485,0.302,0.478
336.0,-7.0,-2.085,2.02,0.485,0.302,0.478
340.0,-7.0,-2.085,2.02,0.485,0.302,0.478
344.0,-7.178,-1.768,2.03,0.498,0.372,0.511
348.0,-7.178,-1.768,2.03,0.498,0.372,0.511
351.0,-7.389,-1.372,2.318,0.498,0.372,0.511
355.0,-7.389,-1.372,2.318,0.443,0.45,0.528
359.0,-7.389,-1.372,2.318,0.443,0.45,0.528
363.0,-7.681,-1.052,2.74,0.338,0.522,0.553
366.0,-7.681,-1.052,2.74,0.338,0.522,0.553
370.0,-7.681,-1.052,2.74,0.338,0.522,0.553
374.0,-7.986,-0.74,3.197,0.2,0.577,0.598
378.0,-7.986,-0.74,3.197,0.2,0.577,0.598
381.0,-8.332,-0.522,3.838,0.2,0.609,0.67
385.0,-8.332,-0.522,3.838,0.049,0.609,0.67
389.0,-8.332,-0.522,3.838,0.049,0.609,0.67
392.0,-8.838,-0.472,4.552,-0.094,0.599,0.76
396.0,-8.838,-0.472,4.552,-0.094,0.599,0.76
400.0,-8.838,-0.472,4.552,-0.094,0.599,0.76
404.0,-9.558,-0.602,5.247,-0.219,0.549,0.858
408.0,-9.558,-0.602,5.247,-0.219,0.549,0.858
412.0,-10.513,-0.841,5.92,-0.325,0.47,0.953
415.0,-10.513,-0.841,5.92,-0.325,0.47,0.953
419.0,-10.513,-0.841,5.92,-0.325,0.47,0.953
423.0,-11.775,-1.33,6.827,-0.409,0.359,1.051
427.0,-11.775,-1.33,6.827,-0.409,0.359,1.051
431.0,-13.199,-2.224,7.663,-0.468,0.193,1.129
435.0,-13.199,-2.224,7.663,-0.468,0.193,1.129
439.0,-13.199,-2.224,7.663,-0.468,0.193,1.129
443.0,-14.425,-3.237,8.451,-0.5,-0.063,1.161
447.0,-14.425,-3.237,8.451,-0.5,-0.063,1.161
451.0,-15.177,-4.094,9.482,-0.495,-0.413,1.125
455.0,-15.177,-4.094,9.482,-0.495,-0.413,1.125
459.0,-15.177,-4.094,9.482,-0.495,-0.413,1.125
463.0,-15.317,-4.674,10.193,-0.419,-0.811,0.992
467.0,-15.317,-4.674,10.193,-0.419,-0.811,0.992
471.0,-15.057,-5.16,10.743,-0.254,-1.203,0.781
475.0,-15.057,-5.16,10.743,-0.254,-1.203,0.781
479.0,-15.057,-5.16,10.743,-0.254,-1.203,0.781
483.0,-14.733,-5.438,11.461,-0.013,-1.57,0.533
487.0,-14.733,-5.438,11.461,-0.013,-1.57,0.533
491.0,-14.7,-5.389,12.331,0.266,-1.922,0.284
495.0,-14.7,-5.389,12.331,0.266,-1.922,0.284
499.0,-14.886,-5.145,13.047,0.266,-1.922,0.284
503.0,-14.886,-5.145,13.047,0.529,-2.301,0.042
507.0,-14.886,-5.145,13.047,0.529,-2.301,0.042
511.0,-14.952,-4.947,13.316,0.716,-2.725,-0.203
515.0,-14.952,-4.947,13.316,0.716,-2.725,-0.203
519.0,-14.815,-4.927,13.253,0.716,-3.153,-0.459
524.0,-14.815,-4.927,13.253,0.797,-3.153,-0.459
528.0,-14.815,-4.927,13.253,0.797,-3.153,-0.459
532.0,-14.499,-5.015,13.053,0.781,-3.535,-0.71
536.0,-14.499,-5.015,13.053,0.781,-3.535,-0.71
540.0,-14.289,-5.225,13.044,0.698,-3.86,-0.936
544.0,-14.289,-5.225,13.044,0.698,-3.86,-0.936
548.0,-14.289,-5.225,13.044,0.698,-3.86,-0.936
552.0,-14.308,-5.486,13.079,0.599,-4.156,-1.137
556.0,-14.308,-5.486,13.079,0.599,-4.156,-1.137
560.0,-14.503,-5.869,12.94,0.505,-4.438,-1.326
564.0,-14.503,-5.869,12.94,0.505,-4.438,-1.326
568.0,-14.777,-6.312,12.77,0.505,-4.438,-1.326
573.0,-14.777,-6.312,12.77,0.425,-4.699,-1.511
577.0,-14.777,-6.312,12.77,0.425,-4.699,-1.511
581.0,-15.041,-6.836,12.633,0.372,-4.924,-1.691
585.0,-15.041,-6.836,12.633,0.372,-4.924,-1.691
589.0,-15.187,-7.369,12.347,0.365,-4.992,-1.875
593.0,-15.187,-7.369,12.347,0.365,-4.992,-1.875
597.0,-15.187,-7.369,12.347,0.365,-4.992,-1.875
601.0,-15.134,-8.311,12.034,0.411,-4.992,-2.071
605.0,-15.134,-8.311,12.034,0.411,-4.992,-2.071
609.0,-15.258,-9.788,11.983,0.511,-4.992,-2.31
613.0,-15.258,-9.788,11.983,0.511,-4.992,-2.31
617.0,-15.258,-9.788,12.105,0.511,-4.992,-2.31
621.0,-15.581,-11.151,12.105,0.692,-4.992,-2.595
626.0,-15.581,-11.151,12.105,0.692,-4.992,-2.595
630.0,-15.842,-11.804,12.212,0.977,-4.992,-2.888
634.0,-15.842,-11.804,12.212,0.977,-4.992,-2.888
638.0,-15.465,-11.73,11.9,1.335,-4.992,-3.141
642.0,-15.465,-11.73,11.9,1.335,-4.992,-3.141
646.0,-15.465,-11.73,11.9,1.335,-4.992,-3.141
651.0,-14.637,-11.365,11.572,1.718,-4.992,-3.331
655.0,-14.637,-11.365,11.572,1.718,-4.992,-3.331
659.0,-13.857,-10.979,11.19,2.123,-4.992,-3.471
663.0,-13.857,-10.979,11.19,2.123,-4.992,-3.471
667.0,-13.12,-10.281,10.521,2.123,-4.992,-3.554
671.0,-13.12,-10.281,10.521,2.578,-4.992,-3.554
676.0,-13.12,-10.281,10.521,2.578,-4.992,-3.554
680.0,-12.252,-9.359,9.907,3.068,-4.992,-3.561
684.0,-12.252,-9.359,9.907,3.068,-4.992,-3.561
688.0,-11.326,-8.422,9.576,3.547,-4.992,-3.512
692.0,-11.326,-8.422,9.576,3.547,-4.992,-3.512
696.0,-11.326,-8.422,9.576,3.547,-4.992,-3.512
700.0,-10.601,-7.895,9.541,3.963,-4.992,-3.437
704.0,-10.601,-7.895,9.541,3.963,-4.992,-3.437
708.0,-10.104,-7.366,9.377,4.298,-4.992,-3.366
712.0,-10.104,-7.366,9.377,4.298,-4.992,-3.366
716.0,-10.104,-7.366,9.377,4.298,-4.992,-3.366
720.0,-9.511,-6.725,8.919,4.563,-4.992,-3.279
724.0,-9.511,-6.725,8.919,4.563,-4.992,-3.279
728.0,-8.316,-6.109,8.382,4.765,-4.992,-3.161
731.0,-8.316,-6.109,8.382,4.765,-4.992,-3.161
735.0,-8.316,-6.109,8.382,4.765,-4.992,-3.161
739.0,-7.268,-5.487,7.805,4.898,-4.992,-3.018
743.0,-7.268,-5.487,7.805,4.898,-4.992,-3.018
747.0,-5.766,-4.929,7.357,4.982,-4.992,-2.873
751.0,-5.766,-4.929,7.357,4.982,-4.992,-2.873
755.0,-5.766,-4.929,7.357,4.982,-4.992,-2.873
759.0,-4.772,-4.294,6.845,4.995,-4.992,-2.737
763.0,-4.772,-4.294,6.845,4.995,-4.992,-2.737
767.0,-3.592,-3.645,6.537,4.995,-4.992,-2.615
771.0,-3.592,-3.645,6.537,4.995,-4.992,-2.615
774.0,-3.592,-3.645,6.537,4.995,-4.992,-2.615
778.0,-2.56,-3.391,6.383,4.995,-4.992,-2.514
782.0,-2.56,-3.391,6.383,4.995,-4.992,-2.514
786.0,-1.653,-3.104,6.109,4.995,-4.992,-2.441
790.0,-1.653,-3.104,6.109,4.995,-4.992,-2.441
794.0,-1.653,-3.104,6.109,4.995,-4.992,-2.441
798.0,-0.888,-2.682,5.875,4.994,-4.992,-2.376
802.0,-0.888,-2.682,5.875,4.994,-4.992,-2.376
806.0,-0.342,-2.186,5.667,4.994,-4.986,-2.313
810.0,-0.342,-2.186,5.667,4.992,-4.986,-2.313
813.0,-0.342,-2.186,5.667,4.992,-4.986,-2.313
817.0,0.198,-1.705,5.314,4.979,-4.854,-2.238
821.0,0.198,-1.705,5.314,4.979,-4.854,-2.238
825.0,0.61,-1.332,4.924,4.979,-4.854,-2.238
829.0,0.61,-1.332,4.924,4.948,-4.606,-2.15
833.0,0.61,-1.332,4.924,4.948,-4.606,-2.15
836.0,0.786,-0.854,4.373,4.909,-4.374,-2.05
840.0,0.786,-0.854,4.373,4.909,-4.374,-2.05
844.0,0.786,-0.854,4.373,4.909,-4.374,-2.05
848.0,0.79,-0.32,3.706,4.863,-4.166,-1.916
852.0,0.79,-0.32,3.706,4.863,-4.166,-1.916
856.0,1.017,-0.018,2.733,4.81,-3.959,-1.745
859.0,1.017,-0.018,2.733,4.81,-3.959,-1.745
863.0,1.017,-0.018,2.733,4.81,-3.959,-1.745
867.0,1.708,0.236,1.853,4.751,-3.721,-1.598
871.0,1.708,0.236,1.853,4.751,-3.721,-1.598
875.0,2.297,0.924,1.034,4.751,-3.721,-1.598
878.0,2.297,0.924,1.034,4.707,-3.455,-1.511
882.0,2.297,0.924,1.034,4.707,-3.455,-1.511
886.0,2.679,1.772,0.346,4.659,-3.177,-1.408
889.0,2.679,1.772,0.346,4.659,-3.177,-1.408
893.0,2.679,1.772,0.346,4.659,-3.177,-1.408
897.0,2.932,2.753,-0.273,4.583,-2.88,-1.254
901.0,2.932,2.753,-0.273,4.583,-2.88,-1.254
905.0,3.126,3.881,-1.009,4.583,-2.567,-1.065
908.0,3.126,3.881,-1.009,4.495,-2.567,-1.065
912.0,3.126,3.881,-1.009,4.495,-2.567,-1.065
916.0,3.362,5.135,-1.853,4.41,-2.249,-0.851
920.0,3.362,5.135,-1.853,4.41,-2.249,-0.851
924.0,3.362,6.668,-3.395,4.41,-2.249,-0.851
927.0,3.953,6.668,-3.395,4.326,-1.906,-0.607
931.0,3.953,6.668,-3.395,4.326,-1.906,-0.607
935.0,5.215,8.785,-5.938,4.251,-1.473,-0.303
939.0,5.215,8.785,-5.938,4.251,-1.473,-0.303
943.0,5.215,8.785,-5.938,4.251,-1.473,-0.303
947.0,7.033,11.034,-8.338,4.212,-0.889,0.092
950.0,7.033,11.034,-8.338,4.212,-0.889,0.092
954.0,7.921,12.871,-10.371,4.178,-0.141,0.573
958.0,7.921,12.871,-10.371,4.178,-0.141,0.573
962.0,7.921,12.871,-10.371,4.178,-0.141,0.573
966.0,9.61,15.004,-12.036,4.185,0.499,1.148
970.0,9.61,15.004,-12.036,4.185,0.499,1.148
974.0,10.54,16.945,-13.388,4.185,1.26,1.795
977.0,10.54,16.945,-13.388,4.098,1.26,1.795
981.0,10.54,16.945,-13.388,4.098,1.26,1.795
985.0,10.49,18.602,-13.481,3.847,2.079,2.501
989.0,10.49,18.602,-13.481,3.847,2.079,2.501
993.0,9.627,19.098,-12.83,3.847,2.079,3.196
997.0,9.627,19.098,-12.83,3.345,2.868,3.196
1001.0,9.627,19.098,-12.83,3.345,2.868,3.196
1005.0,8.068,18.503,-11.492,2.629,3.58,3.792
1009.0,8.068,18.503,-11.492,2.629,3.58,3.792
1012.0,8.068,17.087,-10.515,2.629,3.58,3.792
1016.0,6.06,17.087,-10.515,1.827,4.206,4.284
1020.0,6.06,17.087,-10.515,1.827,4.206,4.284
1024.0,3.362,14.72,-8.674,1.032,4.753,4.696
1028.0,3.362,14.72,-8.674,1.032,4.753,4.696
1032.0,3.362,14.72,-8.674,1.032,4.753,4.696
1036.0,-0.359,12.206,-6.278,0.24,5.005,4.968
1040.0,-0.359,12.206,-6.278,0.24,5.005,4.968
1043.0,-4.427,9.69,-3.94,-0.589,5.015,5.013
1047.0,-4.427,9.69,-3.94,-0.589,5.015,5.013
1051.0,-4.427,9.69,-3.94,-0.589,5.015,5.013
1055.0,-8.823,6.756,-0.773,-1.497,4.952,5.013
1059.0,-8.823,6.756,-0.773,-1.497,4.952,5.013
1063.0,-15.546,2.701,2.441,-2.491,4.492,4.932
1067.0,-15.546,2.701,2.441,-2.491,4.492,4.932
1071.0,-15.546,2.701,2.441,-2.491,4.492,4.932
1075.0,-19.573,-2.359,3.897,-3.428,3.575,4.329
1079.0,-19.573,-2.359,3.897,-3.428,3.575,4.329
1083.0,-19.6,-7.37,5.233,-4.106,2.411,3.246
1087.0,-19.6,-7.37,5.233,-4.106,2.411,3.246
1091.0,-19.6,-7.37,5.233,-4.106,2.411,3.246
1095.0,-18.608,-10.975,6.818,-4.41,1.131,1.931
1099.0,-18.608,-10.975,6.818,-4.41,1.131,1.931
1103.0,-12.751,-13.826,6.409,-4.337,-0.025,0.592
1107.0,-12.751,-13.826,6.409,-4.337,-0.025,0.592
1111.0,-12.751,-15.893,5.626,-4.337,-0.025,0.592
1115.0,-8.401,-15.893,5.626,-3.866,-0.826,-0.676
1119.0,-8.401,-15.893,5.626,-3.866,-0.826,-0.676
1124.0,-5.925,-16.83,5.179,-3.029,-1.316,-1.746
1128.0,-5.925,-16.83,5.179,-3.029,-1.316,-1.746
1132.0,-4.222,-16.91,5.15,-1.9,-1.621,-2.526
1136.0,-4.222,-16.91,5.15,-1.9,-1.621,-2.526
1140.0,-4.222,-16.91,5.15,-1.9,-1.621,-2.526
1144.0,-2.687,-16.119,4.997,-0.6,-1.839,-3.066
1149.0,-2.687,-16.119,4.997,-0.6,-1.839,-3.066
1153.0,-1.196,-14.071,4.352,0.714,-2.0,-3.459
1157.0,-1.196,-14.071,4.352,0.714,-2.0,-3.459
1161.0,-0.02,-11.073,3.397,0.714,-2.0,-3.756
1165.0,-0.02,-11.073,3.397,1.853,-2.124,-3.756
1169.0,-0.02,-11.073,3.397,1.853,-2.124,-3.756
1173.0,0.602,-7.745,2.344,2.68,-2.226,-3.981
1177.0,0.602,-7.745,2.344,2.68,-2.226,-3.981
1181.0,0.836,-4.424,1.436,3.17,-2.313,-4.129
1185.0,0.836,-4.424,1.436,3.17,-2.313,-4.129
1189.0,0.836,-4.424,1.436,3.17,-2.313,-4.129
1193.0,1.334,-1.394,0.715,3.383,-2.408,-4.193
1197.0,1.334,-1.394,0.715,3.383,-2.408,-4.193
1201.0,2.33,0.997,0.109,3.383,-2.505,-4.219
1204.0,2.33,0.997,0.109,3.401,-2.505,-4.219
1208.0,2.33,0.997,0.109,3.401,-2.505,-4.219
1212.0,3.774,3.108,-0.367,3.3,-2.591,-4.261
1216.0,3.774,3.108,-0.367,3.3,-2.591,-4.261
1220.0,5.341,5.305,-0.917,3.3,-2.591,-4.261
1224.0,5.341,5.305,-0.917,3.146,-2.65,-4.321
1228.0,5.341,5.305,-0.917,3.146,-2.65,-4.321
1232.0,6.478,7.187,-1.242,2.954,-2.704,-4.344
1235.0,6.478,7.187,-1.242,2.954,-2.704,-4.344
1239.0,6.478,7.187,-2.496,2.954,-2.704,-4.344
1243.0,7.414,9.343,-2.496,2.71,-2.756,-4.313
1247.0,7.414,9.343,-2.496,2.71,-2.756,-4.313
1251.0,8.302,11.492,-3.674,2.434,-2.754,-4.208
1255.0,8.302,11.492,-3.674,2.434,-2.754,-4.208
1259.0,8.302,11.492,-4.333,2.434,-2.754,-4.208
1263.0,8.812,13.275,-4.333,2.121,-2.685,-4.036
1267.0,8.812,13.275,-4.333,2.121,-2.685,-4.036
1271.0,9.229,15.319,-5.436,1.779,-2.588,-3.828
1275.0,9.229,15.319,-5.436,1.779,-2.588,-3.828
1279.0,9.604,17.178,-6.382,1.779,-2.588,-3.828
1283.0,9.604,17.178,-6.382,1.426,-2.464,-3.57
1287.0,9.604,17.178,-6.382,1.426,-2.464,-3.57
1291.0,10.23,19.044,-7.302,1.083,-2.293,-3.274
1295.0,10.23,19.044,-7.302,1.083,-2.293,-3.274
1299.0,11.605,19.595,-9.004,1.083,-2.293,-2.933
1303.0,11.605,19.595,-9.004,0.797,-2.049,-2.933
1307.0,11.605,19.595,-9.004,0.797,-2.049,-2.933
1311.0,13.235,19.596,-10.315,0.6,-1.689,-2.504
1316.0,13.235,19.596,-10.315,0.6,-1.689,-2.504
1320.0,14.327,19.596,-11.778,0.493,-1.257,-2.008
1324.0,14.327,19.596,-11.778,0.493,-1.257,-2.008
1328.0,14.327,19.596,-13.825,0.493,-1.257,-2.008
1332.0,15.241,19.58,-13.825,0.463,-0.732,-1.425
1336.0,15.241,19.58,-13.825,0.463,-0.732,-1.425
1341.0,15.82,19.595,-15.133,0.502,-0.071,-0.715
1345.0,15.82,19.595,-15.133,0.502,-0.071,-0.715
1349.0,16.077,19.596,-15.77,0.562,0.673,0.107
1353.0,16.077,19.596,-15.77,0.562,0.673,0.107
1357.0,16.077,19.596,-15.77,0.562,0.673,0.107
1361.0,15.902,19.596,-15.415,0.598,1.464,0.988
1365.0,15.902,19.596,-15.415,0.598,1.464,0.988
1369.0,15.331,19.596,-14.793,0.606,2.241,1.877
1373.0,15.331,19.596,-14.793,0.606,2.241,1.877
1377.0,15.331,19.596,-14.793,0.606,2.241,1.877
1381.0,14.609,19.596,-14.346,0.563,2.98,2.744
1385.0,14.609,19.596,-14.346,0.563,2.98,2.744
1389.0,13.797,19.596,-13.761,0.454,3.683,3.597
1393.0,13.797,19.596,-13.761,0.454,3.683,3.597
1397.0,13.797,19.596,-13.761,0.454,3.683,3.597
1401.0,12.724,19.596,-12.642,0.256,4.336,4.42
1405.0,12.724,19.596,-12.642,0.256,4.336,4.42
1409.0,11.49,19.596,-11.865,-0.026,4.871,4.954
1413.0,11.49,19.596,-11.865,-0.026,4.871,4.954
1417.0,11.49,19.596,-10.415,-0.026,4.871,4.954
1421.0,9.642,19.596,-10.415,-0.383,5.015,5.013
1425.0,9.642,19.596,-10.415,-0.383,5.015,5.013
1429.0,7.098,18.382,-8.359,-0.793,5.015,5.013
1433.0,7.098,18.382,-8.359,-0.793,5.015,5.013
1437.0,7.098,15.182,-6.004,-0.793,5.015,5.013
1441.0,3.367,15.182,-6.004,-1.238,5.015,5.013
1445.0,3.367,15.182,-6.004,-1.238,5.015,5.013
1449.0,-2.212,11.78,-3.026,-1.745,5.015,5.013
1453.0,-2.212,11.78,-3.026,-1.745,5.015,5.013
1457.0,-2.212,8.665,0.215,-1.745,5.015,5.013
1460.0,-8.128,8.665,0.215,-2.38,5.015,5.013
1464.0,-8.128,8.665,0.215,-2.38,5.015,5.013
1468.0,-14.735,6.143,3.584,-3.133,5.015,5.013
1472.0,-14.735,6.143,3.584,-3.133,5.015,5.013
1476.0,-14.735,6.143,3.584,-3.133,5.015,5.013
1480.0,-19.554,2.026,6.433,-3.951,4.995,5.013
1484.0,-19.554,2.026,6.433,-3.951,4.995,5.013
1488.0,-19.6,-4.0,4.792,-4.725,4.373,5.013
1492.0,-19.6,-4.0,4.792,-4.725,4.373,5.013
1496.0,-19.6,-4.0,4.792,-4.725,4.373,5.013
1500.0,-19.6,-8.844,5.559,-5.009,3.026,4.821
1503.0,-19.6,-8.844,5.559,-5.009,3.026,4.821
1507.0,-17.483,-10.453,3.715,-5.013,1.66,3.866
1512.0,-17.483,-10.453,3.715,-5.013,1.66,3.866
1516.0,-17.483,-10.453,1.619,-5.013,1.66,3.866
1520.0,-11.165,-12.147,1.619,-5.013,0.643,2.683
1524.0,-11.165,-12.147,1.619,-5.013,0.643,2.683
1528.0,-7.205,-13.768,1.887,-4.93,-0.147,1.341
1532.0,-7.205,-13.768,1.887,-4.93,-0.147,1.341
1536.0,-4.12,-14.174,3.182,-4.93,-0.147,0.066
1540.0,-4.12,-14.174,3.182,-4.256,-0.791,0.066
1544.0,-4.12,-14.174,3.182,-4.256,-0.791,0.066
1548.0,-1.414,-13.226,3.814,-3.175,-1.214,-0.909
1552.0,-1.414,-13.226,3.814,-3.175,-1.214,-0.909
1557.0,1.335,-11.115,3.288,-1.97,-1.418,-1.539
1561.0,1.335,-11.115,3.288,-1.97,-1.418,-1.539
1565.0,1.335,-11.115,3.288,-1.97,-1.418,-1.539
1569.0,4.234,-8.384,2.348,-0.811,-1.386,-1.856
1573.0,4.234,-8.384,2.348,-0.811,-1.386,-1.856
1577.0,7.009,-5.774,1.513,0.185,-1.175,-1.913
1581.0,7.009,-5.774,1.513,0.185,-1.175,-1.913
1585.0,7.009,-5.774,0.993,0.185,-1.175,-1.913
1589.0,10.091,-3.779,0.993,0.986,-0.891,-1.815
1593.0,10.091,-3.779,0.993,0.986,-0.891,-1.815
1597.0,13.424,-1.895,0.97,1.622,-0.548,-1.66
1601.0,13.424,-1.895,0.97,1.622,-0.548,-1.66
1605.0,13.424,-1.895,0.841,1.622,-0.548,-1.66
1609.0,16.421,0.098,0.841,2.133,-0.187,-1.447
1612.0,16.421,0.098,0.841,2.133,-0.187,-1.447
1616.0,17.426,1.978,0.637,2.519,0.204,-1.156
1620.0,17.426,1.978,0.637,2.519,0.204,-1.156
1624.0,17.426,1.978,0.637,2.519,0.204,-1.156
1628.0,16.365,3.534,0.908,2.767,0.604,-0.795
1632.0,16.365,3.534,0.908,2.767,0.604,-0.795
1635.0,14.562,4.479,1.634,2.887,0.922,-0.403
1639.0,14.562,4.479,1.634,2.887,0.922,-0.403
1643.0,14.562,4.479,1.634,2.887,0.922,-0.403
1647.0,12.754,5.089,2.543,2.895,1.105,-0.073
1651.0,12.754,5.089,2.543,2.895,1.105,-0.073
1655.0,11.087,5.572,3.285,2.895,1.162,0.145
1658.0,11.087,5.572,3.285,2.794,1.162,0.145
1662.0,11.087,5.572,3.285,2.794,1.162,0.145
1666.0,9.806,5.897,3.76,2.584,1.124,0.262
1669.0,9.806,5.897,3.76,2.584,1.124,0.262
1673.0,9.806,5.897,3.76,2.584,1.124,0.262
1677.0,8.912,6.151,4.06,2.274,1.03,0.299
1680.0,8.912,6.151,4.06,2.274,1.03,0.299
1684.0,8.329,6.245,4.292,2.274,1.03,0.282
1688.0,8.329,6.245,4.292,1.869,0.919,0.282
1691.0,8.329,6.245,4.292,1.869,0.919,0.282
1695.0,8.018,6.103,4.442,1.392,0.806,0.24
1699.0,8.018,6.103,4.442,1.392,0.806,0.24
1702.0,8.018,6.103,4.442,1.392,0.806,0.24
1706.0,7.819,5.736,4.589,0.89,0.704,0.185
1709.0,7.819,5.736,4.589,0.89,0.704,0.185
1713.0,7.819,5.736,4.762,0.89,0.704,0.185
1717.0,7.691,5.232,4.762,0.409,0.608,0.124
1720.0,7.691,5.232,4.762,0.409,0.608,0.124
1724.0,7.659,4.589,4.964,-0.014,0.512,0.071
1728.0,7.659,4.589,4.964,-0.014,0.512,0.071
1732.0,7.659,4.589,4.964,-0.014,0.512,0.071
1735.0,7.418,4.022,5.136,-0.363,0.423,0.02
1739.0,7.418,4.022,5.136,-0.363,0.423,0.02
1743.0,7.418,4.022,5.136,-0.363,0.423,0.02
1746.0,7.064,3.471,5.136,-0.635,0.338,-0.014
1750.0,7.064,3.471,5.136,-0.635,0.338,-0.014
1754.0,6.941,2.9,5.024,-0.832,0.249,-0.042
1758.0,6.941,2.9,5.024,-0.832,0.249,-0.042
1762.0,6.941,2.9,5.024,-0.832,0.249,-0.042
1766.0,6.884,2.491,5.013,-0.955,0.164,-0.089
1769.0,6.884,2.491,5.013,-0.955,0.164,-0.089
1773.0,6.799,2.163,4.886,-1.015,0.085,-0.143
1777.0,6.799,2.163,4.886,-1.015,0.085,-0.143
1781.0,6.799,2.163,4.886,-1.015,0.085,-0.143
1785.0,6.748,1.957,4.619,-1.022,0.032,-0.191
1788.0,6.748,1.957,4.619,-1.022,0.032,-0.191
1792.0,6.879,1.859,4.325,-1.022,0.032,-0.191
1796.0,6.879,1.859,4.325,-0.98,-0.0,-0.233
1800.0,6.879,1.859,4.325,-0.98,-0.0,-0.233
1804.0,7.147,1.622,4.195,-0.896,-0.023,-0.281
1808.0,7.147,1.622,4.195,-0.896,-0.023,-0.281
1812.0,7.147,1.622,4.211,-0.896,-0.023,-0.281
1816.0,7.379,1.234,4.211,-0.781,-0.042,-0.347
1820.0,7.379,1.234,4.211,-0.781,-0.042,-0.347
1823.0,7.449,0.983,4.236,-0.647,-0.062,-0.438
1827.0,7.449,0.983,4.236,-0.647,-0.062,-0.438
1831.0,7.449,0.983,4.236,-0.647,-0.062,-0.438
1835.0,7.419,0.889,4.028,-0.496,-0.084,-0.53
1839.0,7.419,0.889,4.028,-0.496,-0.084,-0.53
1843.0,7.46,0.795,3.747,-0.332,-0.098,-0.626
1847.0,7.46,0.795,3.747,-0.332,-0.098,-0.626
1851.0,7.46,0.795,3.747,-0.332,-0.098,-0.626
1855.0,7.399,0.824,3.589,-0.176,-0.107,-0.744
1859.0,7.399,0.824,3.589,-0.176,-0.107,-0.744
1863.0,7.034,0.833,3.336,-0.051,-0.12,-0.883
1866.0,7.034,0.833,3.336,-0.051,-0.12,-0.883
1870.0,7.034,0.833,3.336,-0.051,-0.12,-0.883
1874.0,6.67,0.763,2.958,0.035,-0.135,-1.042
1878.0,6.67,0.763,2.958,0.035,-0.135,-1.042
1882.0,6.654,0.769,2.752,0.096,-0.118,-1.244
1886.0,6.654,0.769,2.752,0.096,-0.118,-1.244
1890.0,6.654,0.769,2.752,0.096,-0.118,-1.244
1893.0,6.929,0.939,3.087,0.145,-0.061,-1.473
1897.0,6.929,0.939,3.087,0.145,-0.061,-1.473
1901.0,7.228,1.369,3.41,0.145,-0.061,-1.473
1905.0,7.228,1.369,3.41,0.193,0.007,-1.659
1909.0,7.228,1.369,3.41,0.193,0.007,-1.659
1912.0,7.395,1.945,3.82,0.28,0.08,-1.741
1916.0,7.395,1.945,3.82,0.28,0.08,-1.741
1920.0,7.395,1.945,3.82,0.28,0.08,-1.741
1923.0,7.584,2.41,4.2,0.422,0.136,-1.717
1927.0,7.584,2.41,4.2,0.422,0.136,-1.717
1931.0,7.489,2.558,4.521,0.422,0.177,-1.633
1935.0,7.489,2.558,4.521,0.599,0.177,-1.633
1938.0,7.489,2.558,4.521,0.599,0.177,-1.633
1942.0,7.135,2.499,4.758,0.794,0.19,-1.547
1946.0,7.135,2.499,4.758,0.794,0.19,-1.547
1950.0,7.135,2.499,4.758,0.794,0.19,-1.547
1953.0,6.681,2.503,4.84,0.997,0.166,-1.498
1957.0,6.681,2.503,4.84,0.997,0.166,-1.498
1961.0,6.189,2.706,4.813,1.188,0.115,-1.496
1965.0,6.189,2.706,4.813,1.188,0.115,-1.496
1968.0,6.189,2.706,4.813,1.188,0.115,-1.496
1972.0,5.748,3.407,4.714,1.35,0.049,-1.518
1976.0,5.748,3.407,4.714,1.35,0.049,-1.518
1979.0,5.748,3.407,4.714,1.35,0.049,-1.518
1983.0,5.653,4.573,4.562,1.493,-0.01,-1.504
1987.0,5.653,4.573,4.562,1.493,-0.01,-1.504
1991.0,6.354,5.615,4.461,1.629,-0.068,-1.409
1995.0,6.354,5.615,4.461,1.629,-0.068,-1.409
1998.0,6.354,5.615,4.461,1.629,-0.068,-1.409
2002.0,7.552,6.57,4.438,1.744,-0.114,-1.271
2006.0,7.552,6.57,4.438,1.744,-0.114,-1.271
2010.0,8.681,7.412,4.402,1.744,-0.141,-1.109
2014.0,8.681,7.412,4.402,1.81,-0.141,-1.109
2018.0,8.681,7.412,4.402,1.81,-0.141,-1.109
2021.0,9.187,8.073,4.359,1.811,-0.135,-0.944
2025.0,9.187,8.073,4.359,1.811,-0.135,-0.944
2029.0,9.187,8.073,4.399,1.811,-0.135,-0.944
2033.0,8.983,8.509,4.399,1.749,-0.098,-0.792
2037.0,8.983,8.509,4.399,1.749,-0.098,-0.792
2040.0,8.442,8.741,4.414,1.639,-0.06,-0.666
2044.0,8.442,8.741,4.414,1.639,-0.06,-0.666
2048.0,8.442,8.741,4.414,1.639,-0.06,-0.666
2052.0,8.058,8.974,4.366,1.492,-0.036,-0.566
2056.0,8.058,8.974,4.366,1.492,-0.036,-0.566
2060.0,7.842,9.072,4.352,1.322,-0.021,-0.483
2063.0,7.842,9.072,4.352,1.322,-0.021,-0.483
2067.0,7.842,9.072,4.352,1.322,-0.021,-0.483
2071.0,7.711,8.932,4.225,1.132,-0.02,-0.408
2075.0,7.711,8.932,4.225,1.132,-0.02,-0.408
2079.0,7.533,8.627,4.014,1.132,-0.02,-0.408
2082.0,7.533,8.627,4.014,0.921,-0.02,-0.35
2086.0,7.533,8.627,4.014,0.921,-0.02,-0.35
2090.0,7.329,8.492,3.903,0.705,-0.014,-0.329
2094.0,7.329,8.492,3.903,0.705,-0.014,-0.329
2098.0,7.329,8.492,3.903,0.705,-0.014,-0.329
2102.0,7.139,8.651,3.856,0.49,-0.021,-0.332
2105.0,7.139,8.651,3.856,0.49,-0.021,-0.332
2109.0,7.074,8.843,3.794,0.271,-0.052,-0.315
2113.0,7.074,8.843,3.794,0.271,-0.052,-0.315
2117.0,7.074,8.843,3.794,0.271,-0.052,-0.315
2121.0,7.205,8.894,3.688,0.047,-0.075,-0.27
2124.0,7.205,8.894,3.688,0.047,-0.075,-0.27
2128.0,7.228,8.734,3.607,0.047,-0.074,-0.212
2132.0,7.228,8.734,3.607,-0.174,-0.074,-0.212
2136.0,7.228,8.734,3.607,-0.174,-0.074,-0.212
2140.0,7.131,8.393,3.528,-0.378,-0.066,-0.144
2144.0,7.131,8.393,3.528,-0.378,-0.066,-0.144
2148.0,6.997,7.938,3.479,-0.378,-0.066,-0.144
2152.0,6.997,7.938,3.479,-0.554,-0.059,-0.079
2156.0,6.997,7.938,3.479,-0.554,-0.059,-0.079
2159.0,6.868,7.467,3.474,-0.693,-0.051,-0.035
2163.0,6.868,7.467,3.474,-0.693,-0.051,-0.035
2167.0,6.868,7.05,3.576,-0.693,-0.051,-0.035
2171.0,6.675,7.05,3.576,-0.789,-0.041,-0.01
2175.0,6.675,7.05,3.576,-0.789,-0.041,-0.01
2179.0,6.571,6.652,3.684,-0.84,-0.037,0.011
2183.0,6.571,6.652,3.684,-0.84,-0.037,0.011
2187.0,6.571,6.652,3.684,-0.84,-0.037,0.011
2190.0,6.677,6.356,3.665,-0.843,-0.039,0.021
2194.0,6.677,6.356,3.665,-0.843,-0.039,0.021
2198.0,6.773,6.193,3.59,-0.807,-0.028,0.028
2202.0,6.773,6.193,3.59,-0.807,-0.028,0.028
2206.0,6.773,6.193,3.59,-0.807,-0.028,0.028
2210.0,6.809,5.985,3.599,-0.74,-0.006,0.05
2213.0,6.809,5.985,3.599,-0.74,-0.006,0.05
2217.0,6.785,5.753,3.662,-0.74,0.012,0.088
2221.0,6.785,5.753,3.662,-0.649,0.012,0.088
2225.0,6.785,5.753,3.662,-0.649,0.012,0.088
2228.0,6.653,5.51,3.696,-0.534,0.021,0.131
2232.0,6.653,5.51,3.696,-0.534,0.021,0.131
2236.0,6.653,5.51,3.696,-0.534,0.021,0.131
2240.0,6.554,5.233,3.684,-0.403,0.023,0.172
2243.0,6.554,5.233,3.684,-0.403,0.023,0.172
2247.0,6.538,5.019,3.715,-0.264,0.021,0.198
2251.0,6.538,5.019,3.715,-0.264,0.021,0.198
2255.0,6.538,5.019,3.715,-0.264,0.021,0.198
2258.0,6.531,4.939,3.714,-0.127,0.014,0.201
2262.0,6.531,4.939,3.714,-0.127,0.014,0.201
2266.0,6.531,4.939,3.662,-0.127,0.014,0.201
2269.0,6.605,4.963,3.662,0.001,0.009,0.191
2273.0,6.605,4.963,3.662,0.001,0.009,0.191
2277.0,6.677,5.078,3.617,0.112,0.021,0.172
2280.0,6.677,5.078,3.617,0.112,0.021,0.172
2284.0,6.677,5.078,3.617,0.112,0.021,0.172
2288.0,6.706,5.251,3.648,0.203,0.044,0.148
2291.0,6.706,5.251,3.648,0.203,0.044,0.148
2295.0,6.706,5.251,3.648,0.203,0.044,0.148
2299.0,6.662,5.382,3.709,0.276,0.065,0.129
2302.0,6.662,5.382,3.709,0.276,0.065,0.129
2306.0,6.608,5.46,3.716,0.276,0.065,0.112
2310.0,6.608,5.46,3.716,0.329,0.077,0.112
2313.0,6.608,5.46,3.716,0.329,0.077,0.112
2317.0,6.564,5.507,3.659,0.365,0.081,0.094
2321.0,6.564,5.507,3.659,0.365,0.081,0.094
2324.0,6.564,5.507,3.659,0.365,0.081,0.094
2328.0,6.522,5.509,3.581,0.389,0.082,0.067
2331.0,6.522,5.509,3.581,0.389,0.082,0.067
2335.0,6.522,5.545,3.55,0.389,0.082,0.067
2339.0,6.436,5.545,3.55,0.403,0.086,0.026
2342.0,6.436,5.545,3.55,0.403,0.086,0.026
2346.0,6.368,5.644,3.538,0.408,0.087,-0.017
2350.0,6.368,5.644,3.538,0.408,0.087,-0.017
2353.0,6.368,5.644,3.538,0.408,0.087,-0.017
2357.0,6.334,5.752,3.623,0.403,0.091,-0.054
2361.0,6.334,5.752,3.623,0.403,0.091,-0.054
2365.0,6.334,5.83,3.725,0.403,0.091,-0.054
2368.0,6.257,5.83,3.725,0.39,0.097,-0.079
2372.0,6.257,5.83,3.725,0.39,0.097,-0.079
2376.0,6.232,5.935,3.857,0.374,0.093,-0.09
2380.0,6.232,5.935,3.857,0.374,0.093,-0.09
2383.0,6.232,5.935,3.857,0.374,0.093,-0.09
2387.0,6.232,6.044,3.936,0.364,0.081,-0.098
2391.0,6.232,6.044,3.936,0.364,0.081,-0.098
2395.0,6.262,6.146,3.971,0.364,0.081,-0.098
2398.0,6.262,6.146,3.971,0.357,0.058,-0.098
2402.0,6.262,6.146,3.971,0.357,0.058,-0.098
2406.0,6.336,6.216,3.865,0.349,0.035,-0.086
2409.0,6.336,6.216,3.865,0.349,0.035,-0.086
2413.0,6.336,6.216,3.865,0.349,0.035,-0.086
2417.0,6.552,6.259,3.721,0.337,0.019,-0.065
2421.0,6.552,6.259,3.721,0.337,0.019,-0.065
2424.0,6.718,6.294,3.602,0.337,0.021,-0.044
2428.0,6.718,6.294,3.602,0.322,0.021,-0.044
2432.0,6.718,6.294,3.602,0.322,0.021,-0.044
2436.0,6.802,6.333,3.501,0.297,0.023,-0.017
2439.0,6.802,6.333,3.501,0.297,0.023,-0.017
2443.0,6.802,6.333,3.501,0.297,0.023,-0.017
2447.0,6.912,6.378,3.502,0.265,0.021,0.002
2450.0,6.912,6.378,3.502,0.265,0.021,0.002
2454.0,6.987,6.464,3.582,0.265,0.018,-0.004
2458.0,6.987,6.464,3.582,0.228,0.018,-0.004
2462.0,6.987,6.464,3.582,0.228,0.018,-0.004
2465.0,6.912,6.607,3.644,0.182,0.019,-0.017
2469.0,6.912,6.607,3.644,0.182,0.019,-0.017
2473.0,6.912,6.607,3.644,0.182,0.019,-0.017
2476.0,6.884,6.75,3.653,0.137,0.026,-0.014
2480.0,6.884,6.75,3.653,0.137,0.026,-0.014
2484.0,6.953,6.811,3.709,0.104,0.033,-0.001
2488.0,6.953,6.811,3.709,0.104,0.033,-0.001
2491.0,6.953,6.811,3.709,0.104,0.033,-0.001
2495.0,7.015,6.796,3.702,0.079,0.034,0.019
2499.0,7.015,6.796,3.702,0.079,0.034,0.019
2502.0,7.015,6.796,3.702,0.079,0.034,0.019
2506.0,6.945,6.692,3.619,0.061,0.038,0.044
2510.0,6.945,6.692,3.619,0.061,0.038,0.044
2513.0,6.846,6.564,3.572,0.061,0.043,0.071
2517.0,6.846,6.564,3.572,0.05,0.043,0.071
2521.0,6.846,6.564,3.572,0.05,0.043,0.071
2524.0,6.681,6.457,3.532,0.055,0.044,0.091
2528.0,6.681,6.457,3.532,0.055,0.044,0.091
2532.0,6.681,6.457,3.532,0.055,0.044,0.091
2535.0,6.593,6.393,3.462,0.069,0.032,0.11
2539.0,6.593,6.393,3.462,0.069,0.032,0.11
2543.0,6.596,6.345,3.385,0.069,0.032,0.11
2546.0,6.596,6.345,3.385,0.085,0.012,0.13
2550.0,6.596,6.345,3.385,0.085,0.012,0.13
2553.0,6.572,6.336,3.35,0.1,-0.008,0.156
2557.0,6.572,6.336,3.35,0.1,-0.008,0.156
2561.0,6.572,6.336,3.35,0.1,-0.008,0.156
2565.0,6.419,6.307,3.349,0.104,-0.029,0.184
2568.0,6.419,6.307,3.349,0.104,-0.029,0.184
2572.0,6.187,6.266,3.355,0.104,-0.029,0.184
2576.0,6.187,6.266,3.355,0.092,-0.055,0.217
2580.0,6.187,6.266,3.355,0.092,-0.055,0.217
2583.0,6.038,6.16,3.373,0.065,-0.088,0.242
2587.0,6.038,6.16,3.373,0.065,-0.088,0.242
2591.0,6.038,6.16,3.373,0.065,-0.088,0.242
2595.0,6.092,6.07,3.291,0.027,-0.124,0.246
2598.0,6.092,6.07,3.291,0.027,-0.124,0.246
2602.0,6.221,6.011,3.145,0.027,-0.124,0.232
2606.0,6.221,6.011,3.145,-0.022,-0.148,0.232
2610.0,6.221,6.011,3.145,-0.022,-0.148,0.232
2613.0,6.416,5.959,3.033,-0.076,-0.158,0.209
2617.0,6.416,5.959,3.033,-0.076,-0.158,0.209
2621.0,6.416,5.959,3.033,-0.076,-0.158,0.209
2625.0,6.643,5.937,2.962,-0.121,-0.163,0.178
2629.0,6.643,5.937,2.962,-0.121,-0.163,0.178
2632.0,6.842,5.937,2.904,-0.152,-0.162,0.148
2636.0,6.842,5.937,2.904,-0.152,-0.162,0.148
2640.0,6.842,5.937,2.904,-0.152,-0.162,0.148
2644.0,6.921,5.915,2.845,-0.172,-0.153,0.126
2648.0,6.921,5.915,2.845,-0.172,-0.153,0.126
2652.0,6.989,5.8,2.787,-0.172,-0.136,0.113
2655.0,6.989,5.8,2.787,-0.179,-0.136,0.113
2659.0,6.989,5.8,2.787,-0.179,-0.136,0.113
2663.0,7.073,5.627,2.788,-0.172,-0.107,0.092
2667.0,7.073,5.627,2.788,-0.172,-0.107,0.092
2671.0,7.073,5.467,2.836,-0.172,-0.107,0.092
2674.0,7.108,5.467,2.836,-0.152,-0.076,0.066
2678.0,7.108,5.467,2.836,-0.152,-0.076,0.066
2682.0,7.049,5.375,2.946,-0.122,-0.048,0.036
2686.0,7.049,5.375,2.946,-0.122,-0.048,0.036
2690.0,7.049,5.375,2.946,-0.122,-0.048,0.036
2694.0,6.974,5.371,3.087,-0.073,-0.023,0.012
2697.0,6.974,5.371,3.087,-0.073,-0.023,0.012
2701.0,6.935,5.431,3.26,-0.006,-0.001,-0.002
2705.0,6.935,5.431,3.26,-0.006,-0.001,-0.002
2709.0,6.935,5.431,3.26,-0.006,-0.001,-0.002
2713.0,6.86,5.528,3.471,0.074,0.013,0.004
2717.0,6.86,5.528,3.471,0.074,0.013,0.004
2720.0,6.789,5.565,3.513,0.074,0.013,0.004
2724.0,6.789,5.565,3.513,0.166,0.016,0.035
2728.0,6.789,5.565,3.513,0.166,0.016,0.035
2731.0,6.832,5.515,3.392,0.259,0.016,0.078
2735.0,6.832,5.515,3.392,0.259,0.016,0.078
2738.0,6.832,5.515,3.392,0.259,0.016,0.078
2742.0,6.878,5.529,3.263,0.342,0.017,0.113
2746.0,6.878,5.529,3.263,0.342,0.017,0.113
2749.0,6.878,5.529,3.109,0.342,0.017,0.113
2753.0,6.942,5.62,3.109,0.406,0.02,0.132
2757.0,6.942,5.62,3.109,0.406,0.02,0.132
2760.0,7.004,5.743,2.989,0.449,0.028,0.143
2764.0,7.004,5.743,2.989,0.449,0.028,0.143
2768.0,7.004,5.743,2.989,0.449,0.028,0.143
2771.0,7.094,5.859,2.908,0.47,0.037,0.145
2775.0,7.094,5.859,2.908,0.47,0.037,0.145
2779.0,7.094,5.859,2.908,0.47,0.037,0.145
2782.0,7.18,5.927,2.793,0.473,0.043,0.137
2786.0,7.18,5.927,2.793,0.473,0.043,0.137
2790.0,7.277,6.089,2.735,0.473,0.043,0.121
2793.0,7.277,6.089,2.735,0.465,0.052,0.121
2797.0,7.277,6.089,2.735,0.465,0.052,0.121
2800.0,7.334,6.246,2.765,0.444,0.062,0.11
2804.0,7.334,6.246,2.765,0.444,0.062,0.11
2808.0,7.334,6.246,2.765,0.444,0.062,0.11
2811.0,7.342,6.352,2.825,0.41,0.066,0.119
2815.0,7.342,6.352,2.825,0.41,0.066,0.119
2819.0,7.342,6.311,2.831,0.41,0.066,0.119
2822.0,7.309,6.311,2.831,0.363,0.067,0.14
2826.0,7.309,6.311,2.831,0.363,0.067,0.14
2830.0,7.22,6.191,2.813,0.308,0.068,0.157
2833.0,7.22,6.191,2.813,0.308,0.068,0.157
2837.0,7.22,6.191,2.813,0.308,0.068,0.157
2841.0,7.168,6.05,2.794,0.248,0.07,0.164
2844.0,7.168,6.05,2.794,0.248,0.07,0.164
2848.0,7.168,6.05,2.794,0.248,0.07,0.164
2851.0,7.049,5.901,2.725,0.184,0.074,0.165
2855.0,7.049,5.901,2.725,0.184,0.074,0.165
2859.0,6.986,5.802,2.685,0.184,0.072,0.163
2862.0,6.986,5.802,2.685,0.121,0.072,0.163
2866.0,6.986,5.802,2.685,0.121,0.072,0.163
2870.0,7.039,5.78,2.673,0.066,0.065,0.152
2873.0,7.039,5.78,2.673,0.066,0.065,0.152
2877.0,7.039,5.78,2.673,0.066,0.065,0.152
2881.0,7.181,5.801,2.606,0.019,0.058,0.136
2884.0,7.181,5.801,2.606,0.019,0.058,0.136
2888.0,7.283,5.859,2.508,0.019,0.058,0.136
2892.0,7.283,5.859,2.508,-0.025,0.052,0.121
2895.0,7.283,5.859,2.508,-0.025,0.052,0.121
2899.0,7.475,5.882,2.478,-0.062,0.044,0.108
2903.0,7.475,5.882,2.478,-0.062,0.044,0.108
2907.0,7.475,5.882,2.478,-0.062,0.044,0.108
2910.0,7.757,5.925,2.518,-0.085,0.045,0.081
2914.0,7.757,5.925,2.518,-0.085,0.045,0.081
2918.0,7.893,5.972,2.594,-0.085,0.045,0.081
2921.0,7.893,5.972,2.594,-0.099,0.057,0.052
2925.0,7.893,5.972,2.594,-0.099,0.057,0.052
2929.0,7.825,5.938,2.6,-0.104,0.072,0.048
2933.0,7.825,5.938,2.6,-0.104,0.072,0.048
2936.0,7.825,5.938,2.6,-0.104,0.072,0.048
2940.0,7.756,5.777,2.515,-0.1,0.086,0.063
2944.0,7.756,5.777,2.515,-0.1,0.086,0.063
2948.0,7.759,5.57,2.431,-0.1,0.103,0.07
2951.0,7.759,5.57,2.431,-0.087,0.103,0.07
2955.0,7.759,5.57,2.431,-0.087,0.103,0.07
2959.0,7.692,5.404,2.432,-0.068,0.126,0.06
2963.0,7.692,5.404,2.432,-0.068,0.126,0.06
2966.0,7.692,5.404,2.432,-0.068,0.126,0.06
2970.0,7.524,5.222,2.503,-0.045,0.148,0.052
2974.0,7.524,5.222,2.503,-0.045,0.148,0.052
2977.0,7.322,5.045,2.546,-0.016,0.154,0.056
2981.0,7.322,5.045,2.546,-0.016,0.154,0.056
2985.0,7.322,5.045,2.546,-0.016,0.154,0.056
2989.0,7.199,4.939,2.514,0.02,0.148,0.052
2992.0,7.199,4.939,2.514,0.02,0.148,0.052
2996.0,7.199,4.939,2.514,0.02,0.148,0.052
3000.0,7.11,4.911,2.525,0.062,0.143,0.04
