deltaTime,Acc_X,Acc_Y,Acc_Z,Gyro_X,Gyro_Y,Gyro_Z
0.0,-8.844,-5.206,5.347,-0.252,-0.008,0.676
3.0,-8.844,-5.206,5.347,-0.252,-0.008,0.676
6.0,-8.879,-5.922,5.62,-0.252,-0.008,0.613
9.0,-8.879,-5.922,5.62,-0.198,-0.059,0.613
12.0,-8.879,-5.922,5.62,-0.198,-0.059,0.613
15.0,-8.879,-5.922,5.62,-0.198,-0.059,0.613
18.0,-8.618,-6.8,5.689,-0.019,-0.123,0.501
21.0,-8.618,-6.8,5.689,-0.019,-0.123,0.501
24.0,-8.618,-6.8,5.689,-0.019,-0.123,0.501
27.0,-8.127,-6.864,5.588,0.333,-0.177,0.378
30.0,-8.127,-6.864,5.588,0.333,-0.177,0.378
33.0,-8.127,-6.864,5.588,0.333,-0.177,0.378
37.0,-7.869,-6.148,5.234,0.747,-0.212,0.256
40.0,-7.869,-6.148,5.234,0.747,-0.212,0.256
44.0,-7.869,-6.148,5.234,0.747,-0.212,0.256
48.0,-7.622,-5.006,4.795,1.067,-0.212,0.177
52.0,-7.622,-5.006,4.795,1.067,-0.212,0.177
55.0,-7.332,-3.8,4.391,1.067,-0.212,0.128
59.0,-7.332,-3.8,4.391,1.219,-0.169,0.128
63.0,-7.332,-3.8,4.391,1.219,-0.169,0.128
66.0,-7.055,-3.221,4.189,1.211,-0.126,0.121
70.0,-7.055,-3.221,4.189,1.211,-0.126,0.121
74.0,-7.055,-3.221,4.189,1.211,-0.126,0.121
78.0,-7.072,-3.13,4.177,1.13,-0.09,0.173
81.0,-7.072,-3.13,4.177,1.13,-0.09,0.173
85.0,-7.405,-2.933,4.449,0.997,-0.068,0.235
89.0,-7.405,-2.933,4.449,0.997,-0.068,0.235
93.0,-7.405,-2.933,4.449,0.997,-0.068,0.235
96.0,-7.799,-2.871,4.779,0.778,-0.061,0.278
100.0,-7.799,-2.871,4.779,0.778,-0.061,0.278
104.0,-7.799,-2.871,5.036,0.778,-0.061,0.278
108.0,-7.82,-2.904,5.036,0.508,-0.094,0.305
112.0,-7.82,-2.904,5.036,0.508,-0.094,0.305
115.0,-7.747,-2.786,5.187,0.201,-0.138,0.305
119.0,-7.747,-2.786,5.187,0.201,-0.138,0.305
123.0,-7.747,-2.786,5.187,0.201,-0.138,0.305
127.0,-7.731,-2.673,5.158,-0.146,-0.183,0.271
131.0,-7.731,-2.673,5.158,-0.146,-0.183,0.271
135.0,-7.721,-2.804,4.967,-0.491,-0.216,0.226
139.0,-7.721,-2.804,4.967,-0.491,-0.216,0.226
142.0,-7.721,-2.804,4.967,-0.491,-0.216,0.226
146.0,-7.75,-2.966,4.801,-0.768,-0.221,0.197
150.0,-7.75,-2.966,4.801,-0.768,-0.221,0.197
154.0,-7.622,-3.113,4.714,-0.768,-0.201,0.196
158.0,-7.622,-3.113,4.714,-0.964,-0.201,0.196
162.0,-7.622,-3.113,4.714,-0.964,-0.201,0.196
166.0,-7.456,-3.248,4.735,-1.092,-0.17,0.208
170.0,-7.456,-3.248,4.735,-1.092,-0.17,0.208
174.0,-7.353,-3.367,4.915,-1.092,-0.17,0.216
178.0,-7.353,-3.367,4.915,-1.17,-0.136,0.216
181.0,-7.353,-3.367,4.915,-1.17,-0.136,0.216
185.0,-7.403,-3.32,5.191,-1.228,-0.105,0.213
189.0,-7.403,-3.32,5.191,-1.228,-0.105,0.213
193.0,-7.633,-3.293,5.563,-1.228,-0.105,0.213
197.0,-7.633,-3.293,5.563,-1.299,-0.085,0.208
201.0,-7.633,-3.293,5.563,-1.299,-0.085,0.208
205.0,-8.056,-3.424,6.145,-1.396,-0.071,0.204
209.0,-8.056,-3.424,6.145,-1.396,-0.071,0.204
213.0,-8.056,-3.809,6.834,-1.396,-0.071,0.204
217.0,-8.351,-3.809,6.834,-1.456,-0.104,0.207
221.0,-8.351,-3.809,6.834,-1.456,-0.104,0.207
224.0,-8.426,-4.403,7.44,-1.449,-0.177,0.21
228.0,-8.426,-4.403,7.44,-1.449,-0.177,0.21
232.0,-8.426,-4.403,7.883,-1.449,-0.177,0.21
236.0,-8.11,-4.985,7.883,-1.32,-0.227,0.243
240.0,-8.11,-4.985,7.883,-1.32,-0.227,0.243
244.0,-7.71,-5.276,8.096,-1.024,-0.256,0.33
248.0,-7.71,-5.276,8.096,-1.024,-0.256,0.33
252.0,-7.71,-5.276,8.096,-1.024,-0.256,0.33
256.0,-7.933,-5.114,8.158,-0.592,-0.307,0.462
260.0,-7.933,-5.114,8.158,-0.592,-0.307,0.462
264.0,-8.457,-5.118,8.44,-0.123,-0.362,0.543
267.0,-8.457,-5.118,8.44,-0.123,-0.362,0.543
271.0,-8.457,-5.118,8.44,-0.123,-0.362,0.543
275.0,-9.768,-4.096,8.466,0.354,-0.49,0.592
279.0,-9.768,-4.096,8.466,0.354,-0.49,0.592
283.0,-10.216,-3.29,8.436,0.73,-0.715,0.612
287.0,-10.216,-3.29,8.436,0.73,-0.715,0.612
291.0,-10.216,-3.29,8.436,0.73,-0.715,0.612
295.0,-10.354,-2.768,8.602,1.019,-0.929,0.673
298.0,-10.354,-2.768,8.602,1.019,-0.929,0.673
302.0,-10.509,-2.535,8.968,1.235,-1.122,0.768
306.0,-10.509,-2.535,8.968,1.235,-1.122,0.768
310.0,-10.509,-2.535,8.968,1.235,-1.122,0.768
314.0,-10.613,-2.334,9.368,1.379,-1.313,0.854
318.0,-10.613,-2.334,9.368,1.379,-1.313,0.854
322.0,-10.669,-2.093,9.927,1.379,-1.49,0.891
326.0,-10.669,-2.093,9.927,1.462,-1.49,0.891
330.0,-10.669,-2.093,9.927,1.462,-1.49,0.891
334.0,-10.914,-1.881,10.675,1.501,-1.648,0.886
338.0,-10.914,-1.881,10.675,1.501,-1.648,0.886
342.0,-11.481,-1.893,11.57,1.501,-1.813,0.881
346.0,-11.481,-1.893,11.57,1.51,-1.813,0.881
350.0,-11.481,-1.893,11.57,1.51,-1.813,0.881
354.0,-12.16,-2.108,12.461,1.533,-2.006,0.887
358.0,-12.16,-2.108,12.461,1.533,-2.006,0.887
362.0,-12.653,-2.353,13.237,1.608,-2.233,0.901
366.0,-12.653,-2.353,13.237,1.608,-2.233,0.901
370.0,-12.653,-2.353,13.237,1.608,-2.233,0.901
374.0,-12.978,-2.693,13.879,1.738,-2.477,0.914
378.0,-12.978,-2.693,13.879,1.738,-2.477,0.914
382.0,-13.286,-3.191,14.22,1.917,-2.726,0.905
386.0,-13.286,-3.191,14.22,1.917,-2.726,0.905
390.0,-13.286,-3.191,14.22,1.917,-2.726,0.905
394.0,-13.491,-3.63,14.192,2.134,-2.983,0.867
398.0,-13.491,-3.63,14.192,2.134,-2.983,0.867
402.0,-13.378,-3.9,13.883,2.351,-3.247,0.813
406.0,-13.378,-3.9,13.883,2.351,-3.247,0.813
410.0,-13.378,-3.9,13.883,2.351,-3.247,0.813
414.0,-12.866,-3.939,13.667,2.533,-3.491,0.761
418.0,-12.866,-3.939,13.667,2.533,-3.491,0.761
422.0,-12.184,-3.958,13.772,2.678,-3.697,0.732
425.0,-12.184,-3.958,13.772,2.678,-3.697,0.732
429.0,-12.184,-3.958,13.772,2.678,-3.697,0.732
433.0,-11.606,-4.045,13.993,2.788,-3.866,0.726
437.0,-11.606,-4.045,13.993,2.788,-3.866,0.726
441.0,-11.169,-4.136,14.054,2.872,-4.013,0.719
445.0,-11.169,-4.136,14.054,2.872,-4.013,0.719
449.0,-11.169,-4.136,14.041,2.872,-4.013,0.719
453.0,-10.601,-4.217,14.041,2.95,-4.146,0.704
457.0,-10.601,-4.217,14.041,2.95,-4.146,0.704
461.0,-10.03,-4.46,14.071,3.014,-4.259,0.687
465.0,-10.03,-4.46,14.071,3.014,-4.259,0.687
469.0,-9.586,-4.559,14.084,3.014,-4.259,0.687
473.0,-9.586,-4.559,14.084,3.049,-4.364,0.653
477.0,-9.586,-4.559,14.084,3.049,-4.364,0.653
481.0,-9.17,-4.518,13.877,3.046,-4.484,0.587
485.0,-9.17,-4.518,13.877,3.046,-4.484,0.587
489.0,-9.17,-4.518,13.506,3.046,-4.484,0.587
493.0,-8.594,-4.439,13.506,3.004,-4.617,0.489
497.0,-8.594,-4.439,13.506,3.004,-4.617,0.489
501.0,-7.863,-4.464,13.157,2.942,-4.742,0.365
505.0,-7.863,-4.464,13.157,2.942,-4.742,0.365
508.0,-7.863,-4.464,13.157,2.942,-4.742,0.365
512.0,-7.152,-4.78,12.985,2.885,-4.86,0.219
516.0,-7.152,-4.78,12.985,2.885,-4.86,0.219
520.0,-6.487,-5.432,12.799,2.859,-4.96,0.063
524.0,-6.487,-5.432,12.799,2.859,-4.96,0.063
528.0,-6.487,-5.432,12.799,2.859,-4.96,0.063
532.0,-5.712,-5.822,12.28,2.883,-4.99,-0.084
536.0,-5.712,-5.822,12.28,2.883,-4.99,-0.084
540.0,-4.728,-6.254,12.042,2.981,-4.992,-0.205
544.0,-4.728,-6.254,12.042,2.981,-4.992,-0.205
548.0,-4.728,-6.254,12.042,2.981,-4.992,-0.205
552.0,-3.931,-6.638,11.623,3.15,-4.992,-0.32
556.0,-3.931,-6.638,11.623,3.15,-4.992,-0.32
560.0,-3.086,-6.483,10.844,3.37,-4.992,-0.432
564.0,-3.086,-6.483,10.844,3.37,-4.992,-0.432
568.0,-3.086,-6.483,10.071,3.37,-4.992,-0.432
572.0,-2.131,-6.087,10.071,3.612,-4.991,-0.522
576.0,-2.131,-6.087,10.071,3.612,-4.991,-0.522
580.0,-1.493,-5.741,9.162,3.895,-4.988,-0.58
584.0,-1.493,-5.741,9.162,3.895,-4.988,-0.58
588.0,-1.493,-5.741,8.477,3.895,-4.988,-0.58
592.0,-0.715,-5.191,8.477,4.179,-4.974,-0.61
595.0,-0.715,-5.191,8.477,4.179,-4.974,-0.61
599.0,-0.388,-4.566,7.825,4.386,-4.899,-0.639
603.0,-0.388,-4.566,7.825,4.386,-4.899,-0.639
607.0,-0.388,-4.566,7.825,4.386,-4.899,-0.639
611.0,-0.075,-3.746,7.027,4.515,-4.791,-0.665
615.0,-0.075,-3.746,7.027,4.515,-4.791,-0.665
619.0,0.316,-2.966,6.342,4.56,-4.661,-0.686
623.0,0.316,-2.966,6.342,4.56,-4.661,-0.686
627.0,0.316,-2.966,6.342,4.56,-4.661,-0.686
630.0,0.575,-2.38,5.975,4.534,-4.529,-0.72
634.0,0.575,-2.38,5.975,4.534,-4.529,-0.72
638.0,0.782,-1.726,5.597,4.462,-4.416,-0.771
642.0,0.782,-1.726,5.597,4.462,-4.416,-0.771
646.0,0.782,-1.726,5.597,4.462,-4.416,-0.771
649.0,0.91,-1.134,5.23,4.344,-4.302,-0.814
653.0,0.91,-1.134,5.23,4.344,-4.302,-0.814
657.0,1.132,-0.69,4.737,4.344,-4.302,-0.814
661.0,1.132,-0.69,4.737,4.181,-4.192,-0.839
665.0,1.132,-0.69,4.737,4.181,-4.192,-0.839
669.0,1.463,-0.191,4.169,3.985,-4.078,-0.862
672.0,1.463,-0.191,4.169,3.985,-4.078,-0.862
676.0,1.463,-0.191,4.169,3.985,-4.078,-0.862
680.0,1.733,0.42,3.668,3.795,-3.956,-0.897
684.0,1.733,0.42,3.668,3.795,-3.956,-0.897
687.0,1.838,1.175,3.394,3.644,-3.838,-0.928
691.0,1.838,1.175,3.394,3.644,-3.838,-0.928
695.0,1.838,1.175,3.394,3.644,-3.838,-0.928
699.0,2.023,1.797,2.962,3.545,-3.734,-0.931
702.0,2.023,1.797,2.962,3.545,-3.734,-0.931
706.0,2.023,1.797,2.411,3.545,-3.734,-0.931
710.0,2.392,2.329,2.411,3.48,-3.625,-0.897
714.0,2.392,2.329,2.411,3.48,-3.625,-0.897
717.0,2.806,2.96,1.775,3.439,-3.498,-0.83
721.0,2.806,2.96,1.775,3.439,-3.498,-0.83
725.0,2.806,2.96,1.775,3.439,-3.498,-0.83
729.0,3.176,3.759,1.192,3.395,-3.342,-0.732
732.0,3.176,3.759,1.192,3.395,-3.342,-0.732
736.0,3.626,4.708,0.482,3.395,-3.342,-0.732
740.0,3.626,4.708,0.482,3.337,-3.167,-0.625
743.0,3.626,4.708,0.482,3.337,-3.167,-0.625
747.0,4.184,5.795,-0.376,3.283,-2.971,-0.527
751.0,4.184,5.795,-0.376,3.283,-2.971,-0.527
755.0,4.184,5.795,-0.376,3.283,-2.971,-0.527
759.0,4.905,6.79,-1.419,3.249,-2.751,-0.412
762.0,4.905,6.79,-1.419,3.249,-2.751,-0.412
766.0,5.952,8.237,-3.005,3.232,-2.482,-0.254
770.0,5.952,8.237,-3.005,3.232,-2.482,-0.254
774.0,5.952,8.237,-3.005,3.232,-2.482,-0.254
778.0,7.386,9.932,-5.122,3.231,-2.066,-0.008
782.0,7.386,9.932,-5.122,3.231,-2.066,-0.008
785.0,9.098,12.132,-7.827,3.231,-2.066,-0.008
789.0,9.098,12.132,-7.827,3.307,-1.544,0.32
793.0,9.098,12.132,-7.827,3.307,-1.544,0.32
797.0,11.166,14.576,-10.356,3.451,-0.914,0.766
801.0,11.166,14.576,-10.356,3.451,-0.914,0.766
805.0,11.166,16.847,-12.424,3.451,-0.914,0.766
809.0,12.876,16.847,-12.424,3.571,-0.12,1.316
813.0,12.876,16.847,-12.424,3.571,-0.12,1.316
817.0,14.419,19.047,-14.264,3.58,0.751,1.925
821.0,14.419,19.047,-14.264,3.58,0.751,1.925
825.0,14.419,19.595,-14.645,3.58,0.751,1.925
829.0,15.114,19.595,-14.645,3.437,1.708,2.612
833.0,15.114,19.595,-14.645,3.437,1.708,2.612
836.0,14.744,19.596,-13.703,3.099,2.703,3.323
840.0,14.744,19.596,-13.703,3.099,2.703,3.323
844.0,14.744,19.596,-12.014,3.099,2.703,3.323
848.0,12.772,19.181,-12.014,2.615,3.691,3.936
852.0,12.772,19.181,-12.014,2.615,3.691,3.936
856.0,9.21,16.994,-10.335,2.072,4.583,4.398
860.0,9.21,16.994,-10.335,2.072,4.583,4.398
864.0,9.21,16.994,-10.335,2.072,4.583,4.398
867.0,5.788,14.217,-8.732,1.503,4.999,4.681
871.0,5.788,14.217,-8.732,1.503,4.999,4.681
875.0,2.505,11.582,-6.507,0.9,5.015,4.669
879.0,2.505,11.582,-6.507,0.9,5.015,4.669
882.0,2.505,11.582,-6.507,0.9,5.015,4.669
886.0,-2.362,9.656,-4.625,0.224,5.015,4.449
890.0,-2.362,9.656,-4.625,0.224,5.015,4.449
894.0,-2.362,9.656,-1.611,0.224,5.015,4.449
897.0,-9.09,6.679,-1.611,-0.526,5.015,4.268
901.0,-9.09,6.679,-1.611,-0.526,5.015,4.268
905.0,-17.199,1.574,2.335,-1.295,5.015,4.048
909.0,-17.199,1.574,2.335,-1.295,5.015,4.048
913.0,-17.199,1.574,2.335,-1.295,5.015,4.048
916.0,-19.6,-4.685,3.975,-1.926,4.956,3.572
920.0,-19.6,-4.685,3.975,-1.926,4.956,3.572
924.0,-19.6,-7.37,7.824,-2.208,4.24,2.881
928.0,-19.6,-7.37,7.824,-2.208,4.24,2.881
932.0,-19.6,-7.37,7.824,-2.208,4.24,2.881
936.0,-19.551,-7.925,10.843,-2.361,2.892,2.259
940.0,-19.551,-7.925,10.843,-2.361,2.892,2.259
944.0,-17.113,-8.876,9.817,-2.528,1.564,1.578
948.0,-17.113,-8.876,9.817,-2.528,1.564,1.578
952.0,-17.113,-8.876,9.817,-2.528,1.564,1.578
956.0,-14.23,-10.454,8.499,-2.577,0.422,0.69
960.0,-14.23,-10.454,8.499,-2.577,0.422,0.69
964.0,-10.656,-10.996,7.6,-2.54,-0.585,-0.302
968.0,-10.656,-10.996,7.6,-2.54,-0.585,-0.302
972.0,-10.656,-10.996,7.6,-2.54,-0.585,-0.302
976.0,-6.768,-10.238,6.687,-2.488,-1.328,-1.199
980.0,-6.768,-10.238,6.687,-2.488,-1.328,-1.199
984.0,-3.846,-9.093,6.508,-2.402,-1.768,-1.888
988.0,-3.846,-9.093,6.508,-2.402,-1.768,-1.888
992.0,-3.846,-9.093,7.046,-2.402,-1.768,-1.888
996.0,-2.116,-8.246,7.046,-2.242,-2.056,-2.396
1000.0,-2.116,-8.246,7.046,-2.242,-2.056,-2.396
1004.0,-0.919,-7.391,7.186,-1.987,-2.322,-2.807
1008.0,-0.919,-7.391,7.186,-1.987,-2.322,-2.807
1012.0,0.104,-6.29,7.063,-1.987,-2.322,-2.807
1016.0,0.104,-6.29,7.063,-1.632,-2.568,-3.178
1020.0,0.104,-6.29,7.063,-1.632,-2.568,-3.178
1024.0,0.94,-5.063,6.738,-1.192,-2.77,-3.525
1028.0,0.94,-5.063,6.738,-1.192,-2.77,-3.525
1032.0,1.735,-3.6,6.473,-1.192,-2.77,-3.835
1036.0,1.735,-3.6,6.473,-0.708,-2.92,-3.835
1040.0,1.735,-3.6,6.473,-0.708,-2.92,-3.835
1044.0,2.55,-1.871,6.475,-0.21,-3.018,-4.095
1048.0,2.55,-1.871,6.475,-0.21,-3.018,-4.095
1052.0,3.467,-0.074,6.625,0.294,-3.081,-4.286
1056.0,3.467,-0.074,6.625,0.294,-3.081,-4.286
1060.0,3.467,-0.074,6.625,0.294,-3.081,-4.286
1064.0,4.577,1.605,6.759,0.807,-3.126,-4.413
1068.0,4.577,1.605,6.759,0.807,-3.126,-4.413
1072.0,5.788,3.636,6.501,0.807,-3.126,-4.49
1076.0,5.788,3.636,6.501,1.317,-3.163,-4.49
1079.0,5.788,3.636,6.501,1.317,-3.163,-4.49
1083.0,6.968,5.825,5.738,1.824,-3.205,-4.498
1087.0,6.968,5.825,5.738,1.824,-3.205,-4.498
1091.0,6.968,5.825,5.738,1.824,-3.205,-4.498
1095.0,8.268,8.017,4.682,2.304,-3.26,-4.454
1098.0,8.268,8.017,4.682,2.304,-3.26,-4.454
1102.0,9.231,10.361,3.309,2.738,-3.298,-4.395
1106.0,9.231,10.361,3.309,2.738,-3.298,-4.395
1110.0,9.231,10.361,3.309,2.738,-3.298,-4.395
1114.0,9.492,12.915,1.348,3.097,-3.314,-4.263
1118.0,9.492,12.915,1.348,3.097,-3.314,-4.263
1122.0,9.754,15.916,-1.674,3.372,-3.304,-3.995
1126.0,9.754,15.916,-1.674,3.372,-3.304,-3.995
1130.0,9.754,15.916,-1.674,3.372,-3.304,-3.995
1134.0,10.739,19.024,-5.625,3.585,-3.185,-3.575
1138.0,10.739,19.024,-5.625,3.585,-3.185,-3.575
1142.0,12.174,19.595,-9.237,3.747,-2.873,-3.036
1146.0,12.174,19.595,-9.237,3.747,-2.873,-3.036
1150.0,12.174,19.595,-11.734,3.747,-2.873,-3.036
1154.0,14.118,19.596,-11.734,3.753,-2.431,-2.445
1158.0,14.118,19.596,-11.734,3.753,-2.431,-2.445
1163.0,16.425,19.596,-14.734,3.463,-1.88,-1.795
1167.0,16.425,19.596,-14.734,3.463,-1.88,-1.795
1171.0,18.067,19.596,-17.802,2.894,-1.132,-1.125
1175.0,18.067,19.596,-17.802,2.894,-1.132,-1.125
1179.0,18.067,19.596,-17.802,2.894,-1.132,-1.125
1183.0,18.568,19.596,-19.507,2.185,-0.188,-0.471
1188.0,18.568,19.596,-19.507,2.185,-0.188,-0.471
1192.0,18.011,19.596,-19.537,1.508,0.877,0.176
1196.0,18.011,19.596,-19.537,1.508,0.877,0.176
1200.0,18.011,19.596,-17.639,1.508,0.877,0.176
1204.0,15.855,19.596,-17.639,0.947,1.918,0.853
1208.0,15.855,19.596,-17.639,0.947,1.918,0.853
1212.0,13.134,19.596,-15.176,0.549,2.784,1.608
1216.0,13.134,19.596,-15.176,0.549,2.784,1.608
1220.0,11.368,19.596,-14.066,0.549,2.784,1.608
1224.0,11.368,19.596,-14.066,0.345,3.506,2.397
1228.0,11.368,19.596,-14.066,0.345,3.506,2.397
1232.0,10.829,19.596,-12.984,0.251,4.203,3.186
1236.0,10.829,19.596,-12.984,0.251,4.203,3.186
1240.0,10.115,19.596,-10.835,0.251,4.203,3.931
1244.0,10.115,19.596,-10.835,0.219,4.831,3.931
1248.0,10.115,19.596,-10.835,0.219,4.831,3.931
1252.0,8.667,19.536,-8.527,0.226,5.015,4.598
1256.0,8.667,19.536,-8.527,0.226,5.015,4.598
1259.0,6.609,17.829,-6.278,0.226,5.015,4.983
1263.0,6.609,17.829,-6.278,0.238,5.015,4.983
1267.0,6.609,17.829,-6.278,0.238,5.015,4.983
1271.0,4.076,15.473,-4.512,0.231,5.015,5.013
1275.0,4.076,15.473,-4.512,0.231,5.015,5.013
1278.0,4.076,15.473,-2.711,0.231,5.015,5.013
1282.0,0.76,13.359,-2.711,0.148,5.015,5.013
1286.0,0.76,13.359,-2.711,0.148,5.015,5.013
1290.0,-3.665,11.378,-0.671,-0.087,5.015,5.013
1294.0,-3.665,11.378,-0.671,-0.087,5.015,5.013
1298.0,-3.665,11.378,-0.671,-0.087,5.015,5.013
1302.0,-9.095,9.57,1.954,-0.54,5.015,5.013
1306.0,-9.095,9.57,1.954,-0.54,5.015,5.013
1310.0,-16.427,8.819,3.558,-1.241,5.015,5.013
1313.0,-16.427,8.819,3.558,-1.241,5.015,5.013
1317.0,-16.427,8.819,3.558,-1.241,5.015,5.013
1321.0,-19.595,6.68,2.237,-2.163,5.015,5.013
1325.0,-19.595,6.68,2.237,-2.163,5.015,5.013
1329.0,-19.6,1.123,1.68,-3.115,4.856,5.013
1333.0,-19.6,1.123,1.68,-3.115,4.856,5.013
1337.0,-19.6,1.123,1.68,-3.115,4.856,5.013
1341.0,-19.6,-1.974,5.386,-3.816,3.611,4.935
1345.0,-19.6,-1.974,5.386,-3.816,3.611,4.935
1349.0,-16.21,-4.158,5.261,-4.407,1.986,4.221
1353.0,-16.21,-4.158,5.261,-4.407,1.986,4.221
1357.0,-16.21,-4.158,5.261,-4.407,1.986,4.221
1361.0,-9.394,-6.257,3.9,-4.888,0.946,3.084
1365.0,-9.394,-6.257,3.9,-4.888,0.946,3.084
1369.0,-5.893,-8.01,4.221,-5.012,0.321,1.864
1372.0,-5.893,-8.01,4.221,-5.012,0.321,1.864
1376.0,-5.893,-8.01,4.221,-5.012,0.321,1.864
1380.0,-3.625,-9.479,5.559,-5.01,-0.246,0.747
1384.0,-3.625,-9.479,5.559,-5.01,-0.246,0.747
1388.0,-1.544,-9.977,5.742,-4.774,-0.805,-0.186
1392.0,-1.544,-9.977,5.742,-4.774,-0.805,-0.186
1396.0,-1.544,-9.977,5.742,-4.774,-0.805,-0.186
1400.0,1.08,-9.541,4.925,-4.059,-1.222,-0.861
1404.0,1.08,-9.541,4.925,-4.059,-1.222,-0.861
1408.0,3.879,-8.316,3.989,-3.196,-1.356,-1.249
1412.0,3.879,-8.316,3.989,-3.196,-1.356,-1.249
1416.0,3.879,-8.316,3.989,-3.196,-1.356,-1.249
1420.0,6.526,-7.135,3.31,-2.336,-1.275,-1.35
1424.0,6.526,-7.135,3.31,-2.336,-1.275,-1.35
1428.0,9.33,-6.288,3.08,-1.532,-1.124,-1.31
1432.0,9.33,-6.288,3.08,-1.532,-1.124,-1.31
1436.0,9.33,-6.288,3.144,-1.532,-1.124,-1.31
1440.0,11.599,-5.182,3.144,-0.778,-0.915,-1.277
1444.0,11.599,-5.182,3.144,-0.778,-0.915,-1.277
1449.0,12.251,-3.453,3.329,-0.089,-0.644,-1.225
1453.0,12.251,-3.453,3.329,-0.089,-0.644,-1.225
1457.0,11.657,-1.708,3.627,-0.089,-0.644,-1.068
1461.0,11.657,-1.708,3.627,0.496,-0.351,-1.068
1465.0,11.657,-1.708,3.627,0.496,-0.351,-1.068
1469.0,10.778,-0.346,4.072,0.969,-0.102,-0.824
1473.0,10.778,-0.346,4.072,0.969,-0.102,-0.824
1477.0,10.278,0.617,4.551,0.969,0.061,-0.58
1481.0,10.278,0.617,4.551,1.355,0.061,-0.58
1484.0,10.278,0.617,4.551,1.355,0.061,-0.58
1488.0,10.161,1.448,4.723,1.667,0.137,-0.392
1492.0,10.161,1.448,4.723,1.667,0.137,-0.392
1496.0,10.161,2.262,4.444,1.667,0.137,-0.392
1500.0,10.222,2.262,4.444,1.903,0.163,-0.255
1504.0,10.222,2.262,4.444,1.903,0.163,-0.255
1507.0,10.015,2.938,4.115,2.045,0.191,-0.151
1511.0,10.015,2.938,4.115,2.045,0.191,-0.151
1515.0,10.015,2.938,4.115,2.045,0.191,-0.151
1519.0,9.633,3.389,3.805,2.083,0.214,-0.07
1523.0,9.633,3.389,3.805,2.083,0.214,-0.07
1526.0,9.37,3.738,3.648,2.025,0.215,-0.024
1530.0,9.37,3.738,3.648,2.025,0.215,-0.024
1534.0,9.37,3.738,3.648,2.025,0.215,-0.024
1537.0,9.242,4.025,3.603,1.879,0.209,-0.02
1541.0,9.242,4.025,3.603,1.879,0.209,-0.02
1545.0,9.242,4.025,3.596,1.879,0.209,-0.02
1549.0,9.142,4.272,3.596,1.644,0.209,-0.034
1552.0,9.142,4.272,3.596,1.644,0.209,-0.034
1556.0,9.096,4.539,3.494,1.341,0.23,-0.038
1560.0,9.096,4.539,3.494,1.341,0.23,-0.038
1564.0,9.096,4.539,3.494,1.341,0.23,-0.038
1567.0,9.023,4.64,3.581,0.997,0.282,-0.025
1571.0,9.023,4.64,3.581,0.997,0.282,-0.025
1575.0,9.023,4.629,3.821,0.997,0.282,-0.025
1579.0,8.854,4.629,3.821,0.634,0.342,-0.01
1582.0,8.854,4.629,3.821,0.634,0.342,-0.01
1586.0,8.456,4.451,4.088,0.275,0.397,-0.002
1590.0,8.456,4.451,4.088,0.275,0.397,-0.002
1593.0,8.456,4.451,4.088,0.275,0.397,-0.002
1597.0,8.006,4.129,4.298,-0.052,0.429,-0.017
1601.0,8.006,4.129,4.298,-0.052,0.429,-0.017
1605.0,7.496,3.81,4.501,-0.052,0.429,-0.059
1609.0,7.496,3.81,4.501,-0.321,0.443,-0.059
1612.0,7.496,3.81,4.501,-0.321,0.443,-0.059
1616.0,7.044,3.47,4.668,-0.519,0.435,-0.121
1620.0,7.044,3.47,4.668,-0.519,0.435,-0.121
1624.0,7.044,3.47,4.726,-0.519,0.435,-0.121
1628.0,6.836,3.118,4.726,-0.645,0.408,-0.193
1632.0,6.836,3.118,4.726,-0.645,0.408,-0.193
1635.0,6.876,2.795,4.793,-0.705,0.37,-0.283
1639.0,6.876,2.795,4.793,-0.705,0.37,-0.283
1643.0,6.876,2.795,4.793,-0.705,0.37,-0.283
1647.0,6.99,2.57,4.994,-0.698,0.335,-0.383
1651.0,6.99,2.57,4.994,-0.698,0.335,-0.383
1654.0,6.885,2.445,5.228,-0.633,0.299,-0.465
1658.0,6.885,2.445,5.228,-0.633,0.299,-0.465
1662.0,6.885,2.445,5.228,-0.633,0.299,-0.465
1666.0,6.693,2.228,5.404,-0.523,0.255,-0.499
1670.0,6.693,2.228,5.404,-0.523,0.255,-0.499
1674.0,6.693,1.95,5.491,-0.523,0.255,-0.499
1677.0,6.572,1.95,5.491,-0.378,0.205,-0.494
1681.0,6.572,1.95,5.491,-0.378,0.205,-0.494
1685.0,6.56,1.783,5.574,-0.216,0.148,-0.469
1689.0,6.56,1.783,5.574,-0.216,0.148,-0.469
1693.0,6.56,1.783,5.574,-0.216,0.148,-0.469
1696.0,6.548,1.831,5.542,-0.051,0.084,-0.422
1700.0,6.548,1.831,5.542,-0.051,0.084,-0.422
1704.0,6.738,1.932,5.39,0.105,0.016,-0.345
1708.0,6.738,1.932,5.39,0.105,0.016,-0.345
1712.0,6.738,1.932,5.39,0.105,0.016,-0.345
1715.0,7.187,2.042,5.138,0.24,-0.036,-0.253
1719.0,7.187,2.042,5.138,0.24,-0.036,-0.253
1723.0,7.872,2.231,4.802,0.24,-0.036,-0.253
1727.0,7.872,2.231,4.802,0.35,-0.066,-0.171
1731.0,7.872,2.231,4.802,0.35,-0.066,-0.171
1734.0,8.599,2.547,4.46,0.43,-0.061,-0.114
1738.0,8.599,2.547,4.46,0.43,-0.061,-0.114
1742.0,8.599,2.547,4.46,0.43,-0.061,-0.114
1746.0,9.154,2.827,4.272,0.471,-0.024,-0.076
1750.0,9.154,2.827,4.272,0.471,-0.024,-0.076
1754.0,9.291,3.084,4.311,0.467,0.043,-0.062
1757.0,9.291,3.084,4.311,0.467,0.043,-0.062
1761.0,9.291,3.084,4.311,0.467,0.043,-0.062
1765.0,9.047,3.278,4.499,0.421,0.117,-0.06
1768.0,9.047,3.278,4.499,0.421,0.117,-0.06
1772.0,9.047,3.388,4.756,0.421,0.117,-0.06
1776.0,8.603,3.388,4.756,0.345,0.184,-0.064
1780.0,8.603,3.388,4.756,0.345,0.184,-0.064
1783.0,8.14,3.443,5.013,0.247,0.23,-0.076
1787.0,8.14,3.443,5.013,0.247,0.23,-0.076
1791.0,8.14,3.443,5.013,0.247,0.23,-0.076
1795.0,7.767,3.404,5.17,0.137,0.258,-0.1
1798.0,7.767,3.404,5.17,0.137,0.258,-0.1
1802.0,7.573,3.281,5.253,0.137,0.258,-0.1
1806.0,7.573,3.281,5.253,0.027,0.274,-0.133
1810.0,7.573,3.281,5.253,0.027,0.274,-0.133
1813.0,7.563,3.196,5.233,-0.073,0.279,-0.168
1817.0,7.563,3.196,5.233,-0.073,0.279,-0.168
1821.0,7.563,3.196,5.233,-0.073,0.279,-0.168
1825.0,7.588,3.094,5.159,-0.147,0.277,-0.198
1829.0,7.588,3.094,5.159,-0.147,0.277,-0.198
1832.0,7.552,2.987,5.097,-0.19,0.271,-0.223
1836.0,7.552,2.987,5.097,-0.19,0.271,-0.223
1840.0,7.552,2.987,5.097,-0.19,0.271,-0.223
1844.0,7.443,2.875,5.122,-0.202,0.261,-0.239
1848.0,7.443,2.875,5.122,-0.202,0.261,-0.239
1851.0,7.222,2.833,5.231,-0.202,0.261,-0.239
1855.0,7.222,2.833,5.231,-0.184,0.243,-0.248
1859.0,7.222,2.833,5.231,-0.184,0.243,-0.248
1863.0,6.989,2.776,5.305,-0.145,0.209,-0.24
1867.0,6.989,2.776,5.305,-0.145,0.209,-0.24
1871.0,6.989,2.776,5.305,-0.145,0.209,-0.24
1874.0,6.819,2.749,5.305,-0.094,0.165,-0.221
1878.0,6.819,2.749,5.305,-0.094,0.165,-0.221
1882.0,6.794,2.736,5.289,-0.037,0.118,-0.204
1886.0,6.794,2.736,5.289,-0.037,0.118,-0.204
1890.0,6.794,2.736,5.289,-0.037,0.118,-0.204
1893.0,6.896,2.746,5.249,0.024,0.076,-0.197
1897.0,6.896,2.746,5.249,0.024,0.076,-0.197
1901.0,7.094,2.799,5.185,0.024,0.076,-0.195
1905.0,7.094,2.799,5.185,0.077,0.045,-0.195
1908.0,7.094,2.799,5.185,0.077,0.045,-0.195
1912.0,7.272,2.892,5.074,0.119,0.024,-0.188
1916.0,7.272,2.892,5.074,0.119,0.024,-0.188
1920.0,7.272,2.892,5.074,0.119,0.024,-0.188
1923.0,7.377,3.025,4.947,0.153,0.018,-0.178
1927.0,7.377,3.025,4.947,0.153,0.018,-0.178
1931.0,7.42,3.169,4.837,0.153,0.025,-0.162
1935.0,7.42,3.169,4.837,0.179,0.025,-0.162
1938.0,7.42,3.169,4.837,0.179,0.025,-0.162
1942.0,7.444,3.279,4.808,0.193,0.044,-0.14
1946.0,7.444,3.279,4.808,0.193,0.044,-0.14
1949.0,7.444,3.279,4.808,0.193,0.044,-0.14
1953.0,7.418,3.377,4.839,0.196,0.067,-0.114
1957.0,7.418,3.377,4.839,0.196,0.067,-0.114
1961.0,7.417,3.423,4.823,0.19,0.08,-0.087
1964.0,7.417,3.423,4.823,0.19,0.08,-0.087
1968.0,7.417,3.423,4.823,0.19,0.08,-0.087
1972.0,7.391,3.437,4.772,0.176,0.089,-0.071
1976.0,7.391,3.437,4.772,0.176,0.089,-0.071
1979.0,7.391,3.437,4.709,0.176,0.089,-0.071
1983.0,7.454,3.453,4.709,0.156,0.1,-0.07
1987.0,7.454,3.453,4.709,0.156,0.1,-0.07
1990.0,7.629,3.531,4.695,0.133,0.116,-0.085
1994.0,7.629,3.531,4.695,0.133,0.116,-0.085
1998.0,7.629,3.531,4.695,0.133,0.116,-0.085
2002.0,7.732,3.611,4.678,0.11,0.136,-0.101
2005.0,7.732,3.611,4.678,0.11,0.136,-0.101
2009.0,7.732,3.624,4.7,0.11,0.136,-0.101
2013.0,7.637,3.624,4.7,0.085,0.167,-0.104
2017.0,7.637,3.624,4.7,0.085,0.167,-0.104
2020.0,7.427,3.578,4.746,0.062,0.202,-0.088
2024.0,7.427,3.578,4.746,0.062,0.202,-0.088
2028.0,7.427,3.578,4.746,0.062,0.202,-0.088
2032.0,7.359,3.489,4.905,0.05,0.229,-0.064
2035.0,7.359,3.489,4.905,0.05,0.229,-0.064
2039.0,7.21,3.406,5.055,0.05,0.229,-0.064
2043.0,7.21,3.406,5.055,0.051,0.245,-0.047
2046.0,7.21,3.406,5.055,0.051,0.245,-0.047
2050.0,6.937,3.319,5.07,0.06,0.247,-0.021
2054.0,6.937,3.319,5.07,0.06,0.247,-0.021
2058.0,6.937,3.319,5.07,0.06,0.247,-0.021
2061.0,6.677,3.274,5.073,0.076,0.249,0.007
2065.0,6.677,3.274,5.073,0.076,0.249,0.007
2069.0,6.521,3.242,5.125,0.076,0.249,0.03
2072.0,6.521,3.242,5.125,0.101,0.246,0.03
2076.0,6.521,3.242,5.125,0.101,0.246,0.03
2080.0,6.483,3.197,5.114,0.136,0.228,0.046
2083.0,6.483,3.197,5.114,0.136,0.228,0.046
2087.0,6.483,3.197,5.114,0.136,0.228,0.046
2091.0,6.519,3.208,5.012,0.175,0.2,0.053
2094.0,6.519,3.208,5.012,0.175,0.2,0.053
2098.0,6.519,3.208,4.896,0.175,0.2,0.053
2102.0,6.592,3.275,4.896,0.213,0.178,0.047
2105.0,6.592,3.275,4.896,0.213,0.178,0.047
2109.0,6.601,3.351,4.847,0.245,0.175,0.035
2112.0,6.601,3.351,4.847,0.245,0.175,0.035
2116.0,6.601,3.351,4.847,0.245,0.175,0.035
2120.0,6.565,3.368,4.88,0.271,0.173,0.03
2123.0,6.565,3.368,4.88,0.271,0.173,0.03
2127.0,6.565,3.368,4.88,0.271,0.173,0.03
2131.0,6.434,3.354,4.889,0.288,0.167,0.033
2134.0,6.434,3.354,4.889,0.288,0.167,0.033
2138.0,6.307,3.36,4.847,0.288,0.16,0.036
2142.0,6.307,3.36,4.847,0.298,0.16,0.036
2145.0,6.307,3.36,4.847,0.298,0.16,0.036
2149.0,6.253,3.386,4.823,0.3,0.154,0.032
2153.0,6.253,3.386,4.823,0.3,0.154,0.032
2156.0,6.253,3.386,4.823,0.3,0.154,0.032
2160.0,6.304,3.434,4.807,0.293,0.141,0.021
2163.0,6.304,3.434,4.807,0.293,0.141,0.021
2167.0,6.378,3.48,4.697,0.293,0.141,0.021
2171.0,6.378,3.48,4.697,0.279,0.123,0.006
2174.0,6.378,3.48,4.697,0.279,0.123,0.006
2178.0,6.485,3.529,4.51,0.26,0.107,-0.012
2182.0,6.485,3.529,4.51,0.26,0.107,-0.012
2186.0,6.485,3.529,4.51,0.26,0.107,-0.012
2189.0,6.569,3.58,4.358,0.243,0.108,-0.038
2193.0,6.569,3.58,4.358,0.243,0.108,-0.038
2197.0,6.674,3.613,4.312,0.243,0.108,-0.038
2200.0,6.674,3.613,4.312,0.232,0.113,-0.064
2204.0,6.674,3.613,4.312,0.232,0.113,-0.064
2208.0,6.862,3.704,4.272,0.231,0.118,-0.09
2212.0,6.862,3.704,4.272,0.231,0.118,-0.09
2215.0,6.862,3.704,4.272,0.231,0.118,-0.09
2219.0,7.102,3.848,4.262,0.241,0.129,-0.125
2223.0,7.102,3.848,4.262,0.241,0.129,-0.125
2227.0,7.318,4.025,4.366,0.241,0.129,-0.164
2230.0,7.318,4.025,4.366,0.261,0.15,-0.164
2234.0,7.318,4.025,4.366,0.261,0.15,-0.164
2238.0,7.433,4.187,4.476,0.289,0.167,-0.189
2242.0,7.433,4.187,4.476,0.289,0.167,-0.189
2245.0,7.433,4.187,4.476,0.289,0.167,-0.189
2249.0,7.531,4.325,4.536,0.326,0.18,-0.204
2253.0,7.531,4.325,4.536,0.326,0.18,-0.204
2256.0,7.626,4.506,4.558,0.326,0.194,-0.218
2260.0,7.626,4.506,4.558,0.375,0.194,-0.218
2264.0,7.626,4.506,4.558,0.375,0.194,-0.218
2268.0,7.673,4.704,4.526,0.43,0.213,-0.225
2271.0,7.673,4.704,4.526,0.43,0.213,-0.225
2275.0,7.673,4.704,4.526,0.43,0.213,-0.225
2279.0,7.726,4.821,4.472,0.492,0.232,-0.208
2283.0,7.726,4.821,4.472,0.492,0.232,-0.208
2286.0,7.868,4.886,4.387,0.556,0.25,-0.18
2290.0,7.868,4.886,4.387,0.556,0.25,-0.18
2294.0,7.868,4.886,4.387,0.556,0.25,-0.18
2298.0,7.97,4.978,4.333,0.619,0.273,-0.162
2301.0,7.97,4.978,4.333,0.619,0.273,-0.162
2305.0,7.97,4.978,4.289,0.619,0.273,-0.162
2309.0,7.856,5.085,4.289,0.675,0.301,-0.151
2312.0,7.856,5.085,4.289,0.675,0.301,-0.151
2316.0,7.659,5.206,4.204,0.716,0.318,-0.125
2320.0,7.659,5.206,4.204,0.716,0.318,-0.125
2324.0,7.659,5.206,4.204,0.716,0.318,-0.125
2327.0,7.559,5.272,4.141,0.742,0.325,-0.1
2331.0,7.559,5.272,4.141,0.742,0.325,-0.1
2335.0,7.559,5.348,4.161,0.742,0.325,-0.1
2339.0,7.72,5.348,4.161,0.754,0.326,-0.097
2342.0,7.72,5.348,4.161,0.754,0.326,-0.097
2346.0,7.96,5.471,4.165,0.755,0.33,-0.113
2350.0,7.96,5.471,4.165,0.755,0.33,-0.113
2354.0,7.96,5.471,4.165,0.755,0.33,-0.113
2357.0,8.131,5.562,4.12,0.742,0.339,-0.126
2361.0,8.131,5.562,4.12,0.742,0.339,-0.126
2365.0,8.185,5.627,4.039,0.742,0.339,-0.126
2368.0,8.185,5.627,4.039,0.719,0.353,-0.132
2372.0,8.185,5.627,4.039,0.719,0.353,-0.132
2376.0,8.292,5.728,4.004,0.69,0.366,-0.141
2380.0,8.292,5.728,4.004,0.69,0.366,-0.141
2383.0,8.292,5.728,4.004,0.69,0.366,-0.141
2387.0,8.422,5.785,4.006,0.657,0.376,-0.16
2391.0,8.422,5.785,4.006,0.657,0.376,-0.16
2395.0,8.579,5.791,3.92,0.657,0.383,-0.178
2398.0,8.579,5.791,3.92,0.618,0.383,-0.178
2402.0,8.579,5.791,3.92,0.618,0.383,-0.178
2406.0,8.823,5.76,3.735,0.572,0.398,-0.195
2410.0,8.823,5.76,3.735,0.572,0.398,-0.195
2413.0,8.823,5.76,3.735,0.572,0.398,-0.195
2417.0,9.107,5.724,3.64,0.528,0.431,-0.219
2421.0,9.107,5.724,3.64,0.528,0.431,-0.219
2424.0,9.276,5.696,3.699,0.485,0.479,-0.246
2428.0,9.276,5.696,3.699,0.485,0.479,-0.246
2432.0,9.276,5.696,3.699,0.485,0.479,-0.246
2436.0,9.222,5.648,3.781,0.446,0.527,-0.265
2439.0,9.222,5.648,3.781,0.446,0.527,-0.265
2443.0,9.222,5.648,3.781,0.446,0.527,-0.265
2447.0,9.121,5.571,3.854,0.406,0.572,-0.276
2451.0,9.121,5.571,3.854,0.406,0.572,-0.276
2454.0,9.008,5.516,4.053,0.363,0.626,-0.297
2458.0,9.008,5.516,4.053,0.363,0.626,-0.297
2462.0,9.008,5.516,4.053,0.363,0.626,-0.297
2465.0,8.846,5.487,4.283,0.318,0.678,-0.327
2469.0,8.846,5.487,4.283,0.318,0.678,-0.327
2473.0,8.846,5.507,4.497,0.318,0.678,-0.327
2477.0,8.696,5.507,4.497,0.279,0.719,-0.355
2480.0,8.696,5.507,4.497,0.279,0.719,-0.355
2484.0,8.576,5.548,4.732,0.253,0.754,-0.39
2488.0,8.576,5.548,4.732,0.253,0.754,-0.39
2492.0,8.576,5.548,4.732,0.253,0.754,-0.39
2495.0,8.478,5.547,4.946,0.239,0.783,-0.436
2499.0,8.478,5.547,4.946,0.239,0.783,-0.436
2503.0,8.374,5.568,5.225,0.239,0.783,-0.436
2507.0,8.374,5.568,5.225,0.236,0.804,-0.49
2510.0,8.374,5.568,5.225,0.236,0.804,-0.49
2514.0,8.288,5.639,5.541,0.254,0.815,-0.555
2518.0,8.288,5.639,5.541,0.254,0.815,-0.555
2521.0,8.288,5.639,5.541,0.254,0.815,-0.555
2525.0,8.257,5.846,5.662,0.297,0.815,-0.618
2529.0,8.257,5.846,5.662,0.297,0.815,-0.618
2533.0,8.147,5.974,5.799,0.297,0.815,-0.651
2536.0,8.147,5.974,5.799,0.354,0.812,-0.651
2540.0,8.147,5.974,5.799,0.354,0.812,-0.651
2544.0,7.781,6.051,5.97,0.415,0.798,-0.656
2548.0,7.781,6.051,5.97,0.415,0.798,-0.656
2551.0,7.781,6.051,5.97,0.415,0.798,-0.656
2555.0,7.207,6.138,6.129,0.477,0.767,-0.636
2559.0,7.207,6.138,6.129,0.477,0.767,-0.636
2563.0,6.673,6.22,6.273,0.477,0.724,-0.585
2566.0,6.673,6.22,6.273,0.538,0.724,-0.585
2570.0,6.673,6.22,6.273,0.538,0.724,-0.585
2574.0,6.255,6.251,6.363,0.592,0.672,-0.516
2577.0,6.255,6.251,6.363,0.592,0.672,-0.516
2581.0,6.255,6.251,6.363,0.592,0.672,-0.516
2585.0,5.951,6.257,6.455,0.634,0.615,-0.448
2589.0,5.951,6.257,6.455,0.634,0.615,-0.448
2592.0,5.678,6.284,6.516,0.658,0.557,-0.397
2596.0,5.678,6.284,6.516,0.658,0.557,-0.397
2600.0,5.678,6.284,6.516,0.658,0.557,-0.397
2604.0,5.463,6.4,6.525,0.665,0.498,-0.366
2607.0,5.463,6.4,6.525,0.665,0.498,-0.366
2611.0,5.463,6.4,6.46,0.665,0.498,-0.366
2615.0,5.378,6.558,6.46,0.654,0.443,-0.355
2619.0,5.378,6.558,6.46,0.654,0.443,-0.355
2622.0,5.529,6.69,6.33,0.621,0.399,-0.371
2626.0,5.529,6.69,6.33,0.621,0.399,-0.371
2630.0,5.529,6.69,6.33,0.621,0.399,-0.371
2633.0,5.624,6.765,6.283,0.559,0.374,-0.416
2637.0,5.624,6.765,6.283,0.559,0.374,-0.416
2641.0,5.636,6.864,6.337,0.559,0.374,-0.416
2645.0,5.636,6.864,6.337,0.47,0.351,-0.476
2648.0,5.636,6.864,6.337,0.47,0.351,-0.476
2652.0,5.589,6.983,6.4,0.363,0.32,-0.536
2656.0,5.589,6.983,6.4,0.363,0.32,-0.536
2660.0,5.589,6.983,6.4,0.363,0.32,-0.536
2663.0,5.509,7.054,6.513,0.25,0.285,-0.574
2667.0,5.509,7.054,6.513,0.25,0.285,-0.574
2671.0,5.459,6.969,6.619,0.25,0.285,-0.584
2675.0,5.459,6.969,6.619,0.142,0.242,-0.584
2678.0,5.459,6.969,6.619,0.142,0.242,-0.584
2682.0,5.374,6.827,6.663,0.041,0.208,-0.584
2686.0,5.374,6.827,6.663,0.041,0.208,-0.584
2689.0,5.374,6.827,6.663,0.041,0.208,-0.584
2693.0,5.195,6.787,6.692,-0.056,0.19,-0.581
2697.0,5.195,6.787,6.692,-0.056,0.19,-0.581
2701.0,4.972,6.842,6.739,-0.15,0.18,-0.567
2705.0,4.972,6.842,6.739,-0.15,0.18,-0.567
2708.0,4.972,6.842,6.739,-0.15,0.18,-0.567
2712.0,4.749,6.912,6.761,-0.235,0.167,-0.543
2716.0,4.749,6.912,6.761,-0.235,0.167,-0.543
2720.0,4.54,6.872,6.79,-0.235,0.167,-0.543
2724.0,4.54,6.872,6.79,-0.306,0.149,-0.518
2728.0,4.54,6.872,6.79,-0.306,0.149,-0.518
2731.0,4.452,6.742,6.802,-0.357,0.129,-0.504
2735.0,4.452,6.742,6.802,-0.357,0.129,-0.504
2739.0,4.452,6.742,6.802,-0.357,0.129,-0.504
2743.0,4.356,6.603,6.872,-0.388,0.114,-0.505
2747.0,4.356,6.603,6.872,-0.388,0.114,-0.505
2750.0,4.237,6.495,6.901,-0.4,0.105,-0.508
2754.0,4.237,6.495,6.901,-0.4,0.105,-0.508
2758.0,4.237,6.495,6.901,-0.4,0.105,-0.508
2762.0,4.125,6.418,6.987,-0.394,0.091,-0.504
2766.0,4.125,6.418,6.987,-0.394,0.091,-0.504
2770.0,4.057,6.378,7.125,-0.394,0.091,-0.498
2773.0,4.057,6.378,7.125,-0.371,0.066,-0.498
2777.0,4.057,6.378,7.125,-0.371,0.066,-0.498
2781.0,4.053,6.379,7.332,-0.334,0.03,-0.498
2785.0,4.053,6.379,7.332,-0.334,0.03,-0.498
2789.0,4.053,6.379,7.507,-0.334,0.03,-0.498
2792.0,4.07,6.404,7.507,-0.285,-0.016,-0.49
2796.0,4.07,6.404,7.507,-0.285,-0.016,-0.49
2800.0,4.107,6.468,7.649,-0.226,-0.073,-0.467
2804.0,4.107,6.468,7.649,-0.226,-0.073,-0.467
2808.0,4.107,6.468,7.649,-0.226,-0.073,-0.467
2812.0,4.169,6.558,7.673,-0.163,-0.139,-0.426
2816.0,4.169,6.558,7.673,-0.163,-0.139,-0.426
2820.0,4.215,6.629,7.653,-0.103,-0.204,-0.373
2824.0,4.215,6.629,7.653,-0.103,-0.204,-0.373
2828.0,4.215,6.629,7.653,-0.103,-0.204,-0.373
2832.0,4.119,6.668,7.631,-0.053,-0.267,-0.318
2835.0,4.119,6.668,7.631,-0.053,-0.267,-0.318
2839.0,4.047,6.654,7.418,-0.02,-0.339,-0.252
2843.0,4.047,6.654,7.418,-0.02,-0.339,-0.252
2847.0,4.047,6.654,7.418,-0.02,-0.339,-0.252
2851.0,4.009,6.617,7.1,-0.011,-0.4,-0.202
2855.0,4.009,6.617,7.1,-0.011,-0.4,-0.202
2859.0,3.898,6.548,6.834,-0.032,-0.44,-0.166
2863.0,3.898,6.548,6.834,-0.032,-0.44,-0.166
2867.0,3.898,6.548,6.834,-0.032,-0.44,-0.166
2871.0,3.662,6.435,6.666,-0.086,-0.463,-0.139
2875.0,3.662,6.435,6.666,-0.086,-0.463,-0.139
2878.0,3.398,6.266,6.552,-0.163,-0.486,-0.113
2882.0,3.398,6.266,6.552,-0.163,-0.486,-0.113
2886.0,3.398,6.266,6.552,-0.163,-0.486,-0.113
2890.0,3.205,6.057,6.386,-0.25,-0.51,-0.1
2894.0,3.205,6.057,6.386,-0.25,-0.51,-0.1
2898.0,3.087,5.873,6.297,-0.25,-0.51,-0.106
2902.0,3.087,5.873,6.297,-0.339,-0.526,-0.106
2906.0,3.087,5.873,6.297,-0.339,-0.526,-0.106
2910.0,3.001,5.754,6.261,-0.415,-0.54,-0.121
2914.0,3.001,5.754,6.261,-0.415,-0.54,-0.121
2917.0,3.022,5.562,6.217,-0.415,-0.54,-0.121
2921.0,3.022,5.562,6.217,-0.47,-0.562,-0.121
2925.0,3.022,5.562,6.217,-0.47,-0.562,-0.121
2929.0,3.224,5.378,6.134,-0.499,-0.591,-0.115
2933.0,3.224,5.378,6.134,-0.499,-0.591,-0.115
2937.0,3.516,5.23,6.04,-0.499,-0.591,-0.115
2941.0,3.516,5.23,6.04,-0.494,-0.619,-0.12
2945.0,3.516,5.23,6.04,-0.494,-0.619,-0.12
2949.0,3.832,5.143,5.9,-0.464,-0.641,-0.125
2953.0,3.832,5.143,5.9,-0.464,-0.641,-0.125
2957.0,3.832,5.143,5.775,-0.464,-0.641,-0.125
2960.0,4.127,5.099,5.775,-0.416,-0.645,-0.122
2964.0,4.127,5.099,5.775,-0.416,-0.645,-0.122
2968.0,4.35,5.097,5.644,-0.36,-0.622,-0.107
2972.0,4.35,5.097,5.644,-0.36,-0.622,-0.107
2976.0,4.35,5.097,5.644,-0.36,-0.622,-0.107
2980.0,4.495,5.11,5.611,-0.3,-0.581,-0.086
2984.0,4.495,5.11,5.611,-0.3,-0.581,-0.086
2988.0,4.562,5.134,5.678,-0.245,-0.542,-0.066
2992.0,4.562,5.134,5.678,-0.245,-0.542,-0.066
2996.0,4.562,5.134,5.678,-0.245,-0.542,-0.066
3000.0,4.575,5.148,5.721,-0.195,-0.521,-0.05
