deltaTime,Acc_X,Acc_Y,Acc_Z,Gyro_X,Gyro_Y,Gyro_Z
0.0,-5.253,-2.326,2.879,-0.615,0.229,-0.074
3.0,-5.253,-2.326,2.879,-0.615,0.229,-0.074
6.0,-5.138,-2.488,3.103,-0.732,0.231,-0.127
9.0,-5.138,-2.488,3.103,-0.732,0.231,-0.127
12.0,-5.138,-2.488,3.103,-0.732,0.231,-0.127
15.0,-5.063,-2.952,3.435,-0.736,0.238,-0.11
18.0,-5.063,-2.952,3.435,-0.736,0.238,-0.11
21.0,-5.063,-2.952,3.435,-0.736,0.238,-0.11
24.0,-4.899,-3.339,3.854,-0.736,0.238,-0.11
27.0,-4.899,-3.339,3.854,-0.622,0.22,-0.077
30.0,-4.899,-3.339,3.854,-0.622,0.22,-0.077
34.0,-4.899,-3.339,3.854,-0.622,0.22,-0.077
37.0,-4.786,-3.311,4.061,-0.436,0.157,-0.089
41.0,-4.786,-3.311,4.061,-0.436,0.157,-0.089
45.0,-4.587,-2.876,3.899,-0.265,0.081,-0.16
49.0,-4.587,-2.876,3.899,-0.265,0.081,-0.16
53.0,-4.587,-2.876,3.899,-0.265,0.081,-0.16
56.0,-3.989,-2.064,3.468,-0.164,0.005,-0.266
60.0,-3.989,-2.064,3.468,-0.164,0.005,-0.266
64.0,-3.114,-1.659,2.954,-0.164,-0.044,-0.361
68.0,-3.114,-1.659,2.954,-0.129,-0.044,-0.361
72.0,-3.114,-1.659,2.954,-0.129,-0.044,-0.361
76.0,-2.704,-1.582,2.674,-0.081,-0.04,-0.408
80.0,-2.704,-1.582,2.674,-0.081,-0.04,-0.408
84.0,-2.706,-1.366,2.742,-0.081,-0.04,-0.429
88.0,-2.706,-1.366,2.742,0.004,-0.006,-0.429
91.0,-2.706,-1.366,2.742,0.004,-0.006,-0.429
95.0,-3.074,-0.864,3.214,0.092,0.003,-0.439
99.0,-3.074,-0.864,3.214,0.092,0.003,-0.439
103.0,-3.074,-0.864,3.214,0.092,0.003,-0.439
106.0,-3.68,-0.281,3.693,0.155,-0.052,-0.42
110.0,-3.68,-0.281,3.693,0.155,-0.052,-0.42
114.0,-3.953,-0.018,3.839,0.167,-0.157,-0.358
118.0,-3.953,-0.018,3.839,0.167,-0.157,-0.358
122.0,-3.953,-0.018,3.839,0.167,-0.157,-0.358
126.0,-4.125,0.288,3.648,0.14,-0.27,-0.267
130.0,-4.125,0.288,3.648,0.14,-0.27,-0.267
134.0,-4.42,0.748,3.397,0.031,-0.348,-0.183
137.0,-4.42,0.748,3.397,0.031,-0.348,-0.183
141.0,-4.42,0.748,3.397,0.031,-0.348,-0.183
145.0,-4.814,0.653,3.428,-0.184,-0.368,-0.111
149.0,-4.814,0.653,3.428,-0.184,-0.368,-0.111
153.0,-5.217,0.242,3.771,-0.184,-0.355,-0.03
157.0,-5.217,0.242,3.771,-0.401,-0.355,-0.03
161.0,-5.217,0.242,3.771,-0.401,-0.355,-0.03
165.0,-6.05,0.425,4.281,-0.606,-0.327,0.024
168.0,-6.05,0.425,4.281,-0.606,-0.327,0.024
172.0,-6.987,0.464,4.878,-0.606,-0.327,0.024
176.0,-6.987,0.464,4.878,-0.874,-0.315,0.025
180.0,-6.987,0.464,4.878,-0.874,-0.315,0.025
184.0,-8.023,0.09,5.494,-1.136,-0.322,0.012
188.0,-8.023,0.09,5.494,-1.136,-0.322,0.012
191.0,-8.023,0.09,5.494,-1.136,-0.322,0.012
195.0,-9.086,-0.475,5.963,-1.316,-0.325,0.029
199.0,-9.086,-0.475,5.963,-1.316,-0.325,0.029
203.0,-9.72,-0.901,6.34,-1.417,-0.305,0.083
207.0,-9.72,-0.901,6.34,-1.417,-0.305,0.083
211.0,-9.72,-0.901,6.34,-1.417,-0.305,0.083
215.0,-10.195,-1.334,6.883,-1.486,-0.249,0.169
219.0,-10.195,-1.334,6.883,-1.486,-0.249,0.169
223.0,-10.753,-1.852,7.707,-1.549,-0.166,0.268
227.0,-10.753,-1.852,7.707,-1.549,-0.166,0.268
231.0,-10.753,-1.852,7.707,-1.549,-0.166,0.268
235.0,-11.255,-2.346,8.798,-1.608,-0.076,0.363
239.0,-11.255,-2.346,8.798,-1.608,-0.076,0.363
243.0,-11.698,-2.581,10.017,-1.664,0.004,0.448
247.0,-11.698,-2.581,10.017,-1.664,0.004,0.448
251.0,-11.698,-2.581,10.017,-1.664,0.004,0.448
255.0,-12.103,-2.72,11.113,-1.748,0.052,0.509
259.0,-12.103,-2.72,11.113,-1.748,0.052,0.509
263.0,-12.192,-3.008,11.998,-1.869,0.062,0.534
267.0,-12.192,-3.008,11.998,-1.869,0.062,0.534
271.0,-12.192,-3.008,12.397,-1.869,0.062,0.534
275.0,-12.075,-3.344,12.397,-1.977,0.029,0.507
279.0,-12.075,-3.344,12.397,-1.977,0.029,0.507
283.0,-11.158,-4.287,12.095,-2.001,-0.046,0.433
287.0,-11.158,-4.287,12.095,-2.001,-0.046,0.433
291.0,-11.036,-5.209,11.671,-2.001,-0.046,0.433
295.0,-11.036,-5.209,11.671,-1.8,-0.096,0.361
299.0,-11.036,-5.209,11.671,-1.8,-0.096,0.361
303.0,-10.779,-5.167,10.738,-1.398,-0.128,0.314
307.0,-10.779,-5.167,10.738,-1.398,-0.128,0.314
311.0,-10.185,-5.244,10.047,-0.948,-0.112,0.309
315.0,-10.185,-5.244,10.047,-0.948,-0.112,0.309
319.0,-10.185,-5.244,10.047,-0.948,-0.112,0.309
323.0,-9.932,-5.228,9.334,-0.485,-0.041,0.351
327.0,-9.932,-5.228,9.334,-0.485,-0.041,0.351
331.0,-10.038,-4.936,8.561,-0.072,-0.013,0.37
335.0,-10.038,-4.936,8.561,-0.072,-0.013,0.37
339.0,-10.038,-4.936,8.561,-0.072,-0.013,0.37
343.0,-9.869,-4.864,7.987,0.249,-0.029,0.352
347.0,-9.869,-4.864,7.987,0.249,-0.029,0.352
351.0,-9.478,-4.765,7.625,0.509,-0.023,0.349
355.0,-9.478,-4.765,7.625,0.509,-0.023,0.349
358.0,-9.478,-4.765,7.625,0.509,-0.023,0.349
362.0,-9.224,-4.683,7.43,0.704,0.0,0.374
366.0,-9.224,-4.683,7.43,0.704,0.0,0.374
370.0,-9.199,-4.577,7.256,0.704,0.0,0.374
373.0,-9.199,-4.577,7.256,0.83,0.012,0.413
377.0,-9.199,-4.577,7.256,0.83,0.012,0.413
381.0,-9.247,-4.526,7.219,0.902,-0.009,0.449
385.0,-9.247,-4.526,7.219,0.902,-0.009,0.449
389.0,-9.247,-4.526,7.219,0.902,-0.009,0.449
392.0,-9.181,-4.393,7.159,0.939,-0.072,0.46
396.0,-9.181,-4.393,7.159,0.939,-0.072,0.46
400.0,-9.108,-4.211,6.981,0.964,-0.168,0.445
404.0,-9.108,-4.211,6.981,0.964,-0.168,0.445
408.0,-9.108,-4.211,6.981,0.964,-0.168,0.445
412.0,-9.143,-3.998,6.718,0.988,-0.285,0.422
415.0,-9.143,-3.998,6.718,0.988,-0.285,0.422
419.0,-9.145,-3.801,6.526,0.988,-0.285,0.422
423.0,-9.145,-3.801,6.526,0.997,-0.4,0.436
427.0,-9.145,-3.801,6.526,0.997,-0.4,0.436
431.0,-8.889,-3.977,6.838,0.981,-0.474,0.53
434.0,-8.889,-3.977,6.838,0.981,-0.474,0.53
438.0,-8.889,-3.977,6.838,0.981,-0.474,0.53
442.0,-8.935,-4.722,8.008,0.947,-0.496,0.69
446.0,-8.935,-4.722,8.008,0.947,-0.496,0.69
450.0,-9.817,-5.991,9.639,0.93,-0.514,0.878
454.0,-9.817,-5.991,9.639,0.93,-0.514,0.878
457.0,-9.817,-5.991,9.639,0.93,-0.514,0.878
461.0,-11.329,-6.901,11.234,0.976,-0.602,1.039
465.0,-11.329,-6.901,11.234,0.976,-0.602,1.039
469.0,-12.827,-7.384,12.786,1.083,-0.804,1.144
473.0,-12.827,-7.384,12.786,1.083,-0.804,1.144
477.0,-12.827,-7.384,12.786,1.083,-0.804,1.144
481.0,-13.836,-7.635,13.925,1.242,-1.114,1.18
485.0,-13.836,-7.635,13.925,1.242,-1.114,1.18
489.0,-14.13,-7.591,14.675,1.43,-1.501,1.137
493.0,-14.13,-7.591,14.675,1.43,-1.501,1.137
497.0,-14.13,-7.591,14.675,1.43,-1.501,1.137
501.0,-13.848,-7.407,14.809,1.611,-1.916,1.023
505.0,-13.848,-7.407,14.809,1.611,-1.916,1.023
509.0,-13.106,-6.879,14.886,1.74,-2.3,0.868
513.0,-13.106,-6.879,14.886,1.74,-2.3,0.868
517.0,-13.106,-6.879,14.886,1.74,-2.3,0.868
521.0,-12.504,-6.459,15.493,1.787,-2.638,0.71
525.0,-12.504,-6.459,15.493,1.787,-2.638,0.71
529.0,-12.485,-6.212,16.398,1.764,-2.978,0.552
533.0,-12.485,-6.212,16.398,1.764,-2.978,0.552
537.0,-12.485,-6.212,16.791,1.764,-2.978,0.552
541.0,-12.602,-5.94,16.791,1.701,-3.358,0.398
545.0,-12.602,-5.94,16.791,1.701,-3.358,0.398
549.0,-12.091,-5.836,16.711,1.602,-3.764,0.245
553.0,-12.091,-5.836,16.711,1.602,-3.764,0.245
557.0,-12.091,-5.711,16.399,1.602,-3.764,0.245
561.0,-11.087,-5.711,16.399,1.484,-4.15,0.072
565.0,-11.087,-5.711,16.399,1.484,-4.15,0.072
569.0,-9.968,-5.533,15.671,1.383,-4.486,-0.1
573.0,-9.968,-5.533,15.671,1.383,-4.486,-0.1
577.0,-8.579,-5.422,14.735,1.383,-4.486,-0.1
581.0,-8.579,-5.422,14.735,1.334,-4.748,-0.245
585.0,-8.579,-5.422,14.735,1.334,-4.748,-0.245
589.0,-7.058,-5.606,13.906,1.376,-4.926,-0.37
593.0,-7.058,-5.606,13.906,1.376,-4.926,-0.37
597.0,-5.935,-6.2,13.446,1.376,-4.926,-0.496
601.0,-5.935,-6.2,13.446,1.536,-4.99,-0.496
605.0,-5.935,-6.2,13.446,1.536,-4.99,-0.496
609.0,-5.332,-6.968,13.059,1.808,-4.992,-0.631
613.0,-5.332,-6.968,13.059,1.808,-4.992,-0.631
617.0,-4.896,-7.338,12.275,1.808,-4.992,-0.75
621.0,-4.896,-7.338,12.275,2.155,-4.992,-0.75
625.0,-4.896,-7.338,12.275,2.155,-4.992,-0.75
629.0,-3.911,-7.442,11.483,2.558,-4.992,-0.844
633.0,-3.911,-7.442,11.483,2.558,-4.992,-0.844
637.0,-2.956,-7.674,10.824,2.937,-4.992,-0.924
641.0,-2.956,-7.674,10.824,2.937,-4.992,-0.924
645.0,-2.956,-7.674,10.824,2.937,-4.992,-0.924
649.0,-2.249,-7.948,9.986,3.268,-4.992,-1.022
653.0,-2.249,-7.948,9.986,3.268,-4.992,-1.022
657.0,-1.738,-8.142,8.987,3.525,-4.992,-1.166
661.0,-1.738,-8.142,8.987,3.525,-4.992,-1.166
664.0,-1.738,-8.142,8.987,3.525,-4.992,-1.166
668.0,-1.151,-8.343,7.867,3.743,-4.992,-1.365
672.0,-1.151,-8.343,7.867,3.743,-4.992,-1.365
676.0,-0.572,-8.456,6.849,3.743,-4.992,-1.608
680.0,-0.572,-8.456,6.849,3.917,-4.992,-1.608
684.0,-0.572,-8.456,6.849,3.917,-4.992,-1.608
688.0,-0.379,-8.262,6.172,4.03,-4.985,-1.868
692.0,-0.379,-8.262,6.172,4.03,-4.985,-1.868
696.0,-0.37,-7.567,5.425,4.03,-4.985,-2.115
700.0,-0.37,-7.567,5.425,4.076,-4.916,-2.115
704.0,-0.37,-7.567,5.425,4.076,-4.916,-2.115
707.0,0.048,-7.055,4.752,4.065,-4.796,-2.322
711.0,0.048,-7.055,4.752,4.065,-4.796,-2.322
715.0,0.606,-6.915,4.332,4.065,-4.796,-2.322
719.0,0.606,-6.915,4.332,4.027,-4.673,-2.492
723.0,0.606,-6.915,4.332,4.027,-4.673,-2.492
727.0,0.626,-6.836,4.223,3.977,-4.55,-2.634
730.0,0.626,-6.836,4.223,3.977,-4.55,-2.634
734.0,0.626,-6.836,4.223,3.977,-4.55,-2.634
738.0,0.916,-6.26,3.77,3.967,-4.477,-2.738
742.0,0.916,-6.26,3.77,3.967,-4.477,-2.738
746.0,1.439,-5.553,3.182,3.983,-4.371,-2.787
749.0,1.439,-5.553,3.182,3.983,-4.371,-2.787
753.0,1.439,-5.553,3.182,3.983,-4.371,-2.787
757.0,2.121,-4.672,2.731,4.034,-4.243,-2.778
761.0,2.121,-4.672,2.731,4.034,-4.243,-2.778
765.0,2.553,-3.473,2.579,4.034,-4.243,-2.735
769.0,2.553,-3.473,2.579,4.11,-4.092,-2.735
772.0,2.553,-3.473,2.579,4.11,-4.092,-2.735
776.0,2.798,-2.115,3.025,4.196,-3.935,-2.645
780.0,2.798,-2.115,3.025,4.196,-3.935,-2.645
784.0,2.798,-2.115,3.714,4.196,-3.935,-2.645
788.0,2.909,-0.651,3.714,4.297,-3.788,-2.499
791.0,2.909,-0.651,3.714,4.297,-3.788,-2.499
795.0,2.947,0.925,4.697,4.446,-3.646,-2.295
799.0,2.947,0.925,4.697,4.446,-3.646,-2.295
803.0,2.947,0.925,4.697,4.446,-3.646,-2.295
806.0,3.184,2.579,5.091,4.662,-3.523,-2.033
810.0,3.184,2.579,5.091,4.662,-3.523,-2.033
814.0,3.912,4.153,4.834,4.662,-3.523,-2.033
818.0,3.912,4.153,4.834,4.878,-3.402,-1.699
821.0,3.912,4.153,4.834,4.878,-3.402,-1.699
825.0,4.906,5.872,4.001,4.985,-3.215,-1.314
829.0,4.906,5.872,4.001,4.985,-3.215,-1.314
833.0,4.906,5.872,4.001,4.985,-3.215,-1.314
836.0,5.995,8.06,2.361,4.995,-2.939,-0.884
840.0,5.995,8.06,2.361,4.995,-2.939,-0.884
844.0,7.689,9.979,0.766,4.995,-2.572,-0.384
848.0,7.689,9.979,0.766,4.995,-2.572,-0.384
851.0,7.689,9.979,0.766,4.995,-2.572,-0.384
855.0,9.434,11.824,-0.564,4.993,-2.085,0.135
859.0,9.434,11.824,-0.564,4.993,-2.085,0.135
863.0,9.434,11.824,-0.564,4.993,-2.085,0.135
866.0,10.957,13.275,-1.775,4.957,-1.475,0.691
870.0,10.957,13.275,-1.775,4.957,-1.475,0.691
874.0,11.967,14.42,-2.46,4.861,-0.77,1.274
878.0,11.967,14.42,-2.46,4.861,-0.77,1.274
882.0,11.967,14.42,-2.46,4.861,-0.77,1.274
886.0,12.87,15.733,-3.358,4.729,-0.014,1.86
890.0,12.87,15.733,-3.358,4.729,-0.014,1.86
894.0,13.445,16.902,-4.198,4.547,0.822,2.449
898.0,13.445,16.902,-4.198,4.547,0.822,2.449
901.0,13.445,16.902,-4.198,4.547,0.822,2.449
905.0,14.277,18.164,-5.937,4.318,1.68,3.015
909.0,14.277,18.164,-5.937,4.318,1.68,3.015
913.0,14.764,18.614,-6.122,4.318,2.619,3.589
917.0,14.764,18.614,-6.122,4.046,2.619,3.589
921.0,14.764,18.614,-6.122,4.046,2.619,3.589
924.0,14.13,18.447,-4.835,3.703,3.533,4.145
928.0,14.13,18.447,-4.835,3.703,3.533,4.145
932.0,14.13,18.447,-2.775,3.703,3.533,4.145
936.0,11.863,17.3,-2.775,3.258,4.334,4.688
940.0,11.863,17.3,-2.775,3.258,4.334,4.688
943.0,7.993,15.602,-0.896,2.737,4.907,4.993
947.0,7.993,15.602,-0.896,2.737,4.907,4.993
951.0,7.993,15.602,-0.896,2.737,4.907,4.993
955.0,3.404,13.904,0.296,2.174,5.015,5.013
958.0,3.404,13.904,0.296,2.174,5.015,5.013
962.0,-1.464,11.726,1.6,2.174,5.015,5.013
966.0,-1.464,11.726,1.6,1.521,5.015,5.013
969.0,-1.464,11.726,1.6,1.521,5.015,5.013
973.0,-7.446,8.772,4.314,0.66,5.015,5.013
977.0,-7.446,8.772,4.314,0.66,5.015,5.013
980.0,-7.446,8.772,4.314,0.66,5.015,5.013
984.0,-15.912,6.468,7.544,-0.454,5.015,5.012
988.0,-15.912,6.468,7.544,-0.454,5.015,5.012
992.0,-19.595,3.401,7.333,-0.454,5.015,4.765
996.0,-19.595,3.401,7.333,-1.838,4.922,4.765
999.0,-19.595,3.401,7.333,-1.838,4.922,4.765
1003.0,-19.6,-3.331,6.019,-3.388,4.021,3.775
1007.0,-19.6,-3.331,6.019,-3.388,4.021,3.775
1011.0,-19.6,-8.064,6.632,-3.388,4.021,3.775
1015.0,-19.6,-8.064,6.632,-4.452,2.244,2.128
1019.0,-19.6,-8.064,6.632,-4.452,2.244,2.128
1023.0,-19.208,-9.412,5.442,-4.841,0.494,0.345
1027.0,-19.208,-9.412,5.442,-4.841,0.494,0.345
1031.0,-14.326,-11.551,4.617,-4.841,0.494,0.345
1035.0,-14.326,-11.551,4.617,-4.834,-0.462,-1.074
1039.0,-14.326,-11.551,4.617,-4.834,-0.462,-1.074
1044.0,-10.504,-13.78,4.38,-4.481,-0.932,-2.283
1048.0,-10.504,-13.78,4.38,-4.481,-0.932,-2.283
1052.0,-7.937,-14.553,3.502,-3.838,-1.225,-3.408
1056.0,-7.937,-14.553,3.502,-3.838,-1.225,-3.408
1061.0,-5.684,-14.528,3.357,-3.838,-1.225,-3.408
1065.0,-5.684,-14.528,3.357,-3.002,-1.354,-4.369
1069.0,-5.684,-14.528,3.357,-3.002,-1.354,-4.369
1073.0,-4.392,-14.099,3.243,-2.043,-1.368,-4.929
1077.0,-4.392,-14.099,3.243,-2.043,-1.368,-4.929
1081.0,-4.181,-13.205,3.042,-0.991,-1.303,-4.995
1086.0,-4.181,-13.205,3.042,-0.991,-1.303,-4.995
1090.0,-4.181,-13.205,3.042,-0.991,-1.303,-4.995
1094.0,-4.58,-11.471,3.069,0.153,-1.24,-4.995
1098.0,-4.58,-11.471,3.069,0.153,-1.24,-4.995
1102.0,-5.013,-8.405,3.02,1.304,-1.252,-4.995
1106.0,-5.013,-8.405,3.02,1.304,-1.252,-4.995
1110.0,-5.037,-4.577,2.877,1.304,-1.252,-4.995
1114.0,-5.037,-4.577,2.877,2.28,-1.346,-4.995
1118.0,-5.037,-4.577,2.877,2.28,-1.346,-4.995
1122.0,-4.636,-1.147,2.983,2.942,-1.496,-4.995
1126.0,-4.636,-1.147,2.983,2.942,-1.496,-4.995
1130.0,-3.861,1.633,3.483,2.942,-1.496,-4.995
1134.0,-3.861,1.633,3.483,3.295,-1.696,-4.995
1138.0,-3.861,1.633,3.483,3.295,-1.696,-4.995
1142.0,-2.908,4.616,3.877,3.434,-1.92,-4.995
1146.0,-2.908,4.616,3.877,3.434,-1.92,-4.995
1150.0,-1.655,7.45,4.172,3.434,-1.92,-4.995
1153.0,-1.655,7.45,4.172,3.453,-2.122,-4.986
1157.0,-1.655,7.45,4.172,3.453,-2.122,-4.986
1161.0,-0.035,9.373,4.02,3.397,-2.32,-4.871
1165.0,-0.035,9.373,4.02,3.397,-2.32,-4.871
1169.0,-0.035,11.204,3.447,3.397,-2.32,-4.871
1173.0,1.531,11.204,3.447,3.256,-2.483,-4.681
1177.0,1.531,11.204,3.447,3.256,-2.483,-4.681
1181.0,2.512,13.505,2.975,3.043,-2.57,-4.507
1185.0,2.512,13.505,2.975,3.043,-2.57,-4.507
1189.0,2.512,13.505,2.498,3.043,-2.57,-4.507
1193.0,2.825,15.885,2.498,2.772,-2.642,-4.324
1196.0,2.825,15.885,2.498,2.772,-2.642,-4.324
1200.0,4.059,18.733,1.572,2.427,-2.703,-4.099
1204.0,4.059,18.733,1.572,2.427,-2.703,-4.099
1208.0,4.059,18.733,1.572,2.427,-2.703,-4.099
1212.0,5.928,19.595,0.304,1.99,-2.698,-3.83
1216.0,5.928,19.595,0.304,1.99,-2.698,-3.83
1220.0,6.186,19.596,-1.423,1.297,-2.632,-3.466
1224.0,6.186,19.596,-1.423,1.297,-2.632,-3.466
1228.0,6.186,19.596,-1.423,1.297,-2.632,-3.466
1232.0,7.274,19.596,-3.957,0.33,-2.498,-3.012
1236.0,7.274,19.596,-3.957,0.33,-2.498,-3.012
1240.0,10.188,19.596,-6.997,-0.685,-2.233,-2.52
1244.0,10.188,19.596,-6.997,-0.685,-2.233,-2.52
1248.0,10.732,19.596,-8.545,-0.685,-2.233,-2.52
1252.0,10.732,19.596,-8.545,-1.455,-1.714,-2.071
1257.0,10.732,19.596,-8.545,-1.455,-1.714,-2.071
1261.0,8.678,19.596,-7.54,-1.807,-1.01,-1.596
1265.0,8.678,19.596,-7.54,-1.807,-1.01,-1.596
1269.0,7.804,19.596,-4.691,-1.675,-0.377,-1.014
1273.0,7.804,19.596,-4.691,-1.675,-0.377,-1.014
1277.0,7.804,19.596,-4.691,-1.675,-0.377,-1.014
1281.0,7.008,19.596,-2.245,-1.053,0.126,-0.281
1285.0,7.008,19.596,-2.245,-1.053,0.126,-0.281
1289.0,6.567,19.596,-0.785,-0.096,0.609,0.579
1293.0,6.567,19.596,-0.785,-0.096,0.609,0.579
1297.0,6.567,19.596,-0.785,-0.096,0.609,0.579
1301.0,7.383,19.596,-1.424,0.985,1.105,1.471
1305.0,7.383,19.596,-1.424,0.985,1.105,1.471
1308.0,9.291,19.596,-4.758,1.994,1.678,2.357
1312.0,9.291,19.596,-4.758,1.994,1.678,2.357
1316.0,9.291,19.596,-4.758,1.994,1.678,2.357
1320.0,11.772,19.596,-8.965,2.721,2.444,3.277
1324.0,11.772,19.596,-8.965,2.721,2.444,3.277
1328.0,13.248,19.596,-10.63,2.986,3.402,4.186
1332.0,13.248,19.596,-10.63,2.986,3.402,4.186
1336.0,13.248,19.596,-10.63,2.986,3.402,4.186
1340.0,13.437,19.596,-10.397,2.82,4.354,4.845
1344.0,13.437,19.596,-10.397,2.82,4.354,4.845
1348.0,12.45,19.596,-9.284,2.255,4.958,5.013
1352.0,12.45,19.596,-9.284,2.255,4.958,5.013
1356.0,12.45,19.596,-9.284,2.255,4.958,5.013
1359.0,9.939,19.596,-7.68,1.448,5.015,5.013
1363.0,9.939,19.596,-7.68,1.448,5.015,5.013
1367.0,6.175,19.596,-5.945,1.448,5.015,5.013
1371.0,6.175,19.596,-5.945,0.639,5.015,5.013
1375.0,6.175,19.596,-5.945,0.639,5.015,5.013
1379.0,1.79,19.596,-3.726,-0.1,5.015,5.013
1382.0,1.79,19.596,-3.726,-0.1,5.015,5.013
1386.0,-3.6,18.977,-1.565,-0.1,5.015,5.013
1390.0,-3.6,18.977,-1.565,-0.785,5.015,5.013
1394.0,-3.6,18.977,-1.565,-0.785,5.015,5.013
1398.0,-10.808,15.241,2.267,-1.515,5.015,5.013
1402.0,-10.808,15.241,2.267,-1.515,5.015,5.013
1406.0,-18.504,12.974,5.596,-1.515,5.015,5.013
1410.0,-18.504,12.974,5.596,-2.401,5.015,5.013
1414.0,-18.504,12.974,5.596,-2.401,5.015,5.013
1418.0,-19.6,11.443,5.342,-3.522,5.015,5.013
1422.0,-19.6,11.443,5.342,-3.522,5.015,5.013
1426.0,-19.6,3.101,3.047,-3.522,4.958,5.013
1430.0,-19.6,3.101,3.047,-4.715,4.958,5.013
1434.0,-19.6,3.101,3.047,-4.715,4.958,5.013
1438.0,-19.6,-6.451,4.573,-5.013,3.842,5.013
1442.0,-19.6,-6.451,4.573,-5.013,3.842,5.013
1446.0,-19.6,-9.909,4.217,-5.013,1.745,5.013
1450.0,-19.6,-9.909,4.217,-5.013,1.745,5.013
1454.0,-19.6,-9.909,4.217,-5.013,1.745,5.013
1458.0,-16.056,-11.903,0.814,-5.013,0.298,4.722
1462.0,-16.056,-11.903,0.814,-5.013,0.298,4.722
1466.0,-8.011,-12.591,0.728,-5.013,-0.348,3.108
1470.0,-8.011,-12.591,0.728,-5.013,-0.348,3.108
1474.0,-8.011,-12.591,0.728,-5.013,-0.348,3.108
1478.0,-4.531,-12.32,2.468,-4.892,-0.847,1.312
1482.0,-4.531,-12.32,2.468,-4.892,-0.847,1.312
1486.0,-1.947,-11.91,2.835,-4.1,-1.403,-0.057
1491.0,-1.947,-11.91,2.835,-4.1,-1.403,-0.057
1495.0,1.382,-10.763,1.752,-4.1,-1.403,-0.057
1499.0,1.382,-10.763,1.752,-2.868,-1.816,-1.095
1503.0,1.382,-10.763,1.752,-2.868,-1.816,-1.095
1507.0,4.997,-9.062,0.757,-1.528,-1.854,-1.797
1511.0,4.997,-9.062,0.757,-1.528,-1.854,-1.797
1515.0,8.879,-6.525,0.492,-1.528,-1.516,-2.14
1519.0,8.879,-6.525,0.492,-0.248,-1.516,-2.14
1523.0,8.879,-6.525,0.492,-0.248,-1.516,-2.14
1527.0,11.361,-3.684,1.455,0.914,-0.906,-2.123
1531.0,11.361,-3.684,1.455,0.914,-0.906,-2.123
1535.0,12.142,-1.625,2.371,1.945,-0.361,-1.768
1539.0,12.142,-1.625,2.371,1.945,-0.361,-1.768
1543.0,12.142,-1.625,2.371,1.945,-0.361,-1.768
1547.0,11.113,0.027,2.617,2.808,-0.051,-1.236
1551.0,11.113,0.027,2.617,2.808,-0.051,-1.236
1555.0,9.352,1.582,1.911,3.444,0.051,-0.709
1559.0,9.352,1.582,1.911,3.444,0.051,-0.709
1562.0,9.352,1.582,1.911,3.444,0.051,-0.709
1566.0,8.658,2.828,1.244,3.817,0.078,-0.263
1570.0,8.658,2.828,1.244,3.817,0.078,-0.263
1573.0,8.658,2.828,0.795,3.817,0.078,-0.263
1577.0,8.52,4.42,0.795,3.943,0.153,0.047
1581.0,8.52,4.42,0.795,3.943,0.153,0.047
1585.0,8.478,6.533,0.601,3.826,0.252,0.244
1588.0,8.478,6.533,0.601,3.826,0.252,0.244
1592.0,8.478,6.533,0.601,3.826,0.252,0.244
1595.0,8.648,8.238,0.644,3.442,0.311,0.365
1599.0,8.648,8.238,0.644,3.442,0.311,0.365
1603.0,8.648,8.238,0.644,3.442,0.311,0.365
1606.0,9.016,9.188,0.991,2.788,0.323,0.408
1610.0,9.016,9.188,0.991,2.788,0.323,0.408
1614.0,9.229,9.477,1.875,2.788,0.323,0.346
1617.0,9.229,9.477,1.875,1.945,0.306,0.346
1621.0,9.229,9.477,1.875,1.945,0.306,0.346
1625.0,9.013,8.739,2.953,1.031,0.263,0.163
1628.0,9.013,8.739,2.953,1.031,0.263,0.163
1632.0,9.013,8.739,2.953,1.031,0.263,0.163
1636.0,8.28,7.527,3.604,0.163,0.211,-0.112
1639.0,8.28,7.527,3.604,0.163,0.211,-0.112
1643.0,7.405,6.248,3.97,0.163,0.211,-0.112
1647.0,7.405,6.248,3.97,-0.572,0.185,-0.381
1651.0,7.405,6.248,3.97,-0.572,0.185,-0.381
1654.0,6.304,5.121,4.266,-1.14,0.184,-0.592
1658.0,6.304,5.121,4.266,-1.14,0.184,-0.592
1662.0,6.304,5.121,4.266,-1.14,0.184,-0.592
1666.0,5.109,4.025,4.086,-1.546,0.176,-0.735
1670.0,5.109,4.025,4.086,-1.546,0.176,-0.735
1673.0,4.078,3.025,3.462,-1.815,0.147,-0.838
1677.0,4.078,3.025,3.462,-1.815,0.147,-0.838
1681.0,4.078,3.025,3.462,-1.815,0.147,-0.838
1685.0,3.524,2.142,2.626,-1.987,0.099,-0.942
1689.0,3.524,2.142,2.626,-1.987,0.099,-0.942
1693.0,3.357,1.512,1.963,-1.987,0.099,-1.088
1696.0,3.357,1.512,1.963,-2.105,0.056,-1.088
1700.0,3.357,1.512,1.963,-2.105,0.056,-1.088
1704.0,3.321,1.209,1.65,-2.199,0.037,-1.287
1708.0,3.321,1.209,1.65,-2.199,0.037,-1.287
1712.0,3.321,1.209,1.516,-2.199,0.037,-1.287
1715.0,3.156,1.178,1.516,-2.294,0.046,-1.511
1719.0,3.156,1.178,1.516,-2.294,0.046,-1.511
1723.0,2.725,1.237,1.412,-2.407,0.089,-1.721
1727.0,2.725,1.237,1.412,-2.407,0.089,-1.721
1731.0,2.725,1.237,1.412,-2.407,0.089,-1.721
1735.0,2.038,1.247,1.241,-2.544,0.162,-1.9
1738.0,2.038,1.247,1.241,-2.544,0.162,-1.9
1742.0,1.299,1.194,1.023,-2.697,0.261,-2.045
1746.0,1.299,1.194,1.023,-2.697,0.261,-2.045
1750.0,1.299,1.194,1.023,-2.697,0.261,-2.045
1754.0,0.675,1.028,0.87,-2.853,0.401,-2.16
1758.0,0.675,1.028,0.87,-2.853,0.401,-2.16
1761.0,0.158,0.736,0.791,-2.853,0.401,-2.16
1765.0,0.158,0.736,0.791,-2.993,0.58,-2.255
1769.0,0.158,0.736,0.791,-2.993,0.58,-2.255
1773.0,-0.044,0.273,0.763,-3.097,0.775,-2.326
1777.0,-0.044,0.273,0.763,-3.097,0.775,-2.326
1781.0,-0.044,0.273,0.763,-3.097,0.775,-2.326
1784.0,0.036,-0.328,0.775,-3.158,0.987,-2.401
1788.0,0.036,-0.328,0.775,-3.158,0.987,-2.401
1792.0,0.417,-0.954,0.626,-3.174,1.223,-2.495
1796.0,0.417,-0.954,0.626,-3.174,1.223,-2.495
1800.0,0.417,-0.954,0.626,-3.174,1.223,-2.495
1804.0,0.982,-1.456,0.587,-3.145,1.516,-2.616
1808.0,0.982,-1.456,0.587,-3.145,1.516,-2.616
1812.0,1.383,-1.767,0.823,-3.067,1.864,-2.747
1816.0,1.383,-1.767,0.823,-3.067,1.864,-2.747
1820.0,1.383,-1.767,0.823,-3.067,1.864,-2.747
1824.0,1.382,-1.997,1.115,-2.947,2.223,-2.834
1827.0,1.382,-1.997,1.115,-2.947,2.223,-2.834
1831.0,1.021,-2.249,1.152,-2.809,2.555,-2.847
1835.0,1.021,-2.249,1.152,-2.809,2.555,-2.847
1839.0,1.021,-2.249,1.152,-2.809,2.555,-2.847
1843.0,0.459,-2.464,0.957,-2.669,2.873,-2.799
1847.0,0.459,-2.464,0.957,-2.669,2.873,-2.799
1851.0,-0.183,-2.549,0.768,-2.535,3.203,-2.713
1855.0,-0.183,-2.549,0.768,-2.535,3.203,-2.713
1859.0,-0.183,-2.549,0.768,-2.535,3.203,-2.713
1863.0,-0.607,-2.639,0.586,-2.415,3.539,-2.587
1867.0,-0.607,-2.639,0.586,-2.415,3.539,-2.587
1871.0,-0.617,-2.639,0.622,-2.298,3.902,-2.437
1875.0,-0.617,-2.639,0.622,-2.298,3.902,-2.437
1879.0,-0.617,-2.639,0.622,-2.298,3.902,-2.437
1883.0,-0.5,-2.064,0.766,-2.161,4.302,-2.256
1887.0,-0.5,-2.064,0.766,-2.161,4.302,-2.256
1891.0,-0.206,-1.122,0.593,-1.993,4.696,-1.961
1895.0,-0.206,-1.122,0.593,-1.993,4.696,-1.961
1899.0,-0.206,-1.122,0.593,-1.993,4.696,-1.961
1903.0,0.464,-0.233,0.081,-1.795,4.98,-1.547
1907.0,0.464,-0.233,0.081,-1.795,4.98,-1.547
1911.0,1.007,0.714,-0.15,-1.573,5.015,-1.084
1915.0,1.007,0.714,-0.15,-1.573,5.015,-1.084
1918.0,1.007,0.714,-0.15,-1.573,5.015,-1.084
1922.0,0.793,1.357,0.839,-1.342,5.015,-0.593
1926.0,0.793,1.357,0.839,-1.342,5.015,-0.593
1930.0,-0.062,1.055,2.501,-1.117,5.015,-0.099
1934.0,-0.062,1.055,2.501,-1.117,5.015,-0.099
1938.0,-0.062,1.055,2.501,-1.117,5.015,-0.099
1942.0,-1.279,0.022,3.879,-0.918,5.015,0.307
1946.0,-1.279,0.022,3.879,-0.918,5.015,0.307
1949.0,-2.825,-1.594,4.911,-0.918,5.015,0.532
1953.0,-2.825,-1.594,4.911,-0.76,5.015,0.532
1957.0,-2.825,-1.594,4.911,-0.76,5.015,0.532
1961.0,-4.972,-3.382,5.565,-0.663,5.015,0.519
1965.0,-4.972,-3.382,5.565,-0.663,5.015,0.519
1969.0,-7.805,-4.613,5.061,-0.663,5.015,0.308
1973.0,-7.805,-4.613,5.061,-0.657,5.015,0.308
1977.0,-7.805,-4.613,5.061,-0.657,5.015,0.308
1981.0,-11.767,-4.242,3.834,-0.762,5.015,0.018
1985.0,-11.767,-4.242,3.834,-0.762,5.015,0.018
1989.0,-15.227,-2.902,3.387,-0.762,5.015,0.018
1993.0,-15.227,-2.902,3.387,-0.965,5.015,-0.184
1997.0,-15.227,-2.902,3.387,-0.965,5.015,-0.184
2001.0,-18.089,-1.429,3.054,-1.194,5.015,-0.191
2005.0,-18.089,-1.429,3.054,-1.194,5.015,-0.191
2009.0,-19.561,-1.123,3.47,-1.39,5.015,0.015
2013.0,-19.561,-1.123,3.47,-1.39,5.015,0.015
2017.0,-19.561,-1.123,3.47,-1.39,5.015,0.015
2021.0,-19.6,-1.753,4.558,-1.488,5.015,0.299
2025.0,-19.6,-1.753,4.558,-1.488,5.015,0.299
2029.0,-19.6,-2.539,5.975,-1.392,5.015,0.499
2033.0,-19.6,-2.539,5.975,-1.392,5.015,0.499
2037.0,-19.6,-2.539,5.975,-1.392,5.015,0.499
2041.0,-19.6,-3.357,7.126,-1.088,5.015,0.55
2045.0,-19.6,-3.357,7.126,-1.088,5.015,0.55
2049.0,-19.6,-3.619,7.672,-0.68,5.015,0.465
2053.0,-19.6,-3.619,7.672,-0.68,5.015,0.465
2057.0,-19.6,-3.619,7.672,-0.68,5.015,0.465
2061.0,-19.6,-3.463,7.301,-0.321,5.015,0.316
2065.0,-19.6,-3.463,7.301,-0.321,5.015,0.316
2069.0,-19.6,-2.859,6.288,-0.122,5.015,0.135
2073.0,-19.6,-2.859,6.288,-0.122,5.015,0.135
2077.0,-19.6,-2.859,6.288,-0.122,5.015,0.135
2081.0,-19.6,-1.863,5.197,-0.108,4.991,-0.047
2085.0,-19.6,-1.863,5.197,-0.108,4.991,-0.047
2089.0,-19.6,-1.053,4.317,-0.266,4.848,-0.214
2093.0,-19.6,-1.053,4.317,-0.266,4.848,-0.214
2097.0,-19.6,-0.493,3.769,-0.266,4.848,-0.214
2101.0,-19.6,-0.493,3.769,-0.567,4.71,-0.407
2105.0,-19.6,-0.493,3.769,-0.567,4.71,-0.407
2109.0,-19.6,0.075,3.433,-0.964,4.605,-0.661
2113.0,-19.6,0.075,3.433,-0.964,4.605,-0.661
2117.0,-19.6,0.558,3.413,-1.405,4.516,-0.96
2121.0,-19.6,0.558,3.413,-1.405,4.516,-0.96
2125.0,-19.6,0.558,3.413,-1.405,4.516,-0.96
2129.0,-19.6,0.81,3.596,-1.839,4.419,-1.26
2133.0,-19.6,0.81,3.596,-1.839,4.419,-1.26
2137.0,-19.6,0.782,3.793,-2.232,4.316,-1.501
2141.0,-19.6,0.782,3.793,-2.232,4.316,-1.501
2145.0,-19.6,0.782,3.793,-2.232,4.316,-1.501
2149.0,-19.6,0.45,3.934,-2.547,4.23,-1.637
2153.0,-19.6,0.45,3.934,-2.547,4.23,-1.637
2157.0,-19.6,-0.06,4.169,-2.748,4.167,-1.681
2161.0,-19.6,-0.06,4.169,-2.748,4.167,-1.681
2165.0,-19.6,-0.06,4.169,-2.748,4.167,-1.681
2169.0,-19.6,-0.683,4.614,-2.813,4.109,-1.67
2174.0,-19.6,-0.683,4.614,-2.813,4.109,-1.67
2178.0,-19.6,-1.269,4.963,-2.732,4.033,-1.633
2182.0,-19.6,-1.269,4.963,-2.732,4.033,-1.633
2186.0,-19.6,-1.717,5.099,-2.732,4.033,-1.633
2190.0,-19.6,-1.717,5.099,-2.519,3.937,-1.58
2194.0,-19.6,-1.717,5.099,-2.519,3.937,-1.58
2198.0,-19.6,-1.815,5.473,-2.198,3.829,-1.512
2202.0,-19.6,-1.815,5.473,-2.198,3.829,-1.512
2206.0,-19.6,-1.554,5.787,-1.796,3.668,-1.412
2210.0,-19.6,-1.554,5.787,-1.796,3.668,-1.412
2214.0,-19.6,-1.554,5.787,-1.796,3.668,-1.412
2218.0,-19.6,-0.98,5.717,-1.372,3.447,-1.264
2223.0,-19.6,-0.98,5.717,-1.372,3.447,-1.264
2227.0,-19.568,-0.205,5.238,-0.978,3.212,-1.042
2231.0,-19.568,-0.205,5.238,-0.978,3.212,-1.042
2235.0,-19.568,-0.205,3.413,-0.978,3.212,-1.042
2239.0,-19.558,1.093,3.413,-0.632,3.044,-0.72
2243.0,-19.558,1.093,3.413,-0.632,3.044,-0.72
2247.0,-19.283,0.062,4.79,-0.254,2.943,-0.356
2251.0,-19.283,0.062,4.79,-0.254,2.943,-0.356
2255.0,-19.283,3.475,5.899,-0.254,2.943,-0.356
2259.0,-19.232,3.475,5.899,-0.175,2.573,-0.084
2263.0,-19.232,3.475,5.899,-0.175,2.573,-0.084
2267.0,-19.6,6.757,7.37,-0.544,2.099,0.329
2271.0,-19.6,6.757,7.37,-0.544,2.099,0.329
2275.0,-19.6,6.831,8.736,-0.544,2.099,0.329
2279.0,-19.6,6.831,8.736,-1.216,1.624,0.765
2282.0,-19.6,6.831,8.736,-1.216,1.624,0.765
2286.0,-19.559,5.344,8.681,-1.993,1.172,1.028
2290.0,-19.559,5.344,8.681,-1.993,1.172,1.028
2294.0,-19.559,5.344,7.752,-1.993,1.172,1.028
2298.0,-17.548,3.464,7.752,-2.712,0.865,1.132
2302.0,-17.548,3.464,7.752,-2.712,0.865,1.132
2306.0,-15.263,1.997,6.656,-3.314,0.772,1.138
2310.0,-15.263,1.997,6.656,-3.314,0.772,1.138
2314.0,-15.263,1.997,6.656,-3.314,0.772,1.138
2318.0,-14.332,1.138,5.342,-3.82,0.843,1.092
2321.0,-14.332,1.138,5.342,-3.82,0.843,1.092
2325.0,-14.356,0.677,4.11,-4.243,0.945,1.062
2329.0,-14.356,0.677,4.11,-4.243,0.945,1.062
2333.0,-14.356,0.677,4.11,-4.243,0.945,1.062
2337.0,-14.712,0.138,3.406,-4.562,0.96,1.089
2341.0,-14.712,0.138,3.406,-4.562,0.96,1.089
2345.0,-15.118,-0.776,2.667,-4.742,0.828,1.154
2349.0,-15.118,-0.776,2.667,-4.742,0.828,1.154
2353.0,-15.118,-0.776,2.667,-4.742,0.828,1.154
2357.0,-15.317,-1.787,1.4,-4.765,0.602,1.209
2361.0,-15.317,-1.787,1.4,-4.765,0.602,1.209
2365.0,-15.047,-2.509,-0.173,-4.628,0.362,1.242
2369.0,-15.047,-2.509,-0.173,-4.628,0.362,1.242
2373.0,-15.047,-2.509,-1.353,-4.628,0.362,1.242
2377.0,-14.123,-3.035,-1.353,-4.336,0.16,1.291
2381.0,-14.123,-3.035,-1.353,-4.336,0.16,1.291
2385.0,-12.564,-3.706,-1.963,-3.897,0.0,1.367
2389.0,-12.564,-3.706,-1.963,-3.897,0.0,1.367
2393.0,-10.724,-4.4,-2.153,-3.897,0.0,1.435
2398.0,-10.724,-4.4,-2.153,-3.323,-0.124,1.435
2402.0,-10.724,-4.4,-2.153,-3.323,-0.124,1.435
2406.0,-9.173,-4.948,-2.218,-2.649,-0.199,1.454
2410.0,-9.173,-4.948,-2.218,-2.649,-0.199,1.454
2414.0,-8.208,-5.285,-2.213,-1.924,-0.219,1.417
2418.0,-8.208,-5.285,-2.213,-1.924,-0.219,1.417
2422.0,-8.208,-5.285,-2.213,-1.924,-0.219,1.417
2426.0,-7.92,-5.36,-2.207,-1.205,-0.207,1.334
2430.0,-7.92,-5.36,-2.207,-1.205,-0.207,1.334
2434.0,-8.158,-5.166,-2.262,-0.54,-0.19,1.224
2438.0,-8.158,-5.166,-2.262,-0.54,-0.19,1.224
2443.0,-8.545,-4.807,-2.265,-0.54,-0.19,1.224
2447.0,-8.545,-4.807,-2.265,0.04,-0.179,1.1
2451.0,-8.545,-4.807,-2.265,0.04,-0.179,1.1
2455.0,-8.851,-4.321,-2.212,0.523,-0.194,0.965
2459.0,-8.851,-4.321,-2.212,0.523,-0.194,0.965
2463.0,-9.175,-3.762,-2.255,0.523,-0.237,0.816
2467.0,-9.175,-3.762,-2.255,0.914,-0.237,0.816
2471.0,-9.175,-3.762,-2.255,0.914,-0.237,0.816
2475.0,-9.511,-3.235,-2.395,1.223,-0.29,0.663
2479.0,-9.511,-3.235,-2.395,1.223,-0.29,0.663
2483.0,-9.802,-2.722,-2.526,1.454,-0.322,0.525
2487.0,-9.802,-2.722,-2.526,1.454,-0.322,0.525
2491.0,-9.802,-2.722,-2.526,1.454,-0.322,0.525
2495.0,-9.936,-2.3,-2.581,1.601,-0.315,0.405
2499.0,-9.936,-2.3,-2.581,1.601,-0.315,0.405
2503.0,-9.999,-1.93,-2.448,1.665,-0.282,0.292
2507.0,-9.999,-1.93,-2.448,1.665,-0.282,0.292
2511.0,-9.999,-1.93,-2.448,1.665,-0.282,0.292
2515.0,-9.924,-1.67,-2.228,1.66,-0.253,0.163
2519.0,-9.924,-1.67,-2.228,1.66,-0.253,0.163
2523.0,-9.636,-1.478,-2.036,1.6,-0.249,0.004
2527.0,-9.636,-1.478,-2.036,1.6,-0.249,0.004
2530.0,-9.636,-1.478,-2.036,1.6,-0.249,0.004
2534.0,-9.15,-1.246,-1.855,1.51,-0.27,-0.193
2539.0,-9.15,-1.246,-1.855,1.51,-0.27,-0.193
2543.0,-8.651,-0.972,-1.847,1.413,-0.313,-0.408
2547.0,-8.651,-0.972,-1.847,1.413,-0.313,-0.408
2551.0,-8.651,-0.737,-1.909,1.413,-0.313,-0.408
2555.0,-8.216,-0.737,-1.909,1.318,-0.368,-0.608
2559.0,-8.216,-0.737,-1.909,1.318,-0.368,-0.608
2563.0,-7.878,-0.384,-2.027,1.223,-0.425,-0.775
2567.0,-7.878,-0.384,-2.027,1.223,-0.425,-0.775
2571.0,-7.695,-0.034,-2.128,1.223,-0.483,-0.903
2575.0,-7.695,-0.034,-2.128,1.114,-0.483,-0.903
2579.0,-7.695,-0.034,-2.128,1.114,-0.483,-0.903
2583.0,-7.582,0.22,-2.201,0.991,-0.545,-0.988
2587.0,-7.582,0.22,-2.201,0.991,-0.545,-0.988
2591.0,-7.504,0.328,-2.21,0.866,-0.621,-1.045
2595.0,-7.504,0.328,-2.21,0.866,-0.621,-1.045
2599.0,-7.504,0.328,-2.21,0.866,-0.621,-1.045
2603.0,-7.456,0.37,-2.252,0.745,-0.714,-1.098
2607.0,-7.456,0.37,-2.252,0.745,-0.714,-1.098
2611.0,-7.464,0.448,-2.289,0.629,-0.813,-1.163
2615.0,-7.464,0.448,-2.289,0.629,-0.813,-1.163
2619.0,-7.464,0.448,-2.289,0.629,-0.813,-1.163
2623.0,-7.609,0.575,-2.118,0.511,-0.92,-1.236
2627.0,-7.609,0.575,-2.118,0.511,-0.92,-1.236
2631.0,-7.591,0.69,-2.076,0.401,-1.03,-1.298
2635.0,-7.591,0.69,-2.076,0.401,-1.03,-1.298
2639.0,-7.591,0.69,-2.076,0.401,-1.03,-1.298
2643.0,-7.493,0.857,-2.046,0.306,-1.142,-1.335
2647.0,-7.493,0.857,-2.046,0.306,-1.142,-1.335
2651.0,-7.353,0.934,-1.893,0.206,-1.253,-1.339
2655.0,-7.353,0.934,-1.893,0.206,-1.253,-1.339
2659.0,-7.353,0.934,-1.674,0.206,-1.253,-1.339
2663.0,-7.274,1.053,-1.674,0.105,-1.348,-1.307
2667.0,-7.274,1.053,-1.674,0.105,-1.348,-1.307
2671.0,-7.152,1.185,-1.498,0.007,-1.432,-1.233
2675.0,-7.152,1.185,-1.498,0.007,-1.432,-1.233
2679.0,-6.942,1.195,-1.358,0.007,-1.432,-1.233
2683.0,-6.942,1.195,-1.358,-0.097,-1.509,-1.119
2687.0,-6.942,1.195,-1.358,-0.097,-1.509,-1.119
2691.0,-6.755,1.212,-1.245,-0.224,-1.568,-0.978
2696.0,-6.755,1.212,-1.245,-0.224,-1.568,-0.978
2700.0,-6.604,1.178,-1.201,-0.224,-1.596,-0.826
2704.0,-6.604,1.178,-1.201,-0.374,-1.596,-0.826
2708.0,-6.604,1.178,-1.201,-0.374,-1.596,-0.826
2712.0,-6.526,1.022,-1.314,-0.55,-1.594,-0.682
2716.0,-6.526,1.022,-1.314,-0.55,-1.594,-0.682
2720.0,-6.526,0.833,-1.412,-0.756,-1.54,-0.565
2724.0,-6.526,0.833,-1.412,-0.756,-1.54,-0.565
2728.0,-6.526,0.833,-1.412,-0.756,-1.54,-0.565
2732.0,-6.641,0.633,-1.456,-0.983,-1.443,-0.491
2736.0,-6.641,0.633,-1.456,-0.983,-1.443,-0.491
2740.0,-6.768,0.484,-1.321,-1.212,-1.315,-0.478
2744.0,-6.768,0.484,-1.321,-1.212,-1.315,-0.478
2749.0,-6.906,0.401,-1.025,-1.212,-1.315,-0.478
2753.0,-6.906,0.401,-1.025,-1.416,-1.18,-0.529
2757.0,-6.906,0.401,-1.025,-1.416,-1.18,-0.529
2761.0,-7.017,0.344,-0.641,-1.579,-1.063,-0.619
2765.0,-7.017,0.344,-0.641,-1.579,-1.063,-0.619
2769.0,-7.124,0.388,-0.289,-1.698,-0.964,-0.71
2773.0,-7.124,0.388,-0.289,-1.698,-0.964,-0.71
2777.0,-7.124,0.388,-0.289,-1.698,-0.964,-0.71
2781.0,-7.163,0.534,-0.008,-1.779,-0.867,-0.754
2785.0,-7.163,0.534,-0.008,-1.779,-0.867,-0.754
2789.0,-7.012,0.65,0.197,-1.82,-0.764,-0.736
2793.0,-7.012,0.65,0.197,-1.82,-0.764,-0.736
2797.0,-7.012,0.65,0.197,-1.82,-0.764,-0.736
2801.0,-6.772,0.697,0.361,-1.829,-0.639,-0.669
2805.0,-6.772,0.697,0.361,-1.829,-0.639,-0.669
2809.0,-6.582,0.597,0.639,-1.796,-0.487,-0.576
2813.0,-6.582,0.597,0.639,-1.796,-0.487,-0.576
2817.0,-6.582,0.597,0.939,-1.796,-0.487,-0.576
2821.0,-6.718,0.453,0.939,-1.729,-0.329,-0.493
2825.0,-6.718,0.453,0.939,-1.729,-0.329,-0.493
2829.0,-7.172,0.31,1.02,-1.635,-0.189,-0.425
2833.0,-7.172,0.31,1.02,-1.635,-0.189,-0.425
2837.0,-7.75,0.16,0.985,-1.635,-0.189,-0.425
2841.0,-7.75,0.16,0.985,-1.523,-0.079,-0.366
2845.0,-7.75,0.16,0.985,-1.523,-0.079,-0.366
2849.0,-8.254,0.098,0.943,-1.405,-0.009,-0.311
2853.0,-8.254,0.098,0.943,-1.405,-0.009,-0.311
2857.0,-8.502,0.102,0.913,-1.405,-0.009,-0.251
2861.0,-8.502,0.102,0.913,-1.29,0.017,-0.251
2865.0,-8.502,0.102,0.913,-1.29,0.017,-0.251
2869.0,-8.405,0.068,0.862,-1.19,0.021,-0.179
2873.0,-8.405,0.068,0.862,-1.19,0.021,-0.179
2877.0,-8.063,0.006,0.899,-1.19,0.021,-0.179
2881.0,-8.063,0.006,0.899,-1.104,0.028,-0.112
2885.0,-8.063,0.006,0.899,-1.104,0.028,-0.112
2889.0,-7.821,-0.007,0.994,-1.027,0.056,-0.073
2893.0,-7.821,-0.007,0.994,-1.027,0.056,-0.073
2897.0,-7.862,0.008,1.013,-1.027,0.056,-0.073
2900.0,-7.862,0.008,1.013,-0.956,0.103,-0.065
2904.0,-7.862,0.008,1.013,-0.956,0.103,-0.065
2908.0,-8.159,0.079,0.979,-0.891,0.159,-0.069
2912.0,-8.159,0.079,0.979,-0.891,0.159,-0.069
2916.0,-8.159,0.178,0.924,-0.891,0.159,-0.069
2920.0,-8.645,0.178,0.924,-0.842,0.211,-0.063
2924.0,-8.645,0.178,0.924,-0.842,0.211,-0.063
2928.0,-9.292,0.26,0.913,-0.813,0.258,-0.024
2932.0,-9.292,0.26,0.913,-0.813,0.258,-0.024
2936.0,-9.292,0.26,0.943,-0.813,0.258,-0.024
2940.0,-10.016,0.26,0.943,-0.808,0.312,0.05
2943.0,-10.016,0.26,0.943,-0.808,0.312,0.05
2947.0,-10.591,0.144,1.067,-0.82,0.367,0.147
2951.0,-10.591,0.144,1.067,-0.82,0.367,0.147
2955.0,-10.591,0.144,1.067,-0.82,0.367,0.147
2959.0,-10.977,-0.013,1.264,-0.843,0.395,0.246
2963.0,-10.977,-0.013,1.264,-0.843,0.395,0.246
2967.0,-11.271,-0.129,1.401,-0.874,0.387,0.329
2971.0,-11.271,-0.129,1.401,-0.874,0.387,0.329
2975.0,-11.271,-0.129,1.405,-0.874,0.387,0.329
2979.0,-11.516,-0.234,1.405,-0.905,0.35,0.383
2983.0,-11.516,-0.234,1.405,-0.905,0.35,0.383
2987.0,-11.761,-0.311,1.261,-0.936,0.302,0.395
2991.0,-11.761,-0.311,1.261,-0.936,0.302,0.395
2995.0,-11.761,-0.304,1.083,-0.936,0.302,0.395
2999.0,-11.913,-0.304,1.083,-0.968,0.263,0.379
