deltaTime,Acc_X,Acc_Y,Acc_Z,Gyro_X,Gyro_Y,Gyro_Z
0.0,-3.484,-4.49,3.142,0.404,-0.08,-0.056
3.0,-3.484,-4.49,3.142,0.404,-0.08,-0.056
6.0,-3.345,-4.595,3.136,0.404,-0.08,-0.056
9.0,-3.345,-4.595,3.136,0.363,0.025,-0.101
12.0,-3.345,-4.595,3.136,0.363,0.025,-0.101
15.0,-3.345,-4.595,3.136,0.363,0.025,-0.101
18.0,-3.304,-4.683,3.252,0.362,0.14,-0.129
21.0,-3.304,-4.683,3.252,0.362,0.14,-0.129
24.0,-3.304,-4.683,3.252,0.362,0.14,-0.129
27.0,-3.175,-4.734,3.489,0.398,0.244,-0.166
30.0,-3.175,-4.734,3.489,0.398,0.244,-0.166
33.0,-3.175,-4.734,3.489,0.398,0.244,-0.166
36.0,-3.005,-4.715,3.666,0.477,0.321,-0.217
40.0,-3.005,-4.715,3.666,0.477,0.321,-0.217
44.0,-3.005,-4.715,3.666,0.477,0.321,-0.217
47.0,-3.043,-4.619,3.76,0.585,0.392,-0.264
51.0,-3.043,-4.619,3.76,0.585,0.392,-0.264
55.0,-3.043,-4.619,3.76,0.585,0.392,-0.264
59.0,-3.339,-4.707,4.034,0.712,0.457,-0.286
62.0,-3.339,-4.707,4.034,0.712,0.457,-0.286
66.0,-3.606,-5.226,4.419,0.871,0.5,-0.276
70.0,-3.606,-5.226,4.419,0.871,0.5,-0.276
74.0,-3.606,-5.226,4.419,0.871,0.5,-0.276
77.0,-3.844,-5.737,4.692,1.087,0.508,-0.241
81.0,-3.844,-5.737,4.692,1.087,0.508,-0.241
85.0,-3.844,-5.737,4.71,1.087,0.508,-0.241
89.0,-4.169,-5.554,4.71,1.29,0.495,-0.232
92.0,-4.169,-5.554,4.71,1.29,0.495,-0.232
96.0,-4.256,-5.268,4.586,1.37,0.471,-0.276
100.0,-4.256,-5.268,4.586,1.37,0.471,-0.276
104.0,-4.256,-5.268,4.586,1.37,0.471,-0.276
107.0,-4.305,-5.128,4.463,1.338,0.452,-0.35
111.0,-4.305,-5.128,4.463,1.338,0.452,-0.35
115.0,-4.502,-4.738,4.417,1.338,0.431,-0.415
119.0,-4.502,-4.738,4.417,1.258,0.431,-0.415
123.0,-4.502,-4.738,4.417,1.258,0.431,-0.415
126.0,-4.549,-4.37,4.388,1.129,0.397,-0.451
130.0,-4.549,-4.37,4.388,1.129,0.397,-0.451
134.0,-4.549,-4.37,4.318,1.129,0.397,-0.451
138.0,-4.469,-4.225,4.318,0.963,0.362,-0.46
142.0,-4.469,-4.225,4.318,0.963,0.362,-0.46
146.0,-4.483,-4.092,4.286,0.775,0.339,-0.455
149.0,-4.483,-4.092,4.286,0.775,0.339,-0.455
153.0,-4.483,-4.092,4.286,0.775,0.339,-0.455
157.0,-4.567,-3.909,4.303,0.552,0.335,-0.442
161.0,-4.567,-3.909,4.303,0.552,0.335,-0.442
165.0,-4.889,-4.005,4.455,0.29,0.348,-0.407
168.0,-4.889,-4.005,4.455,0.29,0.348,-0.407
172.0,-4.889,-4.005,4.455,0.29,0.348,-0.407
176.0,-5.417,-4.437,4.713,0.038,0.373,-0.336
180.0,-5.417,-4.437,4.713,0.038,0.373,-0.336
184.0,-6.112,-5.014,5.104,0.038,0.373,-0.336
188.0,-6.112,-5.014,5.104,-0.155,0.41,-0.224
191.0,-6.112,-5.014,5.104,-0.155,0.41,-0.224
195.0,-6.971,-5.835,5.665,-0.267,0.443,-0.071
199.0,-6.971,-5.835,5.665,-0.267,0.443,-0.071
203.0,-6.971,-5.835,5.973,-0.267,0.443,-0.071
207.0,-7.799,-6.452,5.973,-0.282,0.466,0.121
211.0,-7.799,-6.452,5.973,-0.282,0.466,0.121
215.0,-8.664,-6.556,6.171,-0.272,0.491,0.318
219.0,-8.664,-6.556,6.171,-0.272,0.491,0.318
222.0,-8.664,-6.556,6.171,-0.272,0.491,0.318
226.0,-9.297,-6.652,6.488,-0.308,0.507,0.496
230.0,-9.297,-6.652,6.488,-0.308,0.507,0.496
234.0,-9.51,-6.789,6.827,-0.354,0.508,0.645
238.0,-9.51,-6.789,6.827,-0.354,0.508,0.645
241.0,-9.51,-6.789,6.827,-0.354,0.508,0.645
245.0,-9.535,-6.703,7.083,-0.376,0.512,0.763
249.0,-9.535,-6.703,7.083,-0.376,0.512,0.763
253.0,-9.682,-6.438,7.178,-0.376,0.512,0.763
257.0,-9.682,-6.438,7.178,-0.399,0.531,0.878
261.0,-9.682,-6.438,7.178,-0.399,0.531,0.878
264.0,-10.106,-6.459,7.324,-0.434,0.551,1.025
268.0,-10.106,-6.459,7.324,-0.434,0.551,1.025
272.0,-10.106,-6.459,7.493,-0.434,0.551,1.025
276.0,-10.886,-6.025,7.493,-0.441,0.543,1.21
280.0,-10.886,-6.025,7.493,-0.441,0.543,1.21
284.0,-10.927,-5.88,7.717,-0.474,0.489,1.394
288.0,-10.927,-5.88,7.717,-0.474,0.489,1.394
292.0,-10.927,-5.88,7.717,-0.474,0.489,1.394
296.0,-10.459,-5.825,7.654,-0.448,0.413,1.576
300.0,-10.459,-5.825,7.654,-0.448,0.413,1.576
303.0,-10.078,-5.304,7.338,-0.367,0.316,1.709
307.0,-10.078,-5.304,7.338,-0.367,0.316,1.709
311.0,-10.078,-5.304,7.338,-0.367,0.316,1.709
315.0,-9.907,-5.027,6.964,-0.283,0.166,1.756
319.0,-9.907,-5.027,6.964,-0.283,0.166,1.756
323.0,-9.102,-4.416,6.517,-0.179,-0.026,1.735
327.0,-9.102,-4.416,6.517,-0.179,-0.026,1.735
331.0,-9.102,-4.416,6.517,-0.179,-0.026,1.735
335.0,-8.235,-3.784,6.011,-0.099,-0.197,1.678
338.0,-8.235,-3.784,6.011,-0.099,-0.197,1.678
342.0,-7.994,-3.226,5.235,-0.053,-0.356,1.585
346.0,-7.994,-3.226,5.235,-0.053,-0.356,1.585
350.0,-7.994,-3.226,5.235,-0.053,-0.356,1.585
354.0,-7.594,-2.764,4.547,-0.041,-0.533,1.464
358.0,-7.594,-2.764,4.547,-0.041,-0.533,1.464
362.0,-7.107,-2.399,4.027,-0.041,-0.663,1.346
366.0,-7.107,-2.399,4.027,-0.059,-0.663,1.346
370.0,-7.107,-2.399,4.027,-0.059,-0.663,1.346
374.0,-6.998,-2.169,3.616,-0.105,-0.719,1.276
377.0,-6.998,-2.169,3.616,-0.105,-0.719,1.276
381.0,-7.162,-2.109,3.397,-0.105,-0.719,1.28
385.0,-7.162,-2.109,3.397,-0.176,-0.697,1.28
389.0,-7.162,-2.109,3.397,-0.176,-0.697,1.28
393.0,-7.454,-2.255,3.394,-0.267,-0.613,1.355
397.0,-7.454,-2.255,3.394,-0.267,-0.613,1.355
401.0,-7.838,-2.473,3.535,-0.267,-0.613,1.355
405.0,-7.838,-2.473,3.535,-0.369,-0.494,1.473
409.0,-7.838,-2.473,3.535,-0.369,-0.494,1.473
413.0,-8.39,-2.724,3.901,-0.477,-0.367,1.608
417.0,-8.39,-2.724,3.901,-0.477,-0.367,1.608
420.0,-8.39,-3.067,4.476,-0.477,-0.367,1.608
424.0,-9.071,-3.067,4.476,-0.582,-0.261,1.74
428.0,-9.071,-3.067,4.476,-0.582,-0.261,1.74
432.0,-9.831,-3.489,5.109,-0.67,-0.197,1.856
436.0,-9.831,-3.489,5.109,-0.67,-0.197,1.856
440.0,-9.831,-3.489,5.605,-0.67,-0.197,1.856
444.0,-10.474,-3.787,5.605,-0.726,-0.191,1.95
448.0,-10.474,-3.787,5.605,-0.726,-0.191,1.95
452.0,-10.879,-4.043,5.986,-0.751,-0.244,2.029
456.0,-10.879,-4.043,5.986,-0.751,-0.244,2.029
460.0,-10.879,-4.043,6.251,-0.751,-0.244,2.029
464.0,-11.087,-4.238,6.251,-0.754,-0.338,2.091
468.0,-11.087,-4.238,6.251,-0.754,-0.338,2.091
472.0,-11.046,-4.274,6.265,-0.729,-0.452,2.128
476.0,-11.046,-4.274,6.265,-0.729,-0.452,2.128
480.0,-10.79,-4.132,6.199,-0.729,-0.452,2.128
484.0,-10.79,-4.132,6.199,-0.672,-0.566,2.124
488.0,-10.79,-4.132,6.199,-0.672,-0.566,2.124
492.0,-10.518,-4.158,6.466,-0.573,-0.673,2.069
496.0,-10.518,-4.158,6.466,-0.573,-0.673,2.069
500.0,-10.153,-4.443,6.988,-0.573,-0.673,1.941
504.0,-10.153,-4.443,6.988,-0.411,-0.796,1.941
508.0,-10.153,-4.443,6.988,-0.411,-0.796,1.941
512.0,-9.603,-4.494,7.777,-0.176,-0.936,1.73
516.0,-9.603,-4.494,7.777,-0.176,-0.936,1.73
520.0,-9.269,-4.366,8.988,-0.176,-0.936,1.473
523.0,-9.269,-4.366,8.988,0.114,-1.087,1.473
527.0,-9.269,-4.366,8.988,0.114,-1.087,1.473
531.0,-9.419,-4.276,10.21,0.42,-1.259,1.235
535.0,-9.419,-4.276,10.21,0.42,-1.259,1.235
539.0,-9.419,-4.241,11.289,0.42,-1.259,1.235
543.0,-9.611,-4.241,11.289,0.706,-1.451,1.078
547.0,-9.611,-4.241,11.289,0.706,-1.451,1.078
551.0,-9.543,-4.207,12.207,0.931,-1.652,1.021
555.0,-9.543,-4.207,12.207,0.931,-1.652,1.021
558.0,-9.543,-4.207,13.177,0.931,-1.652,1.021
562.0,-9.363,-4.261,13.177,1.064,-1.828,1.034
566.0,-9.363,-4.261,13.177,1.064,-1.828,1.034
570.0,-9.467,-4.451,14.23,1.16,-2.066,1.048
574.0,-9.467,-4.451,14.23,1.16,-2.066,1.048
578.0,-9.467,-4.451,14.23,1.16,-2.066,1.048
582.0,-9.698,-4.518,14.967,1.267,-2.387,1.014
586.0,-9.698,-4.518,14.967,1.267,-2.387,1.014
590.0,-9.994,-4.443,15.454,1.429,-2.728,0.929
594.0,-9.994,-4.443,15.454,1.429,-2.728,0.929
598.0,-9.994,-4.443,15.454,1.429,-2.728,0.929
601.0,-10.083,-4.52,15.794,1.682,-3.1,0.85
605.0,-10.083,-4.52,15.794,1.682,-3.1,0.85
609.0,-9.87,-4.858,15.785,2.031,-3.461,0.788
613.0,-9.87,-4.858,15.785,2.031,-3.461,0.788
617.0,-9.87,-4.858,15.785,2.031,-3.461,0.788
621.0,-9.695,-4.944,15.702,2.428,-3.772,0.735
625.0,-9.695,-4.944,15.702,2.428,-3.772,0.735
629.0,-9.728,-4.874,15.733,2.787,-4.047,0.69
633.0,-9.728,-4.874,15.733,2.787,-4.047,0.69
637.0,-9.728,-4.874,15.733,2.787,-4.047,0.69
641.0,-9.935,-4.896,15.899,3.061,-4.303,0.651
645.0,-9.935,-4.896,15.899,3.061,-4.303,0.651
648.0,-10.145,-4.556,16.213,3.233,-4.551,0.608
652.0,-10.145,-4.556,16.213,3.233,-4.551,0.608
656.0,-10.145,-4.556,16.213,3.233,-4.551,0.608
660.0,-10.233,-4.059,16.351,3.289,-4.807,0.578
664.0,-10.233,-4.059,16.351,3.289,-4.807,0.578
668.0,-10.133,-3.701,16.256,3.236,-4.977,0.549
672.0,-10.133,-3.701,16.256,3.236,-4.977,0.549
676.0,-10.133,-3.701,16.256,3.236,-4.977,0.549
680.0,-10.09,-3.447,16.074,3.103,-4.992,0.49
684.0,-10.09,-3.447,16.074,3.103,-4.992,0.49
688.0,-9.961,-3.369,15.608,2.933,-4.992,0.402
692.0,-9.961,-3.369,15.608,2.933,-4.992,0.402
696.0,-9.961,-3.369,15.608,2.933,-4.992,0.402
700.0,-9.492,-3.432,15.176,2.757,-4.992,0.293
704.0,-9.492,-3.432,15.176,2.757,-4.992,0.293
708.0,-8.993,-3.625,14.917,2.598,-4.992,0.158
712.0,-8.993,-3.625,14.917,2.598,-4.992,0.158
716.0,-8.993,-3.625,14.917,2.598,-4.992,0.158
720.0,-8.562,-3.816,14.739,2.486,-4.992,-0.002
724.0,-8.562,-3.816,14.739,2.486,-4.992,-0.002
728.0,-8.061,-4.194,14.358,2.458,-4.992,-0.174
732.0,-8.061,-4.194,14.358,2.458,-4.992,-0.174
736.0,-8.061,-4.194,14.358,2.458,-4.992,-0.174
740.0,-7.437,-4.618,13.639,2.515,-4.992,-0.333
744.0,-7.437,-4.618,13.639,2.515,-4.992,-0.333
748.0,-6.528,-4.941,12.647,2.637,-4.992,-0.452
752.0,-6.528,-4.941,12.647,2.637,-4.992,-0.452
756.0,-6.528,-4.941,12.647,2.637,-4.992,-0.452
760.0,-5.548,-5.331,11.861,2.818,-4.992,-0.534
764.0,-5.548,-5.331,11.861,2.818,-4.992,-0.534
768.0,-5.307,-5.922,11.06,3.039,-4.992,-0.619
772.0,-5.307,-5.922,11.06,3.039,-4.992,-0.619
776.0,-5.307,-5.922,10.14,3.039,-4.992,-0.619
780.0,-4.725,-5.875,10.14,3.324,-4.992,-0.729
784.0,-4.725,-5.875,10.14,3.324,-4.992,-0.729
788.0,-4.251,-5.61,9.088,3.595,-4.992,-0.836
791.0,-4.251,-5.61,9.088,3.595,-4.992,-0.836
795.0,-4.251,-5.61,7.918,3.595,-4.992,-0.836
799.0,-3.416,-5.17,7.918,3.812,-4.992,-0.942
803.0,-3.416,-5.17,7.918,3.812,-4.992,-0.942
807.0,-2.618,-4.614,6.784,3.962,-4.992,-1.071
811.0,-2.618,-4.614,6.784,3.962,-4.992,-1.071
815.0,-2.618,-4.614,6.784,3.962,-4.992,-1.071
819.0,-2.06,-4.087,5.766,4.042,-4.992,-1.217
823.0,-2.06,-4.087,5.766,4.042,-4.992,-1.217
827.0,-1.696,-3.64,5.016,4.056,-4.992,-1.355
831.0,-1.696,-3.64,5.016,4.056,-4.992,-1.355
834.0,-1.696,-3.64,5.016,4.056,-4.992,-1.355
838.0,-1.46,-3.244,4.42,4.026,-4.984,-1.466
842.0,-1.46,-3.244,4.42,4.026,-4.984,-1.466
846.0,-1.327,-2.866,3.825,3.965,-4.848,-1.543
850.0,-1.327,-2.866,3.825,3.965,-4.848,-1.543
854.0,-1.327,-2.866,3.825,3.965,-4.848,-1.543
858.0,-1.273,-2.46,3.173,3.892,-4.635,-1.591
862.0,-1.273,-2.46,3.173,3.892,-4.635,-1.591
866.0,-0.906,-2.063,2.439,3.805,-4.452,-1.611
870.0,-0.906,-2.063,2.439,3.805,-4.452,-1.611
873.0,-0.906,-2.063,2.439,3.805,-4.452,-1.611
877.0,-0.655,-1.633,1.728,3.701,-4.234,-1.625
881.0,-0.655,-1.633,1.728,3.701,-4.234,-1.625
885.0,-0.409,-1.008,1.164,3.615,-4.011,-1.643
889.0,-0.409,-1.008,1.164,3.615,-4.011,-1.643
893.0,-0.409,-1.008,1.164,3.615,-4.011,-1.643
897.0,-0.168,-0.262,0.689,3.567,-3.79,-1.656
901.0,-0.168,-0.262,0.689,3.567,-3.79,-1.656
905.0,0.034,0.577,0.291,3.567,-3.572,-1.639
908.0,0.034,0.577,0.291,3.548,-3.572,-1.639
912.0,0.034,0.577,0.291,3.548,-3.572,-1.639
916.0,0.216,1.615,-0.126,3.541,-3.355,-1.597
920.0,0.216,1.615,-0.126,3.541,-3.355,-1.597
924.0,0.216,1.615,-0.126,3.541,-3.355,-1.597
927.0,0.371,2.747,-0.528,3.544,-3.147,-1.531
931.0,0.371,2.747,-0.528,3.544,-3.147,-1.531
935.0,0.668,3.983,-0.97,3.54,-2.948,-1.444
939.0,0.668,3.983,-0.97,3.54,-2.948,-1.444
943.0,0.668,3.983,-0.97,3.54,-2.948,-1.444
946.0,1.07,5.291,-1.355,3.508,-2.753,-1.336
950.0,1.07,5.291,-1.355,3.508,-2.753,-1.336
954.0,1.446,6.6,-1.791,3.508,-2.553,-1.212
958.0,1.446,6.6,-1.791,3.459,-2.553,-1.212
962.0,1.446,6.6,-1.791,3.459,-2.553,-1.212
966.0,1.966,7.868,-2.485,3.405,-2.351,-1.067
969.0,1.966,7.868,-2.485,3.405,-2.351,-1.067
973.0,1.966,9.353,-3.558,3.405,-2.351,-1.067
977.0,2.73,9.353,-3.558,3.363,-2.122,-0.887
981.0,2.73,9.353,-3.558,3.363,-2.122,-0.887
985.0,3.609,10.755,-4.426,3.341,-1.852,-0.661
989.0,3.609,10.755,-4.426,3.341,-1.852,-0.661
992.0,3.609,10.755,-4.426,3.341,-1.852,-0.661
996.0,4.389,12.098,-4.974,3.323,-1.554,-0.389
1000.0,4.389,12.098,-4.974,3.323,-1.554,-0.389
1004.0,5.185,13.248,-5.489,3.297,-1.233,-0.053
1008.0,5.185,13.248,-5.489,3.297,-1.233,-0.053
1012.0,5.185,13.248,-5.489,3.297,-1.233,-0.053
1016.0,5.865,14.296,-5.888,3.266,-0.886,0.311
1020.0,5.865,14.296,-5.888,3.266,-0.886,0.311
1024.0,6.714,15.45,-6.596,3.217,-0.525,0.691
1028.0,6.714,15.45,-6.596,3.217,-0.525,0.691
1032.0,6.714,15.45,-6.596,3.217,-0.525,0.691
1036.0,7.913,16.082,-7.426,3.146,-0.125,1.098
1040.0,7.913,16.082,-7.426,3.146,-0.125,1.098
1044.0,9.078,16.559,-8.621,3.071,0.345,1.502
1047.0,9.078,16.559,-8.621,3.071,0.345,1.502
1051.0,9.078,16.559,-8.621,3.071,0.345,1.502
1055.0,10.504,16.916,-9.755,2.997,0.848,1.91
1059.0,10.504,16.916,-9.755,2.997,0.848,1.91
1063.0,11.735,17.428,-11.728,2.93,1.469,2.333
1067.0,11.735,17.428,-11.728,2.93,1.469,2.333
1071.0,11.735,17.428,-11.728,2.93,1.469,2.333
1075.0,12.771,18.041,-13.503,2.887,2.21,2.777
1079.0,12.771,18.041,-13.503,2.887,2.21,2.777
1083.0,13.012,18.245,-13.668,2.842,3.023,3.239
1087.0,13.012,18.245,-13.668,2.842,3.023,3.239
1091.0,13.012,18.245,-13.668,2.842,3.023,3.239
1095.0,12.662,18.103,-13.104,2.764,3.803,3.69
1099.0,12.662,18.103,-13.104,2.764,3.803,3.69
1103.0,11.653,17.804,-11.4,2.631,4.533,4.129
1107.0,11.653,17.804,-11.4,2.631,4.533,4.129
1111.0,11.653,17.804,-11.4,2.631,4.533,4.129
1115.0,9.489,16.827,-8.182,2.399,4.978,4.554
1119.0,9.489,16.827,-8.182,2.399,4.978,4.554
1122.0,6.458,15.354,-5.831,2.062,5.015,4.898
1126.0,6.458,15.354,-5.831,2.062,5.015,4.898
1130.0,6.458,15.354,-5.831,2.062,5.015,4.898
1134.0,2.694,13.604,-4.321,1.622,5.015,5.011
1138.0,2.694,13.604,-4.321,1.622,5.015,5.011
1142.0,-1.255,12.077,-3.409,1.622,5.015,5.013
1145.0,-1.255,12.077,-3.409,1.044,5.015,5.013
1149.0,-1.255,12.077,-3.409,1.044,5.015,5.013
1153.0,-5.839,10.825,-3.222,0.275,5.015,5.013
1157.0,-5.839,10.825,-3.222,0.275,5.015,5.013
1161.0,-11.965,9.477,-3.021,0.275,5.015,5.013
1165.0,-11.965,9.477,-3.021,-0.738,5.015,5.013
1169.0,-11.965,9.477,-3.021,-0.738,5.015,5.013
1173.0,-18.826,6.12,-1.134,-1.932,5.015,4.992
1177.0,-18.826,6.12,-1.134,-1.932,5.015,4.992
1181.0,-19.6,1.744,2.813,-1.932,5.015,4.573
1185.0,-19.6,1.744,2.813,-3.107,4.973,4.573
1189.0,-19.6,1.744,2.813,-3.107,4.973,4.573
1193.0,-19.6,-1.28,6.57,-4.174,4.033,3.639
1197.0,-19.6,-1.28,6.57,-4.174,4.033,3.639
1201.0,-19.563,-5.131,6.924,-4.174,4.033,2.619
1205.0,-19.563,-5.131,6.924,-4.911,2.187,2.619
1209.0,-19.563,-5.131,6.924,-4.911,2.187,2.619
1213.0,-16.244,-9.673,6.339,-5.013,0.542,1.473
1217.0,-16.244,-9.673,6.339,-5.013,0.542,1.473
1221.0,-11.192,-13.107,6.693,-5.013,-0.742,0.199
1225.0,-11.192,-13.107,6.693,-4.96,-0.742,0.199
1229.0,-11.192,-13.107,6.693,-4.96,-0.742,0.199
1233.0,-7.387,-14.38,6.569,-4.368,-1.677,-0.998
1237.0,-7.387,-14.38,6.569,-4.368,-1.677,-0.998
1241.0,-4.973,-13.803,6.048,-3.328,-2.296,-1.952
1246.0,-4.973,-13.803,6.048,-3.328,-2.296,-1.952
1250.0,-4.111,-12.565,6.271,-3.328,-2.296,-1.952
1254.0,-4.111,-12.565,6.271,-2.173,-2.699,-2.588
1258.0,-4.111,-12.565,6.271,-2.173,-2.699,-2.588
1262.0,-4.355,-11.546,5.877,-1.032,-3.011,-2.963
1266.0,-4.355,-11.546,5.877,-1.032,-3.011,-2.963
1271.0,-4.993,-10.498,4.717,0.004,-3.256,-3.201
1275.0,-4.993,-10.498,4.717,0.004,-3.256,-3.201
1279.0,-4.993,-10.498,4.717,0.004,-3.256,-3.201
1283.0,-5.005,-8.85,3.349,0.861,-3.443,-3.369
1287.0,-5.005,-8.85,3.349,0.861,-3.443,-3.369
1291.0,-4.311,-6.631,2.269,1.437,-3.6,-3.495
1295.0,-4.311,-6.631,2.269,1.437,-3.6,-3.495
1299.0,-4.311,-6.631,1.289,1.437,-3.6,-3.495
1303.0,-3.236,-4.244,1.289,1.702,-3.74,-3.617
1307.0,-3.236,-4.244,1.289,1.702,-3.74,-3.617
1311.0,-1.886,-1.847,0.273,1.726,-3.86,-3.766
1315.0,-1.886,-1.847,0.273,1.726,-3.86,-3.766
1319.0,-0.016,0.671,-0.675,1.726,-3.86,-3.766
1323.0,-0.016,0.671,-0.675,1.609,-3.967,-3.954
1327.0,-0.016,0.671,-0.675,1.609,-3.967,-3.954
1331.0,2.539,2.788,-1.313,1.442,-4.024,-4.163
1335.0,2.539,2.788,-1.313,1.442,-4.024,-4.163
1339.0,5.419,4.521,-1.437,1.442,-4.024,-4.163
1342.0,5.419,4.521,-1.437,1.288,-3.992,-4.369
1346.0,5.419,4.521,-1.437,1.288,-3.992,-4.369
1350.0,8.645,6.067,-1.684,1.142,-3.867,-4.515
1354.0,8.645,6.067,-1.684,1.142,-3.867,-4.515
1358.0,8.645,6.067,-1.816,1.142,-3.867,-4.515
1362.0,10.984,7.664,-1.816,0.997,-3.624,-4.603
1366.0,10.984,7.664,-1.816,0.997,-3.624,-4.603
1370.0,11.961,9.043,-1.945,0.872,-3.412,-4.629
1374.0,11.961,9.043,-1.945,0.872,-3.412,-4.629
1378.0,11.961,10.552,-2.653,0.872,-3.412,-4.629
1382.0,11.46,10.552,-2.653,0.735,-3.229,-4.608
1386.0,11.46,10.552,-2.653,0.735,-3.229,-4.608
1390.0,10.455,12.27,-3.675,0.623,-3.064,-4.535
1394.0,10.455,12.27,-3.675,0.623,-3.064,-4.535
1398.0,10.083,14.649,-5.375,0.591,-2.933,-4.41
1402.0,10.083,14.649,-5.375,0.591,-2.933,-4.41
1407.0,10.083,14.649,-5.375,0.591,-2.933,-4.41
1411.0,10.793,17.509,-7.973,0.666,-2.791,-4.182
1415.0,10.793,17.509,-7.973,0.666,-2.791,-4.182
1419.0,12.363,19.481,-10.484,0.83,-2.549,-3.821
1423.0,12.363,19.481,-10.484,0.83,-2.549,-3.821
1427.0,12.363,19.481,-12.118,0.83,-2.549,-3.821
1431.0,14.246,19.596,-12.118,1.016,-2.173,-3.364
1435.0,14.246,19.596,-12.118,1.016,-2.173,-3.364
1440.0,15.618,19.596,-13.099,1.144,-1.711,-2.846
1444.0,15.618,19.596,-13.099,1.144,-1.711,-2.846
1448.0,15.822,19.596,-13.985,1.132,-1.17,-2.293
1452.0,15.822,19.596,-13.985,1.132,-1.17,-2.293
1456.0,15.822,19.596,-13.985,1.132,-1.17,-2.293
1460.0,15.706,19.596,-15.13,1.011,-0.538,-1.733
1465.0,15.706,19.596,-15.13,1.011,-0.538,-1.733
1469.0,15.374,19.596,-15.403,0.848,0.182,-1.164
1473.0,15.374,19.596,-15.403,0.848,0.182,-1.164
1477.0,14.442,19.596,-14.792,0.848,0.182,-1.164
1481.0,14.442,19.596,-14.792,0.728,0.917,-0.588
1485.0,14.442,19.596,-14.792,0.728,0.917,-0.588
1489.0,13.147,19.596,-14.134,0.716,1.62,0.012
1493.0,13.147,19.596,-14.134,0.716,1.62,0.012
1497.0,12.387,19.596,-14.599,0.818,2.3,0.642
1501.0,12.387,19.596,-14.599,0.818,2.3,0.642
1505.0,12.387,19.596,-14.599,0.818,2.3,0.642
1509.0,12.72,19.596,-16.117,0.994,3.011,1.302
1513.0,12.72,19.596,-16.117,0.994,3.011,1.302
1517.0,13.856,19.596,-17.707,1.183,3.793,2.005
1521.0,13.856,19.596,-17.707,1.183,3.793,2.005
1525.0,13.856,19.596,-17.707,1.183,3.793,2.005
1529.0,14.21,19.596,-17.318,1.344,4.61,2.724
1533.0,14.21,19.596,-17.318,1.344,4.61,2.724
1537.0,13.545,19.596,-15.693,1.42,5.002,3.443
1541.0,13.545,19.596,-15.693,1.42,5.002,3.443
1545.0,13.545,19.596,-15.693,1.42,5.002,3.443
1549.0,12.199,19.596,-13.745,1.427,5.015,4.127
1553.0,12.199,19.596,-13.745,1.427,5.015,4.127
1557.0,10.432,19.433,-11.796,1.399,5.015,4.734
1561.0,10.432,19.433,-11.796,1.399,5.015,4.734
1565.0,10.432,19.433,-11.796,1.399,5.015,4.734
1569.0,8.314,17.775,-9.696,1.326,5.015,5.005
1573.0,8.314,17.775,-9.696,1.326,5.015,5.005
1577.0,4.828,15.226,-6.684,1.169,5.015,5.013
1581.0,4.828,15.226,-6.684,1.169,5.015,5.013
1584.0,4.828,15.226,-6.684,1.169,5.015,5.013
1588.0,0.086,12.642,-4.063,0.883,5.015,5.013
1592.0,0.086,12.642,-4.063,0.883,5.015,5.013
1596.0,-5.591,11.039,-2.302,0.423,5.015,5.013
1600.0,-5.591,11.039,-2.302,0.423,5.015,5.013
1604.0,-5.591,11.039,-2.302,0.423,5.015,5.013
1608.0,-13.39,10.857,-1.457,-0.295,5.015,5.013
1612.0,-13.39,10.857,-1.457,-0.295,5.015,5.013
1616.0,-19.488,11.048,-1.987,-1.36,5.015,5.013
1620.0,-19.488,11.048,-1.987,-1.36,5.015,5.013
1624.0,-19.488,11.048,-1.987,-1.36,5.015,5.013
1628.0,-19.6,5.564,-1.436,-2.53,5.015,5.013
1632.0,-19.6,5.564,-1.436,-2.53,5.015,5.013
1636.0,-19.6,-0.274,5.252,-3.117,4.994,5.013
1640.0,-19.6,-0.274,5.252,-3.117,4.994,5.013
1644.0,-19.6,-0.274,5.252,-3.117,4.994,5.013
1648.0,-19.362,-5.582,3.51,-3.375,4.018,5.012
1652.0,-19.362,-5.582,3.51,-3.375,4.018,5.012
1656.0,-9.739,-9.587,0.03,-3.838,2.392,4.432
1660.0,-9.739,-9.587,0.03,-3.838,2.392,4.432
1664.0,-9.739,-9.587,0.03,-3.838,2.392,4.432
1668.0,-2.885,-7.863,4.84,-4.496,1.286,2.236
1671.0,-2.885,-7.863,4.84,-4.496,1.286,2.236
1675.0,-0.564,-5.547,8.76,-4.969,-0.066,0.25
1679.0,-0.564,-5.547,8.76,-4.969,-0.066,0.25
1683.0,-0.564,-5.547,8.76,-4.969,-0.066,0.25
1687.0,2.011,-7.036,7.474,-5.013,-1.311,-1.06
1691.0,2.011,-7.036,7.474,-5.013,-1.311,-1.06
1695.0,4.08,-8.654,5.29,-4.939,-1.892,-2.008
1699.0,4.08,-8.654,5.29,-4.939,-1.892,-2.008
1703.0,4.08,-8.654,5.29,-4.939,-1.892,-2.008
1707.0,4.912,-8.703,3.94,-4.344,-1.906,-2.548
1711.0,4.912,-8.703,3.94,-4.344,-1.906,-2.548
1715.0,6.17,-8.277,2.21,-3.374,-1.709,-2.624
1719.0,6.17,-8.277,2.21,-3.374,-1.709,-2.624
1723.0,6.17,-8.277,1.003,-3.374,-1.709,-2.624
1727.0,9.048,-7.1,1.003,-2.255,-1.348,-2.446
1731.0,9.048,-7.1,1.003,-2.255,-1.348,-2.446
1735.0,11.749,-5.031,2.146,-1.048,-0.757,-2.16
1739.0,11.749,-5.031,2.146,-1.048,-0.757,-2.16
1743.0,12.688,-2.813,3.938,-1.048,-0.757,-2.16
1748.0,12.688,-2.813,3.938,0.141,-0.172,-1.692
1752.0,12.688,-2.813,3.938,0.141,-0.172,-1.692
1756.0,12.173,-1.126,4.909,1.181,0.239,-1.046
1759.0,12.173,-1.126,4.909,1.181,0.239,-1.046
1763.0,10.667,0.149,5.14,1.181,0.239,-0.397
1767.0,10.667,0.149,5.14,2.019,0.522,-0.397
1771.0,10.667,0.149,5.14,2.019,0.522,-0.397
1775.0,9.779,0.779,4.811,2.648,0.67,0.109
1778.0,9.779,0.779,4.811,2.648,0.67,0.109
1782.0,9.779,0.779,4.811,2.648,0.67,0.109
1786.0,9.505,1.354,4.393,3.086,0.711,0.358
1789.0,9.505,1.354,4.393,3.086,0.711,0.358
1793.0,9.285,2.288,4.018,3.086,0.711,0.37
1797.0,9.285,2.288,4.018,3.348,0.696,0.37
1800.0,9.285,2.288,4.018,3.348,0.696,0.37
1804.0,9.387,3.616,3.334,3.44,0.638,0.274
1808.0,9.387,3.616,3.334,3.44,0.638,0.274
1811.0,9.387,3.616,3.334,3.44,0.638,0.274
1815.0,9.831,5.15,2.297,3.38,0.578,0.178
1819.0,9.831,5.15,2.297,3.38,0.578,0.178
1822.0,9.831,6.078,1.49,3.38,0.578,0.178
1826.0,10.144,6.078,1.49,3.173,0.56,0.141
1830.0,10.144,6.078,1.49,3.173,0.56,0.141
1833.0,10.042,6.236,1.156,2.812,0.567,0.133
1837.0,10.042,6.236,1.156,2.812,0.567,0.133
1841.0,10.042,6.236,1.156,2.812,0.567,0.133
1844.0,9.426,6.205,1.442,2.317,0.564,0.095
1848.0,9.426,6.205,1.442,2.317,0.564,0.095
1852.0,9.426,5.927,2.086,2.317,0.564,0.095
1855.0,8.556,5.927,2.086,1.735,0.538,0.026
1859.0,8.556,5.927,2.086,1.735,0.538,0.026
1863.0,7.589,5.609,2.858,1.123,0.494,-0.073
1866.0,7.589,5.609,2.858,1.123,0.494,-0.073
1870.0,7.589,5.609,2.858,1.123,0.494,-0.073
1874.0,6.663,5.493,3.424,0.537,0.432,-0.187
1878.0,6.663,5.493,3.424,0.537,0.432,-0.187
1881.0,6.663,5.422,3.802,0.537,0.432,-0.187
1885.0,6.068,5.422,3.802,0.022,0.368,-0.282
1889.0,6.068,5.422,3.802,0.022,0.368,-0.282
1893.0,5.981,5.158,3.986,-0.396,0.311,-0.337
1896.0,5.981,5.158,3.986,-0.396,0.311,-0.337
1900.0,5.981,5.158,3.986,-0.396,0.311,-0.337
1904.0,6.341,4.792,4.018,-0.719,0.265,-0.368
1908.0,6.341,4.792,4.018,-0.719,0.265,-0.368
1912.0,6.892,4.451,4.107,-0.965,0.237,-0.388
1915.0,6.892,4.451,4.107,-0.965,0.237,-0.388
1919.0,6.892,4.451,4.107,-0.965,0.237,-0.388
1923.0,7.405,4.027,4.172,-1.147,0.219,-0.378
1927.0,7.405,4.027,4.172,-1.147,0.219,-0.378
1931.0,7.405,3.412,4.0,-1.147,0.219,-0.378
1935.0,7.866,3.412,4.0,-1.274,0.205,-0.348
1938.0,7.866,3.412,4.0,-1.274,0.205,-0.348
1942.0,8.358,2.802,3.726,-1.349,0.207,-0.338
1946.0,8.358,2.802,3.726,-1.349,0.207,-0.338
1950.0,8.358,2.802,3.726,-1.349,0.207,-0.338
1954.0,8.853,2.427,3.553,-1.368,0.226,-0.365
1958.0,8.853,2.427,3.553,-1.368,0.226,-0.365
1961.0,9.23,2.167,3.521,-1.336,0.253,-0.409
1965.0,9.23,2.167,3.521,-1.336,0.253,-0.409
1969.0,9.23,2.167,3.521,-1.336,0.253,-0.409
1973.0,9.414,1.948,3.561,-1.265,0.291,-0.442
1977.0,9.414,1.948,3.561,-1.265,0.291,-0.442
1980.0,9.333,1.808,3.65,-1.265,0.291,-0.455
1984.0,9.333,1.808,3.65,-1.155,0.351,-0.455
1988.0,9.333,1.808,3.65,-1.155,0.351,-0.455
1992.0,9.004,1.722,3.863,-1.013,0.423,-0.449
1996.0,9.004,1.722,3.863,-1.013,0.423,-0.449
2000.0,9.004,1.722,4.082,-1.013,0.423,-0.449
2003.0,8.587,1.639,4.082,-0.852,0.485,-0.436
2007.0,8.587,1.639,4.082,-0.852,0.485,-0.436
2011.0,8.334,1.549,4.294,-0.682,0.529,-0.434
2015.0,8.334,1.549,4.294,-0.682,0.529,-0.434
2019.0,8.334,1.549,4.294,-0.682,0.529,-0.434
2022.0,8.191,1.513,4.485,-0.515,0.555,-0.46
2026.0,8.191,1.513,4.485,-0.515,0.555,-0.46
2030.0,8.035,1.528,4.553,-0.515,0.565,-0.512
2034.0,8.035,1.528,4.553,-0.361,0.565,-0.512
2038.0,8.035,1.528,4.553,-0.361,0.565,-0.512
2042.0,7.922,1.655,4.533,-0.22,0.566,-0.571
2045.0,7.922,1.655,4.533,-0.22,0.566,-0.571
2049.0,7.922,1.845,4.495,-0.22,0.566,-0.571
2053.0,7.842,1.845,4.495,-0.088,0.569,-0.621
2057.0,7.842,1.845,4.495,-0.088,0.569,-0.621
2061.0,7.612,2.025,4.46,0.034,0.583,-0.642
2064.0,7.612,2.025,4.46,0.034,0.583,-0.642
2068.0,7.612,2.025,4.46,0.034,0.583,-0.642
2072.0,7.296,2.112,4.449,0.137,0.603,-0.627
2076.0,7.296,2.112,4.449,0.137,0.603,-0.627
2079.0,6.97,2.058,4.485,0.137,0.62,-0.588
2083.0,6.97,2.058,4.485,0.22,0.62,-0.588
2087.0,6.97,2.058,4.485,0.22,0.62,-0.588
2090.0,6.546,1.933,4.468,0.279,0.62,-0.559
2094.0,6.546,1.933,4.468,0.279,0.62,-0.559
2098.0,6.546,1.933,4.468,0.279,0.62,-0.559
2102.0,6.162,1.775,4.315,0.314,0.593,-0.561
2105.0,6.162,1.775,4.315,0.314,0.593,-0.561
2109.0,5.794,1.696,3.957,0.319,0.549,-0.603
2113.0,5.794,1.696,3.957,0.319,0.549,-0.603
2117.0,5.794,1.696,3.957,0.319,0.549,-0.603
2120.0,5.56,1.853,3.234,0.299,0.51,-0.672
2124.0,5.56,1.853,3.234,0.299,0.51,-0.672
2128.0,5.56,1.853,3.234,0.299,0.51,-0.672
2132.0,5.585,2.078,2.42,0.259,0.504,-0.733
2135.0,5.585,2.078,2.42,0.259,0.504,-0.733
2139.0,5.893,2.209,1.909,0.201,0.55,-0.782
2143.0,5.893,2.209,1.909,0.201,0.55,-0.782
2146.0,5.893,2.209,1.909,0.201,0.55,-0.782
2150.0,6.216,2.374,1.619,0.129,0.635,-0.84
2154.0,6.216,2.374,1.619,0.129,0.635,-0.84
2158.0,6.216,2.511,1.501,0.129,0.635,-0.84
2161.0,6.231,2.511,1.501,0.043,0.744,-0.89
2165.0,6.231,2.511,1.501,0.043,0.744,-0.89
2169.0,5.913,2.548,1.547,-0.059,0.857,-0.926
2173.0,5.913,2.548,1.547,-0.059,0.857,-0.926
2177.0,5.913,2.548,1.547,-0.059,0.857,-0.926
2180.0,5.27,2.472,1.68,-0.174,0.965,-0.968
2184.0,5.27,2.472,1.68,-0.174,0.965,-0.968
2188.0,4.476,2.27,1.71,-0.174,1.05,-1.018
2192.0,4.476,2.27,1.71,-0.3,1.05,-1.018
2196.0,4.476,2.27,1.71,-0.3,1.05,-1.018
2199.0,3.679,1.959,1.613,-0.431,1.115,-1.083
2203.0,3.679,1.959,1.613,-0.431,1.115,-1.083
2207.0,3.679,1.654,1.426,-0.431,1.115,-1.083
2211.0,2.987,1.654,1.426,-0.561,1.174,-1.174
2215.0,2.987,1.654,1.426,-0.561,1.174,-1.174
2219.0,2.417,1.481,1.414,-0.683,1.249,-1.291
2222.0,2.417,1.481,1.414,-0.683,1.249,-1.291
2226.0,2.417,1.481,1.414,-0.683,1.249,-1.291
2230.0,2.004,1.36,1.653,-0.781,1.336,-1.424
2234.0,2.004,1.36,1.653,-0.781,1.336,-1.424
2238.0,1.802,1.215,1.892,-0.848,1.417,-1.565
2241.0,1.802,1.215,1.892,-0.848,1.417,-1.565
2245.0,1.802,1.215,1.892,-0.848,1.417,-1.565
2249.0,1.618,1.098,2.065,-0.886,1.496,-1.7
2253.0,1.618,1.098,2.065,-0.886,1.496,-1.7
2257.0,1.329,0.959,2.078,-0.886,1.496,-1.7
2261.0,1.329,0.959,2.078,-0.905,1.577,-1.808
2264.0,1.329,0.959,2.078,-0.905,1.577,-1.808
2268.0,0.803,0.829,1.983,-0.917,1.664,-1.876
2272.0,0.803,0.829,1.983,-0.917,1.664,-1.876
2276.0,0.803,0.829,1.983,-0.917,1.664,-1.876
2280.0,0.103,0.703,1.992,-0.937,1.747,-1.9
2283.0,0.103,0.703,1.992,-0.937,1.747,-1.9
2287.0,-0.451,0.567,1.934,-0.967,1.829,-1.91
2291.0,-0.451,0.567,1.934,-0.967,1.829,-1.91
2295.0,-0.451,0.567,1.934,-0.967,1.829,-1.91
2299.0,-0.962,0.403,2.134,-0.997,1.959,-1.968
2303.0,-0.962,0.403,2.134,-0.997,1.959,-1.968
2307.0,-1.484,0.267,2.719,-1.019,2.111,-2.084
2311.0,-1.484,0.267,2.719,-1.019,2.111,-2.084
2315.0,-1.484,0.267,2.719,-1.019,2.111,-2.084
2319.0,-2.094,0.148,3.335,-1.026,2.243,-2.23
2322.0,-2.094,0.148,3.335,-1.026,2.243,-2.23
2326.0,-2.715,-0.001,3.774,-1.023,2.338,-2.366
2330.0,-2.715,-0.001,3.774,-1.023,2.338,-2.366
2334.0,-2.715,-0.001,3.774,-1.023,2.338,-2.366
2338.0,-3.561,-0.01,4.204,-1.013,2.407,-2.481
2342.0,-3.561,-0.01,4.204,-1.013,2.407,-2.481
2346.0,-4.563,0.105,4.469,-0.99,2.445,-2.561
2350.0,-4.563,0.105,4.469,-0.99,2.445,-2.561
2354.0,-4.563,0.105,4.469,-0.99,2.445,-2.561
2358.0,-5.613,0.386,4.881,-0.945,2.484,-2.611
2362.0,-5.613,0.386,4.881,-0.945,2.484,-2.611
2366.0,-6.456,0.627,5.782,-0.852,2.536,-2.652
2370.0,-6.456,0.627,5.782,-0.852,2.536,-2.652
2374.0,-6.456,0.627,5.782,-0.852,2.536,-2.652
2378.0,-6.891,0.494,6.661,-0.697,2.563,-2.692
2381.0,-6.891,0.494,6.661,-0.697,2.563,-2.692
2385.0,-7.006,0.217,7.032,-0.697,2.554,-2.731
2389.0,-7.006,0.217,7.032,-0.499,2.554,-2.731
2393.0,-7.006,0.217,7.032,-0.499,2.554,-2.731
2397.0,-6.949,-0.091,6.736,-0.295,2.552,-2.776
2401.0,-6.949,-0.091,6.736,-0.295,2.552,-2.776
2405.0,-6.824,-0.191,6.255,-0.295,2.586,-2.83
2409.0,-6.824,-0.191,6.255,-0.119,2.586,-2.83
2413.0,-6.824,-0.191,6.255,-0.119,2.586,-2.83
2417.0,-6.637,0.084,5.873,0.017,2.647,-2.876
2421.0,-6.637,0.084,5.873,0.017,2.647,-2.876
2425.0,-6.014,0.416,5.438,0.017,2.647,-2.876
2429.0,-6.014,0.416,5.438,0.101,2.73,-2.876
2432.0,-6.014,0.416,5.438,0.101,2.73,-2.876
2436.0,-4.826,0.767,5.213,0.129,2.887,-2.876
2440.0,-4.826,0.767,5.213,0.129,2.887,-2.876
2444.0,-4.826,0.767,5.323,0.129,2.887,-2.876
2448.0,-3.537,1.164,5.323,0.123,3.165,-2.921
2451.0,-3.537,1.164,5.323,0.123,3.165,-2.921
2455.0,-2.952,1.4,5.691,0.09,3.548,-2.993
2459.0,-2.952,1.4,5.691,0.09,3.548,-2.993
2463.0,-2.952,1.4,5.691,0.09,3.548,-2.993
2467.0,-3.4,1.557,6.135,0.031,3.951,-3.038
2471.0,-3.4,1.557,6.135,0.031,3.951,-3.038
2474.0,-4.634,1.548,6.475,-0.049,4.318,-3.025
2478.0,-4.634,1.548,6.475,-0.049,4.318,-3.025
2482.0,-4.634,1.548,6.475,-0.049,4.318,-3.025
2486.0,-6.488,1.822,7.262,-0.16,4.61,-2.943
2490.0,-6.488,1.822,7.262,-0.16,4.61,-2.943
2494.0,-8.16,2.124,7.698,-0.16,4.795,-2.763
2498.0,-8.16,2.124,7.698,-0.305,4.795,-2.763
2502.0,-8.16,2.124,7.698,-0.305,4.795,-2.763
2506.0,-8.985,2.578,8.2,-0.511,4.924,-2.517
2509.0,-8.985,2.578,8.2,-0.511,4.924,-2.517
2513.0,-9.164,2.877,8.522,-0.511,4.924,-2.295
2517.0,-9.164,2.877,8.522,-0.763,5.007,-2.295
2521.0,-9.164,2.877,8.522,-0.763,5.007,-2.295
2525.0,-9.656,2.579,8.42,-1.04,5.015,-2.15
2529.0,-9.656,2.579,8.42,-1.04,5.015,-2.15
2533.0,-10.379,2.228,7.669,-1.04,5.015,-2.15
2537.0,-10.379,2.228,7.669,-1.328,5.015,-2.103
2541.0,-10.379,2.228,7.669,-1.328,5.015,-2.103
2545.0,-11.117,2.323,6.761,-1.613,5.015,-2.121
2549.0,-11.117,2.323,6.761,-1.613,5.015,-2.121
2553.0,-11.971,2.459,5.776,-1.613,5.015,-2.102
2557.0,-11.971,2.459,5.776,-1.915,5.015,-2.102
2561.0,-11.971,2.459,5.776,-1.915,5.015,-2.102
2565.0,-12.946,2.637,4.673,-2.259,5.015,-1.986
2569.0,-12.946,2.637,4.673,-2.259,5.015,-1.986
2573.0,-13.968,2.724,3.45,-2.259,5.015,-1.746
2577.0,-13.968,2.724,3.45,-2.654,5.015,-1.746
2581.0,-13.968,2.724,3.45,-2.654,5.015,-1.746
2585.0,-15.025,2.469,2.516,-3.109,5.015,-1.419
2589.0,-15.025,2.469,2.516,-3.109,5.015,-1.419
2593.0,-16.542,2.119,2.176,-3.59,5.015,-1.112
2597.0,-16.542,2.119,2.176,-3.59,5.015,-1.112
2601.0,-16.542,2.119,2.176,-3.59,5.015,-1.112
2605.0,-18.876,2.072,2.511,-4.022,5.015,-0.899
2609.0,-18.876,2.072,2.511,-4.022,5.015,-0.899
2613.0,-19.6,1.9,3.337,-4.353,5.015,-0.749
2617.0,-19.6,1.9,3.337,-4.353,5.015,-0.749
2621.0,-19.6,1.9,3.337,-4.353,5.015,-0.749
2625.0,-19.6,1.732,4.51,-4.587,5.015,-0.618
2629.0,-19.6,1.732,4.51,-4.587,5.015,-0.618
2633.0,-19.6,1.805,5.691,-4.771,5.015,-0.437
2637.0,-19.6,1.805,5.691,-4.771,5.015,-0.437
2641.0,-19.6,1.805,5.691,-4.771,5.015,-0.437
2645.0,-19.6,1.637,6.361,-4.944,5.015,-0.134
2649.0,-19.6,1.637,6.361,-4.944,5.015,-0.134
2653.0,-19.6,1.003,5.874,-5.012,5.015,0.281
2657.0,-19.6,1.003,5.874,-5.012,5.015,0.281
2661.0,-19.6,1.003,5.874,-5.012,5.015,0.281
2664.0,-19.6,0.427,4.277,-5.013,5.015,0.701
2668.0,-19.6,0.427,4.277,-5.013,5.015,0.701
2672.0,-19.6,0.249,2.394,-5.013,5.015,1.022
2676.0,-19.6,0.249,2.394,-5.013,5.015,1.022
2680.0,-19.6,0.249,2.394,-5.013,5.015,1.022
2684.0,-19.6,0.228,1.18,-5.013,5.015,1.2
2688.0,-19.6,0.228,1.18,-5.013,5.015,1.2
2692.0,-19.6,0.12,0.878,-5.013,5.015,1.222
2696.0,-19.6,0.12,0.878,-5.013,5.015,1.222
2700.0,-19.6,0.12,0.878,-5.013,5.015,1.222
2704.0,-19.6,0.046,1.063,-5.013,5.003,1.076
2707.0,-19.6,0.046,1.063,-5.013,5.003,1.076
2711.0,-19.6,0.283,1.869,-5.013,4.844,0.783
2715.0,-19.6,0.283,1.869,-5.013,4.844,0.783
2719.0,-19.6,0.283,1.869,-5.013,4.844,0.783
2723.0,-19.6,0.134,2.446,-5.013,4.521,0.446
2727.0,-19.6,0.134,2.446,-5.013,4.521,0.446
2731.0,-19.6,0.01,3.302,-5.013,4.137,0.135
2735.0,-19.6,0.01,3.302,-5.013,4.137,0.135
2739.0,-19.6,0.01,3.302,-5.013,4.137,0.135
2743.0,-19.571,-0.385,4.056,-5.013,3.727,-0.119
2747.0,-19.571,-0.385,4.056,-5.013,3.727,-0.119
2751.0,-18.398,-0.873,4.429,-5.013,3.334,-0.346
2755.0,-18.398,-0.873,4.429,-5.013,3.334,-0.346
2759.0,-18.398,-0.873,4.429,-5.013,3.334,-0.346
2763.0,-16.731,-1.37,4.705,-5.013,3.01,-0.567
2767.0,-16.731,-1.37,4.705,-5.013,3.01,-0.567
2771.0,-15.419,-2.018,4.983,-5.013,2.765,-0.752
2775.0,-15.419,-2.018,4.983,-5.013,2.765,-0.752
2779.0,-15.419,-2.018,4.983,-5.013,2.765,-0.752
2783.0,-14.446,-2.691,5.344,-5.013,2.571,-0.874
2787.0,-14.446,-2.691,5.344,-5.013,2.571,-0.874
2792.0,-12.877,-2.658,5.793,-4.896,2.397,-0.915
2796.0,-12.877,-2.658,5.793,-4.896,2.397,-0.915
2800.0,-12.875,-3.823,5.835,-4.896,2.397,-0.825
2804.0,-12.875,-3.823,5.835,-4.526,2.286,-0.825
2808.0,-12.875,-3.823,5.835,-4.526,2.286,-0.825
2812.0,-13.293,-4.874,6.169,-3.956,2.139,-0.714
2816.0,-13.293,-4.874,6.169,-3.956,2.139,-0.714
2820.0,-12.98,-5.369,6.243,-3.29,1.963,-0.578
2824.0,-12.98,-5.369,6.243,-3.29,1.963,-0.578
2828.0,-12.98,-5.369,6.243,-3.29,1.963,-0.578
2832.0,-12.499,-5.856,6.306,-2.611,1.807,-0.406
2836.0,-12.499,-5.856,6.306,-2.611,1.807,-0.406
2840.0,-11.79,-6.315,6.549,-1.907,1.657,-0.24
2845.0,-11.79,-6.315,6.549,-1.907,1.657,-0.24
2849.0,-11.79,-6.628,6.784,-1.907,1.657,-0.24
2853.0,-10.972,-6.628,6.784,-1.186,1.492,-0.112
2857.0,-10.972,-6.628,6.784,-1.186,1.492,-0.112
2861.0,-10.19,-6.708,6.976,-0.478,1.323,-0.021
2865.0,-10.19,-6.708,6.976,-0.478,1.323,-0.021
2869.0,-9.625,-6.564,7.087,-0.478,1.154,0.044
2873.0,-9.625,-6.564,7.087,0.18,1.154,0.044
2877.0,-9.625,-6.564,7.087,0.18,1.154,0.044
2881.0,-9.16,-6.282,7.098,0.78,0.963,0.083
2884.0,-9.16,-6.282,7.098,0.78,0.963,0.083
2888.0,-9.16,-5.822,7.153,0.78,0.963,0.083
2892.0,-8.707,-5.822,7.153,1.332,0.755,0.09
2896.0,-8.707,-5.822,7.153,1.332,0.755,0.09
2900.0,-8.46,-5.219,6.957,1.832,0.536,0.07
2904.0,-8.46,-5.219,6.957,1.832,0.536,0.07
2907.0,-8.46,-5.219,6.957,1.832,0.536,0.07
2911.0,-8.393,-4.49,6.552,2.273,0.32,0.025
2915.0,-8.393,-4.49,6.552,2.273,0.32,0.025
2919.0,-8.59,-3.517,6.377,2.649,0.104,-0.027
2923.0,-8.59,-3.517,6.377,2.649,0.104,-0.027
2927.0,-8.59,-3.517,6.377,2.649,0.104,-0.027
2930.0,-8.849,-2.963,5.839,2.955,-0.11,-0.07
2934.0,-8.849,-2.963,5.839,2.955,-0.11,-0.07
2938.0,-9.367,-2.139,5.38,3.224,-0.319,-0.112
2942.0,-9.367,-2.139,5.38,3.224,-0.319,-0.112
2946.0,-9.367,-2.139,5.38,3.224,-0.319,-0.112
2950.0,-10.043,-1.341,4.96,3.415,-0.555,-0.144
2955.0,-10.043,-1.341,4.96,3.415,-0.555,-0.144
2959.0,-10.601,-0.592,4.427,3.538,-0.807,-0.148
2963.0,-10.601,-0.592,4.427,3.538,-0.807,-0.148
2967.0,-10.601,-0.592,4.427,3.538,-0.807,-0.148
2971.0,-11.049,0.13,3.987,3.594,-1.069,-0.148
2975.0,-11.049,0.13,3.987,3.594,-1.069,-0.148
2979.0,-11.411,0.82,3.508,3.581,-1.338,-0.158
2983.0,-11.411,0.82,3.508,3.581,-1.338,-0.158
2987.0,-11.411,1.425,3.01,3.581,-1.338,-0.158
2991.0,-11.657,1.425,3.01,3.503,-1.607,-0.18
2995.0,-11.657,1.425,3.01,3.503,-1.607,-0.18
2999.0,-11.8,1.987,2.505,3.354,-1.868,-0.216
