deltaTime,Acc_X,Acc_Y,Acc_Z,Gyro_X,Gyro_Y,Gyro_Z
0.0,-9.216,-2.645,2.469,0.166,-0.45,-0.309
3.0,-9.426,-2.341,1.957,0.358,-0.431,-0.327
6.0,-9.426,-2.341,1.957,0.358,-0.431,-0.327
9.0,-9.426,-2.341,1.957,0.358,-0.431,-0.327
12.0,-9.426,-2.436,1.715,0.358,-0.431,-0.327
15.0,-10.128,-2.436,1.715,0.481,-0.401,-0.293
18.0,-10.128,-2.436,1.715,0.481,-0.401,-0.293
21.0,-10.128,-2.436,1.715,0.481,-0.401,-0.293
24.0,-10.895,-2.493,1.667,0.574,-0.349,-0.224
27.0,-10.895,-2.493,1.667,0.574,-0.349,-0.224
30.0,-10.895,-2.493,1.667,0.574,-0.349,-0.224
34.0,-11.446,-2.131,1.694,0.622,-0.316,-0.153
38.0,-11.446,-2.131,1.694,0.622,-0.316,-0.153
42.0,-11.446,-2.131,1.743,0.622,-0.316,-0.153
46.0,-11.646,-1.704,1.743,0.567,-0.304,-0.113
49.0,-11.646,-1.704,1.743,0.567,-0.304,-0.113
53.0,-11.583,-1.561,1.841,0.42,-0.306,-0.096
57.0,-11.583,-1.561,1.841,0.42,-0.306,-0.096
61.0,-11.583,-1.561,1.841,0.42,-0.306,-0.096
65.0,-11.1,-1.738,1.838,0.264,-0.314,-0.085
69.0,-11.1,-1.738,1.838,0.264,-0.314,-0.085
73.0,-10.475,-1.856,1.846,0.173,-0.323,-0.088
77.0,-10.475,-1.856,1.846,0.173,-0.323,-0.088
81.0,-10.475,-1.856,1.846,0.173,-0.323,-0.088
85.0,-9.895,-1.855,1.872,0.145,-0.318,-0.109
88.0,-9.895,-1.855,1.872,0.145,-0.318,-0.109
92.0,-9.364,-1.96,1.937,0.172,-0.297,-0.134
96.0,-9.364,-1.96,1.937,0.172,-0.297,-0.134
100.0,-9.364,-1.96,1.937,0.172,-0.297,-0.134
104.0,-9.011,-2.328,2.069,0.277,-0.263,-0.124
108.0,-9.011,-2.328,2.069,0.277,-0.263,-0.124
112.0,-8.865,-2.683,2.219,0.482,-0.21,-0.061
116.0,-8.865,-2.683,2.219,0.482,-0.21,-0.061
119.0,-8.865,-2.683,2.219,0.482,-0.21,-0.061
123.0,-8.61,-2.707,2.23,0.739,-0.153,0.025
127.0,-8.61,-2.707,2.23,0.739,-0.153,0.025
131.0,-8.555,-2.645,2.308,0.739,-0.153,0.106
135.0,-8.555,-2.645,2.308,0.969,-0.099,0.106
139.0,-8.555,-2.645,2.308,0.969,-0.099,0.106
142.0,-8.538,-2.456,2.457,1.137,-0.046,0.18
146.0,-8.538,-2.456,2.457,1.137,-0.046,0.18
150.0,-8.538,-2.456,2.537,1.137,-0.046,0.18
154.0,-8.723,-2.07,2.537,1.2,0.021,0.221
158.0,-8.723,-2.07,2.537,1.2,0.021,0.221
161.0,-9.039,-1.832,2.689,1.154,0.034,0.225
165.0,-9.039,-1.832,2.689,1.154,0.034,0.225
169.0,-9.039,-1.832,2.689,1.154,0.034,0.225
173.0,-9.213,-1.727,2.74,1.032,0.009,0.203
176.0,-9.213,-1.727,2.74,1.032,0.009,0.203
180.0,-8.996,-1.354,2.547,1.032,0.009,0.203
184.0,-8.996,-1.354,2.547,0.874,-0.032,0.168
188.0,-8.996,-1.354,2.547,0.874,-0.032,0.168
191.0,-9.229,-0.738,2.423,0.667,-0.052,0.132
195.0,-9.229,-0.738,2.423,0.667,-0.052,0.132
199.0,-9.229,-0.738,2.423,0.667,-0.052,0.132
203.0,-9.617,-0.217,2.386,0.388,-0.061,0.106
207.0,-9.617,-0.217,2.386,0.388,-0.061,0.106
210.0,-9.861,-0.15,2.606,0.064,-0.071,0.091
214.0,-9.861,-0.15,2.606,0.064,-0.071,0.091
218.0,-9.861,-0.15,2.606,0.064,-0.071,0.091
222.0,-9.919,-0.39,3.013,-0.228,-0.089,0.084
226.0,-9.919,-0.39,3.013,-0.228,-0.089,0.084
230.0,-9.473,0.379,2.959,-0.228,-0.089,0.042
234.0,-9.473,0.379,2.959,-0.516,-0.115,0.042
237.0,-9.473,0.379,2.959,-0.516,-0.115,0.042
241.0,-9.575,-0.094,3.404,-0.898,-0.153,-0.035
245.0,-9.575,-0.094,3.404,-0.898,-0.153,-0.035
249.0,-9.871,-1.46,3.657,-0.898,-0.153,-0.035
253.0,-9.871,-1.46,3.657,-1.12,-0.175,-0.067
257.0,-9.871,-1.46,3.657,-1.12,-0.175,-0.067
261.0,-10.039,-2.97,3.961,-1.057,-0.198,-0.063
265.0,-10.039,-2.97,3.961,-1.057,-0.198,-0.063
269.0,-9.784,-3.707,3.826,-1.057,-0.235,-0.066
273.0,-9.784,-3.707,3.826,-0.711,-0.235,-0.066
277.0,-9.784,-3.707,3.826,-0.711,-0.235,-0.066
281.0,-8.891,-2.999,3.218,-0.256,-0.266,-0.112
285.0,-8.891,-2.999,3.218,-0.256,-0.266,-0.112
289.0,-8.603,-1.668,2.9,0.049,-0.237,-0.182
293.0,-8.603,-1.668,2.9,0.049,-0.237,-0.182
297.0,-8.603,-1.668,2.9,0.049,-0.237,-0.182
301.0,-8.701,-1.07,2.964,0.118,-0.169,-0.223
305.0,-8.701,-1.07,2.964,0.118,-0.169,-0.223
309.0,-8.66,-0.885,3.119,0.118,-0.101,-0.207
313.0,-8.66,-0.885,3.119,0.078,-0.101,-0.207
317.0,-8.66,-0.885,3.119,0.078,-0.101,-0.207
321.0,-8.564,-0.759,3.083,0.003,-0.042,-0.159
324.0,-8.564,-0.759,3.083,0.003,-0.042,-0.159
328.0,-8.634,-0.581,2.967,0.003,-0.042,-0.108
332.0,-8.634,-0.581,2.967,-0.119,0.012,-0.108
336.0,-8.634,-0.581,2.967,-0.119,0.012,-0.108
340.0,-8.749,-0.34,2.832,-0.303,0.058,-0.066
344.0,-8.749,-0.34,2.832,-0.303,0.058,-0.066
348.0,-8.855,-0.16,2.787,-0.303,0.058,-0.066
352.0,-8.855,-0.16,2.787,-0.548,0.108,-0.031
356.0,-8.855,-0.16,2.787,-0.548,0.108,-0.031
360.0,-9.026,0.109,2.949,-0.851,0.167,0.001
363.0,-9.026,0.109,2.949,-0.851,0.167,0.001
367.0,-9.026,0.109,2.949,-0.851,0.167,0.001
371.0,-9.148,0.285,3.234,-1.218,0.216,0.028
375.0,-9.148,0.285,3.234,-1.218,0.216,0.028
378.0,-9.478,-0.035,3.603,-1.623,0.239,0.051
382.0,-9.478,-0.035,3.603,-1.623,0.239,0.051
386.0,-9.478,-0.035,3.603,-1.623,0.239,0.051
390.0,-9.409,-0.766,3.672,-1.951,0.216,0.083
394.0,-9.409,-0.766,3.672,-1.951,0.216,0.083
397.0,-9.293,-2.054,4.469,-1.951,0.216,0.114
401.0,-9.293,-2.054,4.469,-2.174,0.265,0.114
405.0,-9.293,-2.054,4.469,-2.174,0.265,0.114
409.0,-9.052,-2.834,4.269,-2.089,0.183,0.11
413.0,-9.052,-2.834,4.269,-2.089,0.183,0.11
416.0,-9.052,-2.834,4.269,-2.089,0.183,0.11
420.0,-9.052,-3.663,4.358,-1.866,0.145,0.104
424.0,-9.052,-3.663,4.358,-1.866,0.145,0.104
428.0,-9.162,-4.328,4.449,-1.441,0.1,0.098
432.0,-9.162,-4.328,4.449,-1.441,0.1,0.098
436.0,-9.162,-4.328,4.449,-1.441,0.1,0.098
439.0,-9.255,-4.271,3.897,-0.872,0.025,0.09
443.0,-9.255,-4.271,3.897,-0.872,0.025,0.09
447.0,-8.748,-4.056,3.187,-0.872,-0.072,0.057
451.0,-8.748,-4.056,3.187,-0.277,-0.072,0.057
455.0,-8.748,-4.056,3.187,-0.277,-0.072,0.057
459.0,-8.304,-3.685,2.434,0.296,-0.124,0.026
463.0,-8.304,-3.685,2.434,0.296,-0.124,0.026
466.0,-8.02,-3.251,1.767,0.296,-0.124,0.026
470.0,-8.02,-3.251,1.767,0.803,-0.12,0.013
474.0,-8.02,-3.251,1.767,0.803,-0.12,0.013
478.0,-7.871,-2.843,1.271,1.216,-0.084,0.013
482.0,-7.871,-2.843,1.271,1.216,-0.084,0.013
485.0,-7.871,-2.843,1.271,1.216,-0.084,0.013
489.0,-7.853,-2.506,0.942,1.528,-0.036,0.008
493.0,-7.853,-2.506,0.942,1.528,-0.036,0.008
497.0,-8.021,-2.224,0.735,1.741,0.02,-0.009
501.0,-8.021,-2.224,0.735,1.741,0.02,-0.009
505.0,-8.021,-2.224,0.735,1.741,0.02,-0.009
508.0,-8.413,-2.037,0.863,1.856,0.08,-0.028
512.0,-8.413,-2.037,0.863,1.856,0.08,-0.028
516.0,-9.113,-2.261,1.37,1.856,0.117,-0.041
520.0,-9.113,-2.261,1.37,1.9,0.117,-0.041
524.0,-9.113,-2.261,1.37,1.9,0.117,-0.041
528.0,-9.907,-2.538,1.886,1.917,0.105,-0.058
531.0,-9.907,-2.538,1.886,1.917,0.105,-0.058
535.0,-9.907,-2.538,2.459,1.917,0.105,-0.058
539.0,-10.555,-2.643,2.459,1.919,0.056,-0.082
543.0,-10.555,-2.643,2.459,1.919,0.056,-0.082
547.0,-10.875,-2.569,3.039,1.892,-0.011,-0.11
551.0,-10.875,-2.569,3.039,1.892,-0.011,-0.11
555.0,-10.875,-2.569,3.744,1.892,-0.011,-0.11
559.0,-10.778,-2.432,3.744,1.817,-0.072,-0.147
563.0,-10.778,-2.432,3.744,1.817,-0.072,-0.147
567.0,-10.404,-2.085,4.53,1.703,-0.114,-0.209
571.0,-10.404,-2.085,4.53,1.703,-0.114,-0.209
575.0,-10.404,-1.694,5.317,1.703,-0.114,-0.209
579.0,-9.949,-1.694,5.317,1.574,-0.163,-0.294
583.0,-9.949,-1.694,5.317,1.574,-0.163,-0.294
587.0,-9.835,-1.363,6.209,1.46,-0.26,-0.395
590.0,-9.835,-1.363,6.209,1.46,-0.26,-0.395
594.0,-9.835,-1.363,7.14,1.46,-0.26,-0.395
598.0,-10.117,-0.92,7.14,1.378,-0.427,-0.494
602.0,-10.117,-0.92,7.14,1.378,-0.427,-0.494
606.0,-10.599,-0.647,7.713,1.289,-0.654,-0.573
610.0,-10.599,-0.647,7.713,1.289,-0.654,-0.573
614.0,-10.599,-0.567,8.097,1.289,-0.654,-0.573
618.0,-10.956,-0.567,8.097,1.159,-0.903,-0.611
622.0,-10.956,-0.567,8.097,1.159,-0.903,-0.611
626.0,-10.932,-0.75,8.557,0.985,-1.143,-0.618
630.0,-10.932,-0.75,8.557,0.985,-1.143,-0.618
634.0,-10.461,-1.183,8.943,0.985,-1.143,-0.618
638.0,-10.461,-1.183,8.943,0.788,-1.362,-0.63
642.0,-10.461,-1.183,8.943,0.788,-1.362,-0.63
646.0,-9.89,-1.453,9.389,0.586,-1.555,-0.668
650.0,-9.89,-1.453,9.389,0.586,-1.555,-0.668
654.0,-9.655,-1.467,9.959,0.586,-1.555,-0.668
658.0,-9.655,-1.467,9.959,0.395,-1.742,-0.711
662.0,-9.655,-1.467,9.959,0.395,-1.742,-0.711
666.0,-9.638,-1.339,10.445,0.238,-1.936,-0.739
670.0,-9.638,-1.339,10.445,0.238,-1.936,-0.739
674.0,-9.634,-1.173,11.026,0.238,-1.936,-0.739
678.0,-9.634,-1.173,11.026,0.133,-2.139,-0.749
682.0,-9.634,-1.173,11.026,0.133,-2.139,-0.749
686.0,-9.61,-1.196,11.628,0.087,-2.365,-0.745
690.0,-9.61,-1.196,11.628,0.087,-2.365,-0.745
694.0,-9.687,-1.357,12.162,0.087,-2.365,-0.738
698.0,-9.687,-1.357,12.162,0.097,-2.612,-0.738
702.0,-9.687,-1.357,12.162,0.097,-2.612,-0.738
706.0,-9.641,-1.545,12.433,0.135,-2.856,-0.727
710.0,-9.641,-1.545,12.433,0.135,-2.856,-0.727
714.0,-9.386,-1.762,12.519,0.162,-3.052,-0.71
718.0,-9.386,-1.762,12.519,0.162,-3.052,-0.71
722.0,-9.386,-1.762,12.519,0.162,-3.052,-0.71
726.0,-9.042,-2.338,12.702,0.172,-3.187,-0.681
730.0,-9.042,-2.338,12.702,0.172,-3.187,-0.681
734.0,-8.899,-3.034,12.913,0.192,-3.293,-0.653
738.0,-8.899,-3.034,12.913,0.192,-3.293,-0.653
742.0,-8.899,-3.034,12.913,0.192,-3.293,-0.653
746.0,-8.883,-3.54,13.245,0.246,-3.408,-0.63
750.0,-8.883,-3.54,13.245,0.246,-3.408,-0.63
754.0,-8.973,-3.919,13.478,0.349,-3.539,-0.61
758.0,-8.973,-3.919,13.478,0.349,-3.539,-0.61
762.0,-8.973,-3.919,13.478,0.349,-3.539,-0.61
766.0,-9.129,-4.343,13.716,0.499,-3.688,-0.59
770.0,-9.129,-4.343,13.716,0.499,-3.688,-0.59
774.0,-9.363,-4.824,13.893,0.69,-3.855,-0.577
778.0,-9.363,-4.824,13.893,0.69,-3.855,-0.577
781.0,-9.363,-4.824,13.893,0.69,-3.855,-0.577
785.0,-9.717,-5.435,14.07,0.903,-4.03,-0.569
789.0,-9.717,-5.435,14.07,0.903,-4.03,-0.569
793.0,-10.021,-6.043,14.27,1.122,-4.2,-0.572
798.0,-10.021,-6.043,14.27,1.122,-4.2,-0.572
802.0,-10.021,-6.043,14.499,1.122,-4.2,-0.572
806.0,-9.974,-6.441,14.499,1.322,-4.343,-0.592
810.0,-9.974,-6.441,14.499,1.322,-4.343,-0.592
814.0,-9.575,-6.657,14.655,1.482,-4.443,-0.628
818.0,-9.575,-6.657,14.655,1.482,-4.443,-0.628
822.0,-9.096,-6.796,14.841,1.482,-4.443,-0.628
826.0,-9.096,-6.796,14.841,1.592,-4.495,-0.662
830.0,-9.096,-6.796,14.841,1.592,-4.495,-0.662
834.0,-8.876,-7.002,15.188,1.659,-4.529,-0.684
838.0,-8.876,-7.002,15.188,1.659,-4.529,-0.684
842.0,-8.883,-7.244,15.37,1.659,-4.529,-0.685
846.0,-8.883,-7.244,15.37,1.695,-4.595,-0.685
850.0,-8.883,-7.244,15.37,1.695,-4.595,-0.685
854.0,-8.791,-7.501,15.199,1.714,-4.685,-0.672
858.0,-8.791,-7.501,15.199,1.714,-4.685,-0.672
862.0,-8.419,-7.994,14.943,1.714,-4.763,-0.658
866.0,-8.419,-7.994,14.943,1.738,-4.763,-0.658
870.0,-8.419,-7.994,14.943,1.738,-4.763,-0.658
874.0,-7.923,-8.544,14.664,1.846,-4.803,-0.646
878.0,-7.923,-8.544,14.664,1.846,-4.803,-0.646
882.0,-7.609,-8.919,14.413,2.067,-4.816,-0.62
886.0,-7.609,-8.919,14.413,2.067,-4.816,-0.62
890.0,-7.609,-8.919,14.413,2.067,-4.816,-0.62
894.0,-7.418,-9.08,14.256,2.36,-4.821,-0.575
898.0,-7.418,-9.08,14.256,2.36,-4.821,-0.575
902.0,-7.373,-9.145,14.222,2.673,-4.847,-0.523
906.0,-7.373,-9.145,14.222,2.673,-4.847,-0.523
910.0,-7.373,-9.145,14.222,2.673,-4.847,-0.523
914.0,-7.501,-9.029,14.081,2.952,-4.902,-0.478
918.0,-7.501,-9.029,14.081,2.952,-4.902,-0.478
922.0,-7.482,-8.64,13.5,3.168,-4.961,-0.443
926.0,-7.482,-8.64,13.5,3.168,-4.961,-0.443
929.0,-7.482,-8.64,13.5,3.168,-4.961,-0.443
933.0,-6.847,-8.324,12.77,3.318,-4.988,-0.425
937.0,-6.847,-8.324,12.77,3.318,-4.988,-0.425
941.0,-6.08,-7.97,12.065,3.429,-4.989,-0.446
945.0,-6.08,-7.97,12.065,3.429,-4.989,-0.446
949.0,-6.08,-7.97,12.065,3.429,-4.989,-0.446
953.0,-5.531,-7.518,11.252,3.506,-4.984,-0.486
957.0,-5.531,-7.518,11.252,3.506,-4.984,-0.486
961.0,-4.887,-6.958,10.595,3.538,-4.944,-0.529
965.0,-4.887,-6.958,10.595,3.538,-4.944,-0.529
969.0,-4.887,-6.958,10.537,3.538,-4.944,-0.529
973.0,-4.936,-6.619,10.537,3.534,-4.829,-0.578
977.0,-4.936,-6.619,10.537,3.534,-4.829,-0.578
981.0,-4.448,-5.963,10.603,3.592,-4.861,-0.612
985.0,-4.448,-5.963,10.603,3.592,-4.861,-0.612
989.0,-4.296,-5.685,10.045,3.592,-4.861,-0.612
993.0,-4.296,-5.685,10.045,3.604,-4.891,-0.62
997.0,-4.296,-5.685,10.045,3.604,-4.891,-0.62
1001.0,-3.988,-5.506,9.072,3.559,-4.915,-0.611
1005.0,-3.988,-5.506,9.072,3.559,-4.915,-0.611
1009.0,-3.373,-5.189,7.853,3.559,-4.915,-0.612
1013.0,-3.373,-5.189,7.853,3.501,-4.902,-0.612
1017.0,-3.373,-5.189,7.853,3.501,-4.902,-0.612
1021.0,-2.691,-4.755,6.87,3.487,-4.829,-0.638
1025.0,-2.691,-4.755,6.87,3.487,-4.829,-0.638
1029.0,-2.283,-4.318,6.242,3.487,-4.739,-0.682
1033.0,-2.283,-4.318,6.242,3.523,-4.739,-0.682
1037.0,-2.283,-4.318,6.242,3.523,-4.739,-0.682
1041.0,-2.001,-4.01,5.628,3.579,-4.652,-0.723
1045.0,-2.001,-4.01,5.628,3.579,-4.652,-0.723
1049.0,-1.744,-3.859,5.072,3.632,-4.557,-0.757
1053.0,-1.744,-3.859,5.072,3.632,-4.557,-0.757
1057.0,-1.744,-3.859,5.072,3.632,-4.557,-0.757
1061.0,-1.462,-3.834,4.539,3.711,-4.439,-0.793
1065.0,-1.462,-3.834,4.539,3.711,-4.439,-0.793
1069.0,-1.156,-3.605,3.995,3.833,-4.3,-0.845
1073.0,-1.156,-3.605,3.995,3.833,-4.3,-0.845
1077.0,-1.156,-3.605,3.995,3.833,-4.3,-0.845
1081.0,-0.872,-3.152,3.454,3.975,-4.152,-0.911
1085.0,-0.872,-3.152,3.454,3.975,-4.152,-0.911
1089.0,-0.712,-2.686,2.61,4.105,-4.022,-0.97
1093.0,-0.712,-2.686,2.61,4.105,-4.022,-0.97
1097.0,-0.712,-2.686,2.61,4.105,-4.022,-0.97
1101.0,-0.292,-1.997,1.892,4.2,-3.91,-1.022
1105.0,-0.292,-1.997,1.892,4.2,-3.91,-1.022
1109.0,-0.096,-1.464,1.225,4.232,-3.738,-1.068
1113.0,-0.096,-1.464,1.225,4.232,-3.738,-1.068
1117.0,-0.096,-1.464,1.225,4.232,-3.738,-1.068
1121.0,0.204,-1.088,0.529,4.217,-3.546,-1.127
1125.0,0.204,-1.088,0.529,4.217,-3.546,-1.127
1129.0,0.622,-0.449,0.017,4.191,-3.335,-1.219
1133.0,0.622,-0.449,0.017,4.191,-3.335,-1.219
1137.0,0.622,-0.449,0.017,4.191,-3.335,-1.219
1141.0,1.028,0.409,-0.363,4.183,-3.131,-1.329
1145.0,1.028,0.409,-0.363,4.183,-3.131,-1.329
1149.0,1.549,1.335,-0.967,4.19,-2.956,-1.432
1152.0,1.549,1.335,-0.967,4.19,-2.956,-1.432
1156.0,1.549,1.335,-0.967,4.19,-2.956,-1.432
1160.0,2.116,2.058,-1.625,4.189,-2.781,-1.522
1164.0,2.116,2.058,-1.625,4.189,-2.781,-1.522
1168.0,2.627,2.636,-2.033,4.149,-2.602,-1.615
1172.0,2.627,2.636,-2.033,4.149,-2.602,-1.615
1176.0,2.627,2.636,-2.033,4.149,-2.602,-1.615
1180.0,2.946,3.299,-2.322,4.053,-2.427,-1.725
1184.0,2.946,3.299,-2.322,4.053,-2.427,-1.725
1188.0,3.284,3.946,-2.484,3.894,-2.259,-1.828
1191.0,3.284,3.946,-2.484,3.894,-2.259,-1.828
1195.0,3.284,3.946,-2.484,3.894,-2.259,-1.828
1199.0,3.466,4.601,-2.514,3.685,-2.099,-1.918
1203.0,3.466,4.601,-2.514,3.685,-2.099,-1.918
1207.0,3.685,5.106,-2.701,3.439,-1.96,-1.991
1211.0,3.685,5.106,-2.701,3.439,-1.96,-1.991
1215.0,3.685,5.106,-2.701,3.439,-1.96,-1.991
1219.0,4.02,5.626,-2.873,3.176,-1.818,-2.054
1223.0,4.02,5.626,-2.873,3.176,-1.818,-2.054
1227.0,4.22,6.331,-3.24,3.176,-1.818,-2.095
1231.0,4.22,6.331,-3.24,2.918,-1.669,-2.095
1234.0,4.22,6.331,-3.24,2.918,-1.669,-2.095
1238.0,4.527,7.116,-3.759,2.682,-1.508,-2.095
1242.0,4.527,7.116,-3.759,2.682,-1.508,-2.095
1246.0,4.822,7.926,-4.315,2.682,-1.508,-2.095
1250.0,4.822,7.926,-4.315,2.479,-1.324,-2.073
1254.0,4.822,7.926,-4.315,2.479,-1.324,-2.073
1258.0,5.164,8.705,-4.691,2.303,-1.125,-2.015
1262.0,5.164,8.705,-4.691,2.303,-1.125,-2.015
1266.0,5.353,9.666,-5.224,2.303,-1.125,-2.015
1270.0,5.353,9.666,-5.224,2.177,-0.916,-1.921
1274.0,5.353,9.666,-5.224,2.177,-0.916,-1.921
1277.0,5.596,10.744,-5.94,2.107,-0.703,-1.771
1281.0,5.596,10.744,-5.94,2.107,-0.703,-1.771
1285.0,5.596,11.877,-7.053,2.107,-0.703,-1.771
1289.0,6.131,11.877,-7.053,2.082,-0.464,-1.57
1293.0,6.131,11.877,-7.053,2.082,-0.464,-1.57
1297.0,7.172,13.274,-8.72,2.106,-0.187,-1.326
1301.0,7.172,13.274,-8.72,2.106,-0.187,-1.326
1305.0,8.531,14.362,-10.428,2.106,-0.187,-1.326
1309.0,8.531,14.362,-10.428,2.175,0.17,-1.002
1313.0,8.531,14.362,-10.428,2.175,0.17,-1.002
1317.0,9.187,14.876,-11.213,2.277,0.617,-0.616
1321.0,9.187,14.876,-11.213,2.277,0.617,-0.616
1325.0,9.339,15.392,-11.478,2.277,1.068,-0.197
1329.0,9.339,15.392,-11.478,2.379,1.068,-0.197
1333.0,9.339,15.392,-11.478,2.379,1.068,-0.197
1337.0,9.15,16.178,-11.969,2.447,1.546,0.255
1341.0,9.15,16.178,-11.969,2.447,1.546,0.255
1345.0,9.199,17.344,-13.549,2.447,2.073,0.75
1349.0,9.199,17.344,-13.549,2.483,2.073,0.75
1353.0,9.199,17.344,-13.549,2.483,2.073,0.75
1357.0,9.682,18.52,-15.527,2.481,2.685,1.309
1361.0,9.682,18.52,-15.527,2.481,2.685,1.309
1365.0,10.308,19.035,-16.738,2.481,2.685,1.929
1369.0,10.308,19.035,-16.738,2.424,3.358,1.929
1373.0,10.308,19.035,-16.738,2.424,3.358,1.929
1377.0,10.775,19.455,-17.538,2.263,4.059,2.554
1381.0,10.775,19.455,-17.538,2.263,4.059,2.554
1385.0,10.607,18.963,-16.86,2.263,4.738,3.149
1389.0,10.607,18.963,-16.86,1.947,4.738,3.149
1393.0,10.607,18.963,-16.86,1.947,4.738,3.149
1397.0,9.41,17.845,-14.892,1.505,5.01,3.697
1401.0,9.41,17.845,-14.892,1.505,5.01,3.697
1404.0,7.504,16.128,-12.48,1.05,5.015,4.22
1408.0,7.504,16.128,-12.48,1.05,5.015,4.22
1412.0,7.504,16.128,-12.48,1.05,5.015,4.22
1416.0,4.486,13.672,-9.005,0.64,5.015,4.709
1420.0,4.486,13.672,-9.005,0.64,5.015,4.709
1424.0,0.642,10.942,-5.841,0.64,5.015,4.991
1428.0,0.642,10.942,-5.841,0.24,5.015,4.991
1431.0,0.642,10.942,-5.841,0.24,5.015,4.991
1435.0,-3.561,8.515,-3.374,-0.234,5.015,5.013
1439.0,-3.561,8.515,-3.374,-0.234,5.015,5.013
1443.0,-3.561,8.515,-0.028,-0.234,5.015,5.013
1447.0,-8.784,6.529,-0.028,-0.894,5.015,5.013
1451.0,-8.784,6.529,-0.028,-0.894,5.015,5.013
1455.0,-14.965,4.702,3.78,-1.853,5.015,4.952
1459.0,-14.965,4.702,3.78,-1.853,5.015,4.952
1463.0,-14.965,4.702,3.78,-1.853,5.015,4.952
1467.0,-19.504,2.081,4.737,-3.133,4.979,4.477
1470.0,-19.504,2.081,4.737,-3.133,4.979,4.477
1474.0,-19.6,-2.539,5.023,-4.433,4.324,3.627
1478.0,-19.6,-2.539,5.023,-4.433,4.324,3.627
1482.0,-19.6,-2.539,5.023,-4.433,4.324,3.627
1486.0,-19.6,-7.271,8.122,-4.995,2.978,2.519
1490.0,-19.6,-7.271,8.122,-4.995,2.978,2.519
1494.0,-19.363,-10.397,10.072,-5.013,1.396,1.329
1499.0,-19.363,-10.397,10.072,-5.013,1.396,1.329
1503.0,-15.788,-12.386,10.117,-5.013,1.396,1.329
1507.0,-15.788,-12.386,10.117,-5.013,-0.063,0.168
1511.0,-15.788,-12.386,10.117,-5.013,-0.063,0.168
1515.0,-11.81,-13.179,9.249,-4.998,-1.219,-0.899
1520.0,-11.81,-13.179,9.249,-4.998,-1.219,-0.899
1524.0,-7.959,-13.162,8.137,-4.546,-2.082,-1.749
1528.0,-7.959,-13.162,8.137,-4.546,-2.082,-1.749
1532.0,-4.637,-12.458,7.84,-4.546,-2.082,-1.749
1536.0,-4.637,-12.458,7.84,-3.505,-2.635,-2.384
1541.0,-4.637,-12.458,7.84,-3.505,-2.635,-2.384
1545.0,-2.393,-11.354,7.908,-2.318,-3.011,-2.849
1549.0,-2.393,-11.354,7.908,-2.318,-3.011,-2.849
1553.0,-1.043,-9.456,7.168,-1.152,-3.323,-3.212
1557.0,-1.043,-9.456,7.168,-1.152,-3.323,-3.212
1561.0,-1.043,-9.456,7.168,-1.152,-3.323,-3.212
1565.0,-0.496,-6.891,5.602,-0.166,-3.57,-3.515
1569.0,-0.496,-6.891,5.602,-0.166,-3.57,-3.515
1573.0,-0.352,-4.306,3.956,0.543,-3.751,-3.78
1577.0,-0.352,-4.306,3.956,0.543,-3.751,-3.78
1581.0,-0.352,-2.06,2.958,0.543,-3.751,-3.78
1585.0,-0.091,-2.06,2.958,0.969,-3.875,-4.032
1589.0,-0.091,-2.06,2.958,0.969,-3.875,-4.032
1593.0,0.531,-0.051,2.374,1.166,-3.952,-4.282
1597.0,0.531,-0.051,2.374,1.166,-3.952,-4.282
1601.0,0.531,1.769,1.814,1.166,-3.952,-4.282
1605.0,1.759,1.769,1.814,1.24,-3.954,-4.504
1609.0,1.759,1.769,1.814,1.24,-3.954,-4.504
1613.0,3.977,3.83,0.873,1.316,-3.864,-4.676
1616.0,3.977,3.83,0.873,1.316,-3.864,-4.676
1620.0,3.977,3.83,0.873,1.316,-3.864,-4.676
1624.0,6.813,5.806,-0.339,1.469,-3.689,-4.786
1628.0,6.813,5.806,-0.339,1.469,-3.689,-4.786
1632.0,9.132,7.161,-1.253,1.672,-3.491,-4.854
1636.0,9.132,7.161,-1.253,1.672,-3.491,-4.854
1640.0,9.132,7.161,-1.253,1.672,-3.491,-4.854
1644.0,9.926,8.366,-1.937,1.826,-3.355,-4.917
1648.0,9.926,8.366,-1.937,1.826,-3.355,-4.917
1651.0,9.038,10.211,-2.703,1.883,-3.261,-4.946
1655.0,9.038,10.211,-2.703,1.883,-3.261,-4.946
1659.0,9.038,10.211,-2.703,1.883,-3.261,-4.946
1663.0,7.387,13.316,-4.241,1.856,-3.226,-4.882
1667.0,7.387,13.316,-4.241,1.856,-3.226,-4.882
1671.0,7.074,17.098,-7.022,1.822,-3.207,-4.634
1675.0,7.074,17.098,-7.022,1.822,-3.207,-4.634
1679.0,7.074,17.098,-7.022,1.822,-3.207,-4.634
1683.0,9.44,19.508,-11.007,1.833,-3.131,-4.185
1687.0,9.44,19.508,-11.007,1.833,-3.131,-4.185
1692.0,13.982,19.596,-15.368,1.882,-2.884,-3.597
1696.0,13.982,19.596,-15.368,1.882,-2.884,-3.597
1700.0,13.982,19.596,-18.739,1.882,-2.884,-3.597
1704.0,17.046,19.596,-18.739,1.835,-2.398,-2.893
1708.0,17.046,19.596,-18.739,1.835,-2.398,-2.893
1712.0,17.892,19.596,-19.594,1.558,-1.69,-2.099
1717.0,17.892,19.596,-19.594,1.558,-1.69,-2.099
1721.0,17.511,19.596,-19.596,1.083,-0.836,-1.258
1725.0,17.511,19.596,-19.596,1.083,-0.836,-1.258
1729.0,17.511,19.596,-19.596,1.083,-0.836,-1.258
1733.0,15.863,19.596,-19.556,0.578,0.059,-0.391
1737.0,15.863,19.596,-19.556,0.578,0.059,-0.391
1741.0,13.455,19.596,-17.701,0.237,0.9,0.49
1745.0,13.455,19.596,-17.701,0.237,0.9,0.49
1749.0,10.975,19.596,-14.776,0.237,0.9,0.49
1753.0,10.975,19.596,-14.776,0.137,1.607,1.324
1757.0,10.975,19.596,-14.776,0.137,1.607,1.324
1761.0,9.425,19.596,-14.027,0.208,2.167,2.053
1765.0,9.425,19.596,-14.027,0.208,2.167,2.053
1769.0,9.919,19.596,-15.315,0.208,2.167,2.053
1773.0,9.919,19.596,-15.315,0.329,2.711,2.684
1777.0,9.919,19.596,-15.315,0.329,2.711,2.684
1781.0,11.568,19.596,-16.432,0.397,3.371,3.255
1785.0,11.568,19.596,-16.432,0.397,3.371,3.255
1789.0,12.438,19.587,-16.0,0.397,3.371,3.255
1793.0,12.438,19.587,-16.0,0.397,4.132,3.781
1797.0,12.438,19.587,-16.0,0.397,4.132,3.781
1801.0,12.127,18.971,-15.114,0.389,4.821,4.247
1805.0,12.127,18.971,-15.114,0.389,4.821,4.247
1809.0,10.909,18.046,-13.828,0.389,4.821,4.68
1813.0,10.909,18.046,-13.828,0.398,5.015,4.68
1817.0,10.909,18.046,-13.828,0.398,5.015,4.68
1821.0,9.13,16.962,-11.844,0.424,5.015,4.983
1825.0,9.13,16.962,-11.844,0.424,5.015,4.983
1829.0,7.161,15.882,-9.768,0.424,5.015,5.013
1832.0,7.161,15.882,-9.768,0.447,5.015,5.013
1836.0,7.161,15.882,-9.768,0.447,5.015,5.013
1840.0,4.427,14.186,-6.825,0.414,5.015,5.013
1844.0,4.427,14.186,-6.825,0.414,5.015,5.013
1848.0,4.427,14.186,-3.803,0.414,5.015,5.013
1852.0,0.513,12.091,-3.803,0.272,5.015,5.013
1855.0,0.513,12.091,-3.803,0.272,5.015,5.013
1859.0,-4.49,10.071,-1.706,0.012,5.015,5.013
1863.0,-4.49,10.071,-1.706,0.012,5.015,5.013
1867.0,-4.49,10.071,-1.706,0.012,5.015,5.013
1871.0,-10.543,8.506,-0.587,-0.383,5.015,5.013
1875.0,-10.543,8.506,-0.587,-0.383,5.015,5.013
1879.0,-17.994,7.671,-0.319,-0.948,5.015,5.013
1883.0,-17.994,7.671,-0.319,-0.948,5.015,5.013
1887.0,-17.994,7.671,-0.319,-0.948,5.015,5.013
1891.0,-19.6,6.644,0.327,-1.63,5.015,5.013
1895.0,-19.6,6.644,0.327,-1.63,5.015,5.013
1899.0,-19.6,3.045,4.255,-2.217,5.015,5.013
1903.0,-19.6,3.045,4.255,-2.217,5.015,5.013
1906.0,-19.6,3.045,4.255,-2.217,5.015,5.013
1910.0,-19.6,-2.079,6.89,-2.51,4.777,5.013
1914.0,-19.6,-2.079,6.89,-2.51,4.777,5.013
1918.0,-18.619,-6.653,1.405,-2.688,3.005,5.005
1922.0,-18.619,-6.653,1.405,-2.688,3.005,5.005
1926.0,-18.619,-6.653,1.405,-2.688,3.005,5.005
1930.0,-5.931,-8.052,-0.563,-3.251,1.64,4.115
1934.0,-5.931,-8.052,-0.563,-3.251,1.64,4.115
1938.0,2.228,-4.735,5.167,-4.209,0.992,1.706
1942.0,2.228,-4.735,5.167,-4.209,0.992,1.706
1946.0,2.228,-4.735,5.167,-4.209,0.992,1.706
1950.0,6.456,-2.105,9.185,-4.937,-0.011,-0.102
1954.0,6.456,-2.105,9.185,-4.937,-0.011,-0.102
1958.0,9.462,-4.694,7.796,-5.013,-0.972,-1.148
1962.0,9.462,-4.694,7.796,-5.013,-0.972,-1.148
1966.0,9.462,-4.694,7.796,-5.013,-0.972,-1.148
1970.0,9.071,-7.978,5.158,-5.013,-1.276,-1.909
1974.0,9.071,-7.978,5.158,-5.013,-1.276,-1.909
1978.0,6.67,-10.455,4.083,-4.974,-1.101,-2.368
1982.0,6.67,-10.455,4.083,-4.974,-1.101,-2.368
1986.0,6.67,-10.455,3.506,-4.974,-1.101,-2.368
1990.0,5.335,-11.553,3.506,-4.328,-0.848,-2.456
1994.0,5.335,-11.553,3.506,-4.328,-0.848,-2.456
1998.0,6.809,-11.137,3.465,-3.013,-0.586,-2.279
2002.0,6.809,-11.137,3.465,-3.013,-0.586,-2.279
2006.0,9.712,-8.932,4.406,-3.013,-0.586,-1.981
2010.0,9.712,-8.932,4.406,-1.513,-0.224,-1.981
2014.0,9.712,-8.932,4.406,-1.513,-0.224,-1.981
2018.0,11.866,-6.389,6.333,-0.046,0.142,-1.571
2022.0,11.866,-6.389,6.333,-0.046,0.142,-1.571
2026.0,13.076,-4.548,7.431,-0.046,0.328,-1.092
2030.0,13.076,-4.548,7.431,1.237,0.328,-1.092
2034.0,13.076,-4.548,7.431,1.237,0.328,-1.092
2038.0,13.238,-2.971,7.193,2.237,0.426,-0.694
2042.0,13.238,-2.971,7.193,2.237,0.426,-0.694
2046.0,12.332,-1.565,6.723,2.237,0.532,-0.425
2050.0,12.332,-1.565,6.723,2.94,0.532,-0.425
2054.0,12.332,-1.565,6.723,2.94,0.532,-0.425
2058.0,11.286,-0.31,6.391,3.388,0.594,-0.26
2062.0,11.286,-0.31,6.391,3.388,0.594,-0.26
2065.0,10.033,1.038,6.2,3.388,0.594,-0.182
2069.0,10.033,1.038,6.2,3.618,0.605,-0.182
2073.0,10.033,1.038,6.2,3.618,0.605,-0.182
2077.0,8.633,2.209,6.07,3.634,0.558,-0.132
2081.0,8.633,2.209,6.07,3.634,0.558,-0.132
2084.0,8.633,2.209,6.07,3.634,0.558,-0.132
2088.0,7.838,2.569,6.022,3.452,0.445,-0.086
2092.0,7.838,2.569,6.022,3.452,0.445,-0.086
2096.0,7.7,2.763,5.839,3.132,0.321,-0.078
2099.0,7.7,2.763,5.839,3.132,0.321,-0.078
2103.0,7.7,2.763,5.839,3.132,0.321,-0.078
2107.0,8.109,3.539,5.112,2.721,0.244,-0.1
2110.0,8.109,3.539,5.112,2.721,0.244,-0.1
2114.0,8.109,3.539,4.415,2.721,0.244,-0.1
2118.0,8.629,4.073,4.415,2.242,0.228,-0.069
2122.0,8.629,4.073,4.415,2.242,0.228,-0.069
2125.0,9.032,4.0,4.014,1.731,0.24,0.002
2129.0,9.032,4.0,4.014,1.731,0.24,0.002
2133.0,9.032,4.0,4.014,1.731,0.24,0.002
2136.0,9.005,3.516,3.792,1.223,0.256,0.047
2140.0,9.005,3.516,3.792,1.223,0.256,0.047
2144.0,9.005,3.516,3.792,1.223,0.256,0.047
2147.0,8.265,2.894,3.928,0.741,0.265,0.034
2151.0,8.265,2.894,3.928,0.741,0.265,0.034
2155.0,7.196,2.378,4.052,0.741,0.241,-0.018
2158.0,7.196,2.378,4.052,0.31,0.241,-0.018
2162.0,7.196,2.378,4.052,0.31,0.241,-0.018
2166.0,6.413,1.999,3.974,-0.043,0.183,-0.094
2170.0,6.413,1.999,3.974,-0.043,0.183,-0.094
2173.0,6.413,1.999,3.804,-0.043,0.183,-0.094
2177.0,6.081,1.732,3.804,-0.311,0.107,-0.202
2181.0,6.081,1.732,3.804,-0.311,0.107,-0.202
2185.0,6.01,1.54,3.514,-0.515,0.023,-0.339
2189.0,6.01,1.54,3.514,-0.515,0.023,-0.339
2193.0,6.01,1.54,3.514,-0.515,0.023,-0.339
2196.0,6.017,1.306,3.069,-0.681,-0.059,-0.496
2200.0,6.017,1.306,3.069,-0.681,-0.059,-0.496
2204.0,5.992,1.042,2.641,-0.816,-0.124,-0.682
2208.0,5.992,1.042,2.641,-0.816,-0.124,-0.682
2212.0,5.992,1.042,2.641,-0.816,-0.124,-0.682
2216.0,6.045,0.778,2.416,-0.909,-0.171,-0.898
2220.0,6.045,0.778,2.416,-0.909,-0.171,-0.898
2224.0,6.134,0.582,2.27,-0.909,-0.207,-1.135
2228.0,6.134,0.582,2.27,-0.953,-0.207,-1.135
2231.0,6.134,0.582,2.27,-0.953,-0.207,-1.135
2235.0,6.187,0.368,2.208,-0.942,-0.23,-1.358
2239.0,6.187,0.368,2.208,-0.942,-0.23,-1.358
2243.0,6.283,0.24,2.21,-0.942,-0.23,-1.544
2247.0,6.283,0.24,2.21,-0.867,-0.234,-1.544
2251.0,6.283,0.24,2.21,-0.867,-0.234,-1.544
2255.0,6.301,-0.038,2.28,-0.714,-0.217,-1.675
2259.0,6.301,-0.038,2.28,-0.714,-0.217,-1.675
2263.0,6.253,-0.214,2.182,-0.714,-0.217,-1.76
2267.0,6.253,-0.214,2.182,-0.504,-0.19,-1.76
2271.0,6.253,-0.214,2.182,-0.504,-0.19,-1.76
2275.0,5.983,-0.447,1.929,-0.267,-0.157,-1.811
2279.0,5.983,-0.447,1.929,-0.267,-0.157,-1.811
2283.0,5.502,-0.59,1.545,-0.267,-0.132,-1.868
2287.0,5.502,-0.59,1.545,-0.037,-0.132,-1.868
2291.0,5.502,-0.59,1.545,-0.037,-0.132,-1.868
2295.0,5.066,-0.151,0.867,0.164,-0.103,-1.961
2299.0,5.066,-0.151,0.867,0.164,-0.103,-1.961
2303.0,4.798,0.6,0.209,0.33,-0.028,-2.036
2306.0,4.798,0.6,0.209,0.33,-0.028,-2.036
2310.0,4.798,0.6,0.209,0.33,-0.028,-2.036
2314.0,5.018,1.057,-0.352,0.455,0.073,-2.046
2318.0,5.018,1.057,-0.352,0.455,0.073,-2.046
2322.0,5.018,1.274,-0.689,0.455,0.073,-2.046
2326.0,5.468,1.274,-0.689,0.543,0.197,-2.055
2329.0,5.468,1.274,-0.689,0.543,0.197,-2.055
2333.0,5.569,1.279,-0.671,0.589,0.348,-2.118
2337.0,5.569,1.279,-0.671,0.589,0.348,-2.118
2341.0,5.569,1.279,-0.671,0.589,0.348,-2.118
2345.0,5.172,1.315,-0.552,0.593,0.495,-2.231
2348.0,5.172,1.315,-0.552,0.593,0.495,-2.231
2352.0,4.317,1.346,-0.507,0.545,0.64,-2.359
2356.0,4.317,1.346,-0.507,0.545,0.64,-2.359
2360.0,4.317,1.346,-0.507,0.545,0.64,-2.359
2364.0,3.322,1.242,-0.556,0.452,0.797,-2.472
2368.0,3.322,1.242,-0.556,0.452,0.797,-2.472
2371.0,2.428,0.991,-0.666,0.452,0.797,-2.576
2375.0,2.428,0.991,-0.666,0.329,0.961,-2.576
2379.0,2.428,0.991,-0.666,0.329,0.961,-2.576
2383.0,1.908,0.633,-0.801,0.194,1.136,-2.696
2387.0,1.908,0.633,-0.801,0.194,1.136,-2.696
2391.0,1.908,0.633,-0.583,0.194,1.136,-2.696
2394.0,1.694,0.212,-0.583,0.068,1.353,-2.87
2398.0,1.694,0.212,-0.583,0.068,1.353,-2.87
2402.0,1.558,-0.16,-0.171,-0.021,1.596,-3.085
2406.0,1.558,-0.16,-0.171,-0.021,1.596,-3.085
2410.0,1.558,-0.16,-0.171,-0.021,1.596,-3.085
2414.0,1.426,-0.669,0.294,-0.063,1.836,-3.303
2418.0,1.426,-0.669,0.294,-0.063,1.836,-3.303
2422.0,1.035,-1.229,0.829,-0.065,2.067,-3.512
2426.0,1.035,-1.229,0.829,-0.065,2.067,-3.512
2430.0,1.035,-1.229,0.829,-0.065,2.067,-3.512
2433.0,0.352,-1.686,1.22,-0.043,2.284,-3.715
2437.0,0.352,-1.686,1.22,-0.043,2.284,-3.715
2441.0,-0.624,-1.935,1.257,-0.02,2.491,-3.891
2445.0,-0.624,-1.935,1.257,-0.02,2.491,-3.891
2449.0,-0.624,-1.935,1.257,-0.02,2.491,-3.891
2453.0,-1.533,-1.985,1.111,-0.016,2.69,-4.034
2457.0,-1.533,-1.985,1.111,-0.016,2.69,-4.034
2461.0,-2.156,-1.802,1.049,-0.022,2.906,-4.172
2465.0,-2.156,-1.802,1.049,-0.022,2.906,-4.172
2469.0,-2.156,-1.802,1.049,-0.022,2.906,-4.172
2473.0,-2.146,-1.554,1.129,-0.033,3.131,-4.319
2477.0,-2.146,-1.554,1.129,-0.033,3.131,-4.319
2481.0,-1.613,-1.324,1.365,-0.047,3.356,-4.488
2485.0,-1.613,-1.324,1.365,-0.047,3.356,-4.488
2489.0,-1.613,-1.324,1.669,-0.047,3.356,-4.488
2493.0,-1.205,-1.004,1.669,-0.078,3.585,-4.681
2497.0,-1.205,-1.004,1.669,-0.078,3.585,-4.681
2501.0,-1.312,-0.567,1.828,-0.151,3.818,-4.846
2505.0,-1.312,-0.567,1.828,-0.151,3.818,-4.846
2509.0,-1.312,-0.112,2.032,-0.151,3.818,-4.846
2513.0,-1.773,-0.112,2.032,-0.276,4.062,-4.943
2517.0,-1.773,-0.112,2.032,-0.276,4.062,-4.943
2521.0,-2.441,0.203,2.338,-0.443,4.302,-4.968
2525.0,-2.441,0.203,2.338,-0.443,4.302,-4.968
2529.0,-2.441,0.29,2.752,-0.443,4.302,-4.968
2533.0,-2.99,0.29,2.752,-0.646,4.524,-4.948
2537.0,-2.99,0.29,2.752,-0.646,4.524,-4.948
2541.0,-3.568,0.16,3.156,-0.871,4.751,-4.939
2545.0,-3.568,0.16,3.156,-0.871,4.751,-4.939
2548.0,-3.568,0.16,3.248,-0.871,4.751,-4.939
2552.0,-4.266,0.069,3.248,-1.119,4.96,-4.965
2556.0,-4.266,0.069,3.248,-1.119,4.96,-4.965
2560.0,-5.04,0.085,3.163,-1.397,5.015,-4.991
2564.0,-5.04,0.085,3.163,-1.397,5.015,-4.991
2568.0,-5.04,0.085,3.163,-1.397,5.015,-4.991
2572.0,-5.93,0.238,3.189,-1.714,5.015,-4.995
2576.0,-5.93,0.238,3.189,-1.714,5.015,-4.995
2580.0,-6.788,0.396,3.238,-2.061,5.015,-4.995
2584.0,-6.788,0.396,3.238,-2.061,5.015,-4.995
2588.0,-6.788,0.396,3.238,-2.061,5.015,-4.995
2591.0,-7.448,0.714,3.445,-2.413,5.015,-4.995
2595.0,-7.448,0.714,3.445,-2.413,5.015,-4.995
2599.0,-8.462,0.899,4.17,-2.721,5.015,-4.955
2603.0,-8.462,0.899,4.17,-2.721,5.015,-4.955
2607.0,-8.462,0.899,4.17,-2.721,5.015,-4.955
2611.0,-10.393,0.532,4.482,-2.951,5.015,-4.735
2615.0,-10.393,0.532,4.482,-2.951,5.015,-4.735
2619.0,-12.919,0.019,4.134,-3.092,5.015,-4.424
2623.0,-12.919,0.019,4.134,-3.092,5.015,-4.424
2627.0,-12.919,0.019,4.134,-3.092,5.015,-4.424
2631.0,-16.43,-0.559,4.026,-3.131,5.015,-4.074
2635.0,-16.43,-0.559,4.026,-3.131,5.015,-4.074
2639.0,-19.384,-1.056,4.497,-3.053,5.015,-3.696
2643.0,-19.384,-1.056,4.497,-3.053,5.015,-3.696
2647.0,-19.384,-1.056,5.04,-3.053,5.015,-3.696
2651.0,-19.6,-1.069,5.04,-2.897,5.015,-3.266
2655.0,-19.6,-1.069,5.04,-2.897,5.015,-3.266
2660.0,-19.6,-0.77,5.15,-2.732,5.015,-2.716
2664.0,-19.6,-0.77,5.15,-2.732,5.015,-2.716
2668.0,-19.6,-0.571,5.031,-2.732,5.015,-2.036
2672.0,-19.6,-0.571,5.031,-2.62,5.015,-2.036
2676.0,-19.6,-0.571,5.031,-2.62,5.015,-2.036
2680.0,-19.6,-0.526,4.621,-2.575,5.015,-1.304
2684.0,-19.6,-0.526,4.621,-2.575,5.015,-1.304
2688.0,-19.6,-0.683,4.305,-2.574,5.015,-0.589
2692.0,-19.6,-0.683,4.305,-2.574,5.015,-0.589
2696.0,-19.6,-0.683,4.305,-2.574,5.015,-0.589
2700.0,-19.6,-0.818,4.371,-2.565,5.015,0.067
2704.0,-19.6,-0.818,4.371,-2.565,5.015,0.067
2708.0,-19.6,-0.666,4.214,-2.499,4.977,0.602
2712.0,-19.6,-0.666,4.214,-2.499,4.977,0.602
2716.0,-19.6,-0.666,4.027,-2.499,4.977,0.602
2720.0,-19.6,-0.071,4.027,-2.393,4.835,0.957
2724.0,-19.6,-0.071,4.027,-2.393,4.835,0.957
2728.0,-19.6,0.732,3.497,-2.327,4.621,1.12
2732.0,-19.6,0.732,3.497,-2.327,4.621,1.12
2736.0,-19.6,0.732,2.637,-2.327,4.621,1.12
2740.0,-19.6,1.679,2.637,-2.382,4.403,1.115
2744.0,-19.6,1.679,2.637,-2.382,4.403,1.115
2748.0,-19.6,2.642,1.789,-2.641,4.241,0.989
2752.0,-19.6,2.642,1.789,-2.641,4.241,0.989
2756.0,-19.6,2.642,1.789,-2.641,4.241,0.989
2760.0,-19.6,3.453,1.62,-3.156,4.143,0.747
2763.0,-19.6,3.453,1.62,-3.156,4.143,0.747
2767.0,-19.6,3.693,1.897,-3.909,4.07,0.336
2771.0,-19.6,3.693,1.897,-3.909,4.07,0.336
2775.0,-19.6,3.693,1.897,-3.909,4.07,0.336
2779.0,-19.6,3.185,3.044,-4.717,3.957,-0.245
2783.0,-19.6,3.185,3.044,-4.717,3.957,-0.245
2787.0,-19.6,3.371,3.839,-5.009,3.803,-0.899
2791.0,-19.6,3.371,3.839,-5.009,3.803,-0.899
2795.0,-19.6,3.371,3.839,-5.009,3.803,-0.899
2799.0,-19.6,3.859,4.622,-5.013,3.548,-1.579
2803.0,-19.6,3.859,4.622,-5.013,3.548,-1.579
2807.0,-18.33,4.165,5.607,-5.013,3.19,-2.196
2811.0,-18.33,4.165,5.607,-5.013,3.19,-2.196
2815.0,-18.33,4.165,6.226,-5.013,3.19,-2.196
2819.0,-16.943,4.554,6.226,-5.013,2.818,-2.649
2823.0,-16.943,4.554,6.226,-5.013,2.818,-2.649
2827.0,-16.572,4.675,6.162,-5.013,2.48,-2.887
2831.0,-16.572,4.675,6.162,-5.013,2.48,-2.887
2835.0,-16.572,4.119,5.514,-5.013,2.48,-2.887
2839.0,-16.133,4.119,5.514,-5.013,2.225,-2.927
2843.0,-16.133,4.119,5.514,-5.013,2.225,-2.927
2847.0,-15.367,3.047,4.937,-5.013,2.072,-2.859
2851.0,-15.367,3.047,4.937,-5.013,2.072,-2.859
2855.0,-14.35,1.836,4.666,-5.013,2.072,-2.859
2859.0,-14.35,1.836,4.666,-5.013,2.0,-2.722
2863.0,-14.35,1.836,4.666,-5.013,2.0,-2.722
2867.0,-13.15,0.541,4.726,-5.013,1.977,-2.519
2871.0,-13.15,0.541,4.726,-5.013,1.977,-2.519
2875.0,-11.953,-0.851,5.024,-5.013,1.977,-2.246
2879.0,-11.953,-0.851,5.024,-5.013,2.007,-2.246
2883.0,-11.953,-0.851,5.024,-5.013,2.007,-2.246
2887.0,-11.149,-2.218,5.559,-5.013,2.074,-1.919
2891.0,-11.149,-2.218,5.559,-5.013,2.074,-1.919
2895.0,-10.979,-3.534,6.01,-5.013,2.111,-1.529
2899.0,-10.979,-3.534,6.01,-5.013,2.111,-1.529
2903.0,-10.979,-3.534,6.01,-5.013,2.111,-1.529
2908.0,-10.886,-4.697,6.358,-4.795,2.09,-1.105
2912.0,-10.886,-4.697,6.358,-4.795,2.09,-1.105
2916.0,-10.677,-5.69,6.516,-3.935,2.006,-0.726
2920.0,-10.677,-5.69,6.516,-3.935,2.006,-0.726
2924.0,-10.445,-6.514,6.517,-3.935,2.006,-0.726
2928.0,-10.445,-6.514,6.517,-2.966,1.851,-0.45
2932.0,-10.445,-6.514,6.517,-2.966,1.851,-0.45
2936.0,-10.071,-6.981,6.599,-2.034,1.643,-0.291
2940.0,-10.071,-6.981,6.599,-2.034,1.643,-0.291
2944.0,-10.126,-7.537,6.433,-1.181,1.405,-0.232
2948.0,-10.126,-7.537,6.433,-1.181,1.405,-0.232
2952.0,-10.126,-7.537,6.433,-1.181,1.405,-0.232
2956.0,-9.869,-7.225,6.403,-0.373,1.121,-0.232
2960.0,-9.869,-7.225,6.403,-0.373,1.121,-0.232
2964.0,-9.408,-6.419,6.176,0.351,0.845,-0.239
2968.0,-9.408,-6.419,6.176,0.351,0.845,-0.239
2972.0,-9.408,-6.419,6.176,0.351,0.845,-0.239
2976.0,-9.035,-5.416,5.941,0.959,0.608,-0.239
2980.0,-9.035,-5.416,5.941,0.959,0.608,-0.239
2984.0,-8.97,-4.559,5.693,1.45,0.411,-0.226
2988.0,-8.97,-4.559,5.693,1.45,0.411,-0.226
2992.0,-8.97,-4.559,5.693,1.45,0.411,-0.226
2996.0,-9.017,-3.841,5.431,1.845,0.239,-0.197
3000.0,-9.017,-3.841,5.431,1.845,0.239,-0.197
