deltaTime,Acc_X,Acc_Y,Acc_Z,Gyro_X,Gyro_Y,Gyro_Z
0.0,-8.664,-3.287,3.992,0.072,-0.133,-0.03
3.0,-8.615,-3.287,3.992,0.045,-0.126,-0.016
6.0,-8.615,-3.287,3.992,0.045,-0.126,-0.016
9.0,-8.615,-3.287,3.992,0.045,-0.126,-0.016
12.0,-8.831,-3.544,4.135,0.035,-0.13,-0.003
15.0,-8.831,-3.544,4.135,0.035,-0.13,-0.003
18.0,-8.831,-3.544,4.135,0.035,-0.13,-0.003
21.0,-8.839,-3.642,4.139,0.064,-0.153,-0.002
24.0,-8.839,-3.642,4.139,0.064,-0.153,-0.002
27.0,-8.839,-3.642,4.139,0.064,-0.153,-0.002
30.0,-8.771,-3.739,3.994,0.064,-0.153,-0.015
33.0,-8.771,-3.739,3.994,0.1,-0.175,-0.015
37.0,-8.771,-3.739,3.994,0.1,-0.175,-0.015
41.0,-8.716,-3.869,3.919,0.129,-0.178,-0.038
44.0,-8.716,-3.869,3.919,0.129,-0.178,-0.038
48.0,-8.716,-3.869,3.919,0.129,-0.178,-0.038
52.0,-8.651,-4.118,3.924,0.161,-0.17,-0.072
56.0,-8.651,-4.118,3.924,0.161,-0.17,-0.072
60.0,-8.675,-4.348,4.087,0.202,-0.163,-0.118
63.0,-8.675,-4.348,4.087,0.202,-0.163,-0.118
67.0,-8.675,-4.348,4.087,0.202,-0.163,-0.118
71.0,-8.805,-4.372,4.083,0.278,-0.171,-0.17
75.0,-8.805,-4.372,4.083,0.278,-0.171,-0.17
79.0,-9.014,-4.269,3.969,0.278,-0.171,-0.17
83.0,-9.014,-4.269,3.969,0.349,-0.193,-0.205
86.0,-9.014,-4.269,3.969,0.349,-0.193,-0.205
90.0,-9.106,-4.235,3.887,0.38,-0.215,-0.225
94.0,-9.106,-4.235,3.887,0.38,-0.215,-0.225
98.0,-9.106,-4.235,3.887,0.38,-0.215,-0.225
102.0,-9.019,-4.225,4.012,0.401,-0.237,-0.242
106.0,-9.019,-4.225,4.012,0.401,-0.237,-0.242
110.0,-8.855,-4.104,4.215,0.417,-0.268,-0.266
113.0,-8.855,-4.104,4.215,0.417,-0.268,-0.266
117.0,-8.855,-4.104,4.215,0.417,-0.268,-0.266
121.0,-8.81,-3.945,4.259,0.422,-0.307,-0.296
125.0,-8.81,-3.945,4.259,0.422,-0.307,-0.296
129.0,-8.782,-3.73,4.122,0.415,-0.344,-0.333
133.0,-8.782,-3.73,4.122,0.415,-0.344,-0.333
137.0,-8.782,-3.73,4.122,0.415,-0.344,-0.333
141.0,-8.741,-3.645,4.117,0.386,-0.366,-0.365
145.0,-8.741,-3.645,4.117,0.386,-0.366,-0.365
149.0,-8.695,-3.626,4.257,0.354,-0.38,-0.389
152.0,-8.695,-3.626,4.257,0.354,-0.38,-0.389
156.0,-8.695,-3.626,4.257,0.354,-0.38,-0.389
160.0,-8.668,-3.741,4.483,0.33,-0.395,-0.415
164.0,-8.668,-3.741,4.483,0.33,-0.395,-0.415
168.0,-8.594,-3.972,4.793,0.33,-0.409,-0.445
172.0,-8.594,-3.972,4.793,0.331,-0.409,-0.445
176.0,-8.594,-3.972,4.793,0.331,-0.409,-0.445
180.0,-8.548,-4.466,5.178,0.376,-0.41,-0.477
184.0,-8.548,-4.466,5.178,0.376,-0.41,-0.477
188.0,-8.623,-4.802,5.813,0.376,-0.41,-0.512
192.0,-8.623,-4.802,5.813,0.496,-0.41,-0.512
195.0,-8.623,-4.802,5.813,0.496,-0.41,-0.512
199.0,-8.945,-4.917,6.667,0.691,-0.437,-0.554
203.0,-8.945,-4.917,6.667,0.691,-0.437,-0.554
207.0,-8.88,-4.89,7.262,0.691,-0.437,-0.554
211.0,-8.88,-4.89,7.262,0.93,-0.489,-0.585
215.0,-8.88,-4.89,7.262,0.93,-0.489,-0.585
219.0,-10.036,-4.909,7.817,1.156,-0.462,-0.585
223.0,-10.036,-4.909,7.817,1.156,-0.462,-0.585
227.0,-10.215,-4.194,7.947,1.156,-0.462,-0.585
231.0,-10.215,-4.194,7.947,1.446,-0.709,-0.573
235.0,-10.215,-4.194,7.947,1.446,-0.709,-0.573
239.0,-10.041,-3.628,7.814,1.592,-0.952,-0.538
243.0,-10.041,-3.628,7.814,1.592,-0.952,-0.538
247.0,-10.01,-3.602,7.707,1.592,-0.952,-0.504
251.0,-10.01,-3.602,7.707,1.615,-1.13,-0.504
255.0,-10.01,-3.602,7.707,1.615,-1.13,-0.504
259.0,-9.923,-3.506,7.629,1.582,-1.28,-0.503
263.0,-9.923,-3.506,7.629,1.582,-1.28,-0.503
267.0,-9.682,-3.136,7.558,1.582,-1.28,-0.559
271.0,-9.682,-3.136,7.558,1.473,-1.42,-0.559
274.0,-9.682,-3.136,7.558,1.473,-1.42,-0.559
278.0,-9.363,-2.863,7.608,1.278,-1.555,-0.65
282.0,-9.363,-2.863,7.608,1.278,-1.555,-0.65
286.0,-9.109,-2.81,7.859,1.278,-1.555,-0.65
290.0,-9.109,-2.81,7.859,1.021,-1.678,-0.738
294.0,-9.109,-2.81,7.859,1.021,-1.678,-0.738
298.0,-9.144,-3.105,8.104,0.736,-1.794,-0.831
302.0,-9.144,-3.105,8.104,0.736,-1.794,-0.831
306.0,-9.144,-3.635,8.355,0.736,-1.794,-0.831
310.0,-9.398,-3.635,8.355,0.465,-1.913,-0.96
313.0,-9.398,-3.635,8.355,0.465,-1.913,-0.96
317.0,-9.79,-4.207,8.544,0.24,-2.041,-1.135
321.0,-9.79,-4.207,8.544,0.24,-2.041,-1.135
325.0,-9.79,-4.207,8.803,0.24,-2.041,-1.135
329.0,-10.128,-4.644,8.803,0.072,-2.184,-1.323
333.0,-10.128,-4.644,8.803,0.072,-2.184,-1.323
337.0,-10.169,-4.948,9.063,-0.047,-2.35,-1.483
341.0,-10.169,-4.948,9.063,-0.047,-2.35,-1.483
345.0,-10.169,-5.343,9.203,-0.047,-2.35,-1.483
349.0,-9.918,-5.343,9.203,-0.141,-2.513,-1.609
353.0,-9.918,-5.343,9.203,-0.141,-2.513,-1.609
357.0,-9.57,-5.888,9.357,-0.227,-2.666,-1.722
361.0,-9.57,-5.888,9.357,-0.227,-2.666,-1.722
365.0,-9.194,-6.568,9.377,-0.227,-2.666,-1.842
369.0,-9.194,-6.568,9.377,-0.307,-2.818,-1.842
373.0,-9.194,-6.568,9.377,-0.307,-2.818,-1.842
377.0,-8.798,-7.114,9.256,-0.382,-2.958,-1.987
381.0,-8.798,-7.114,9.256,-0.382,-2.958,-1.987
385.0,-8.307,-7.593,9.036,-0.382,-3.067,-2.148
389.0,-8.307,-7.593,9.036,-0.438,-3.067,-2.148
393.0,-8.307,-7.593,9.036,-0.438,-3.067,-2.148
397.0,-7.825,-8.124,8.933,-0.473,-3.139,-2.318
401.0,-7.825,-8.124,8.933,-0.473,-3.139,-2.318
405.0,-7.363,-8.468,8.74,-0.492,-3.19,-2.496
409.0,-7.363,-8.468,8.74,-0.492,-3.19,-2.496
413.0,-7.363,-8.468,8.74,-0.492,-3.19,-2.496
417.0,-6.868,-8.867,8.461,-0.506,-3.219,-2.675
421.0,-6.868,-8.867,8.461,-0.506,-3.219,-2.675
425.0,-6.475,-9.516,8.472,-0.492,-3.218,-2.859
429.0,-6.475,-9.516,8.472,-0.492,-3.218,-2.859
433.0,-6.475,-9.516,8.472,-0.492,-3.218,-2.859
437.0,-6.281,-10.294,8.848,-0.419,-3.214,-3.056
441.0,-6.281,-10.294,8.848,-0.419,-3.214,-3.056
445.0,-6.143,-11.14,9.16,-0.279,-3.241,-3.276
449.0,-6.143,-11.14,9.16,-0.279,-3.241,-3.276
454.0,-6.143,-11.14,9.159,-0.279,-3.241,-3.276
458.0,-5.984,-11.762,9.159,-0.082,-3.286,-3.519
462.0,-5.984,-11.762,9.159,-0.082,-3.286,-3.519
466.0,-5.809,-11.993,8.762,0.159,-3.32,-3.764
470.0,-5.809,-11.993,8.762,0.159,-3.32,-3.764
474.0,-5.557,-11.998,8.304,0.159,-3.32,-3.764
478.0,-5.557,-11.998,8.304,0.429,-3.332,-3.982
482.0,-5.557,-11.998,8.304,0.429,-3.332,-3.982
486.0,-5.141,-11.821,7.895,0.708,-3.33,-4.173
490.0,-5.141,-11.821,7.895,0.708,-3.33,-4.173
494.0,-4.743,-11.527,7.545,0.708,-3.33,-4.35
498.0,-4.743,-11.527,7.545,0.971,-3.307,-4.35
502.0,-4.743,-11.527,7.545,0.971,-3.307,-4.35
506.0,-4.33,-11.192,7.175,1.207,-3.262,-4.516
510.0,-4.33,-11.192,7.175,1.207,-3.262,-4.516
514.0,-4.013,-10.819,6.741,1.207,-3.203,-4.675
518.0,-4.013,-10.819,6.741,1.418,-3.203,-4.675
522.0,-4.013,-10.819,6.741,1.418,-3.203,-4.675
526.0,-3.508,-10.291,6.265,1.619,-3.147,-4.828
530.0,-3.508,-10.291,6.265,1.619,-3.147,-4.828
534.0,-2.793,-9.799,5.917,1.814,-3.065,-4.954
538.0,-2.793,-9.799,5.917,1.814,-3.065,-4.954
541.0,-2.793,-9.799,5.917,1.814,-3.065,-4.954
545.0,-2.241,-9.584,5.841,2.016,-2.937,-4.995
549.0,-2.241,-9.584,5.841,2.016,-2.937,-4.995
553.0,-2.043,-9.546,5.888,2.016,-2.812,-4.995
557.0,-2.043,-9.546,5.888,2.249,-2.812,-4.995
561.0,-2.043,-9.546,5.888,2.249,-2.812,-4.995
565.0,-2.155,-9.161,5.751,2.511,-2.711,-4.995
569.0,-2.155,-9.161,5.751,2.511,-2.711,-4.995
573.0,-2.342,-8.406,5.416,2.511,-2.711,-4.995
577.0,-2.342,-8.406,5.416,2.78,-2.625,-4.995
581.0,-2.342,-8.406,5.416,2.78,-2.625,-4.995
584.0,-2.37,-7.272,4.987,3.032,-2.555,-4.995
588.0,-2.37,-7.272,4.987,3.032,-2.555,-4.995
592.0,-2.11,-6.068,4.653,3.032,-2.555,-4.995
596.0,-2.11,-6.068,4.653,3.245,-2.493,-4.995
600.0,-2.11,-6.068,4.653,3.245,-2.493,-4.995
604.0,-1.649,-4.831,4.359,3.39,-2.437,-4.995
608.0,-1.649,-4.831,4.359,3.39,-2.437,-4.995
612.0,-1.649,-3.514,3.988,3.39,-2.437,-4.995
616.0,-1.152,-3.514,3.988,3.446,-2.383,-4.995
620.0,-1.152,-3.514,3.988,3.446,-2.383,-4.995
623.0,-0.812,-2.24,3.687,3.414,-2.326,-4.995
627.0,-0.812,-2.24,3.687,3.414,-2.326,-4.995
631.0,-0.812,-2.24,3.614,3.414,-2.326,-4.995
635.0,-0.613,-1.065,3.614,3.313,-2.27,-4.995
639.0,-0.613,-1.065,3.614,3.313,-2.27,-4.995
643.0,-0.543,-0.028,3.762,3.166,-2.225,-4.987
647.0,-0.543,-0.028,3.762,3.166,-2.225,-4.987
651.0,-0.543,-0.028,3.762,3.166,-2.225,-4.987
655.0,-0.582,0.787,4.078,2.998,-2.203,-4.902
659.0,-0.582,0.787,4.078,2.998,-2.203,-4.902
662.0,-0.559,1.53,4.29,2.827,-2.205,-4.741
666.0,-0.559,1.53,4.29,2.827,-2.205,-4.741
670.0,-0.559,1.53,4.29,2.827,-2.205,-4.741
674.0,-0.39,2.258,4.328,2.656,-2.222,-4.551
678.0,-0.39,2.258,4.328,2.656,-2.222,-4.551
681.0,-0.09,2.903,4.356,2.656,-2.235,-4.339
685.0,-0.09,2.903,4.356,2.483,-2.235,-4.339
689.0,-0.09,2.903,4.356,2.483,-2.235,-4.339
693.0,0.193,3.635,4.541,2.308,-2.237,-4.119
697.0,0.193,3.635,4.541,2.308,-2.237,-4.119
700.0,0.193,3.635,4.811,2.308,-2.237,-4.119
704.0,0.453,4.467,4.811,2.126,-2.246,-3.879
708.0,0.453,4.467,4.811,2.126,-2.246,-3.879
712.0,0.622,5.28,4.985,1.927,-2.252,-3.606
715.0,0.622,5.28,4.985,1.927,-2.252,-3.606
719.0,0.622,5.28,4.985,1.927,-2.252,-3.606
723.0,0.857,6.016,5.224,1.705,-2.256,-3.297
727.0,0.857,6.016,5.224,1.705,-2.256,-3.297
730.0,1.162,6.55,5.213,1.705,-2.256,-3.297
734.0,1.162,6.55,5.213,1.465,-2.258,-2.976
738.0,1.162,6.55,5.213,1.465,-2.258,-2.976
741.0,1.314,6.875,5.0,1.224,-2.246,-2.669
745.0,1.314,6.875,5.0,1.224,-2.246,-2.669
749.0,1.314,6.875,5.0,1.224,-2.246,-2.669
753.0,1.601,7.135,4.725,0.993,-2.217,-2.383
756.0,1.601,7.135,4.725,0.993,-2.217,-2.383
760.0,2.075,7.327,4.534,0.993,-2.217,-2.116
764.0,2.075,7.327,4.534,0.787,-2.161,-2.116
768.0,2.075,7.327,4.534,0.787,-2.161,-2.116
771.0,2.559,7.493,4.367,0.607,-2.075,-1.861
775.0,2.559,7.493,4.367,0.607,-2.075,-1.861
779.0,2.559,7.493,4.367,0.607,-2.075,-1.861
782.0,2.962,7.62,4.257,0.451,-1.959,-1.612
786.0,2.962,7.62,4.257,0.451,-1.959,-1.612
790.0,3.38,7.644,4.305,0.451,-1.816,-1.366
794.0,3.38,7.644,4.305,0.32,-1.816,-1.366
797.0,3.38,7.644,4.305,0.32,-1.816,-1.366
801.0,3.742,7.567,4.366,0.211,-1.66,-1.119
805.0,3.742,7.567,4.366,0.211,-1.66,-1.119
809.0,3.742,7.567,4.366,0.211,-1.66,-1.119
812.0,3.926,7.3,4.337,0.126,-1.491,-0.881
816.0,3.926,7.3,4.337,0.126,-1.491,-0.881
820.0,4.022,6.988,4.407,0.077,-1.31,-0.669
824.0,4.022,6.988,4.407,0.077,-1.31,-0.669
827.0,4.022,6.988,4.407,0.077,-1.31,-0.669
831.0,4.193,6.65,4.44,0.062,-1.133,-0.48
835.0,4.193,6.65,4.44,0.062,-1.133,-0.48
838.0,4.193,6.65,4.446,0.062,-1.133,-0.48
842.0,4.356,6.284,4.446,0.076,-0.954,-0.314
846.0,4.356,6.284,4.446,0.076,-0.954,-0.314
850.0,4.554,5.987,4.512,0.123,-0.767,-0.176
853.0,4.554,5.987,4.512,0.123,-0.767,-0.176
857.0,4.554,5.987,4.512,0.123,-0.767,-0.176
861.0,4.677,5.77,4.577,0.194,-0.586,-0.058
865.0,4.677,5.77,4.577,0.194,-0.586,-0.058
868.0,4.677,5.675,4.764,0.194,-0.586,-0.058
872.0,4.778,5.675,4.764,0.276,-0.417,0.052
876.0,4.778,5.675,4.764,0.276,-0.417,0.052
879.0,4.821,5.642,4.984,0.363,-0.267,0.157
883.0,4.821,5.642,4.984,0.363,-0.267,0.157
887.0,4.821,5.642,4.984,0.363,-0.267,0.157
890.0,4.801,5.598,5.183,0.453,-0.137,0.261
894.0,4.801,5.598,5.183,0.453,-0.137,0.261
898.0,4.801,5.598,5.183,0.453,-0.137,0.261
901.0,4.803,5.608,5.368,0.544,-0.027,0.355
905.0,4.803,5.608,5.368,0.544,-0.027,0.355
909.0,4.787,5.731,5.49,0.633,0.063,0.439
912.0,4.787,5.731,5.49,0.633,0.063,0.439
916.0,4.787,5.731,5.49,0.633,0.063,0.439
919.0,4.817,5.987,5.507,0.72,0.137,0.53
923.0,4.817,5.987,5.507,0.72,0.137,0.53
926.0,4.817,5.987,5.507,0.72,0.137,0.53
930.0,4.893,6.413,5.372,0.807,0.202,0.645
933.0,4.893,6.413,5.372,0.807,0.202,0.645
937.0,4.893,6.413,5.372,0.807,0.202,0.645
941.0,5.104,7.187,5.001,0.892,0.26,0.807
944.0,5.104,7.187,5.001,0.892,0.26,0.807
948.0,5.52,8.313,4.429,0.892,0.26,1.037
951.0,5.52,8.313,4.429,0.976,0.326,1.037
955.0,5.52,8.313,4.429,0.976,0.326,1.037
958.0,6.312,9.379,3.69,1.064,0.422,1.33
962.0,6.312,9.379,3.69,1.064,0.422,1.33
965.0,6.312,9.379,3.69,1.064,0.422,1.33
969.0,7.242,10.42,2.795,1.157,0.592,1.649
973.0,7.242,10.42,2.795,1.157,0.592,1.649
976.0,7.242,10.42,2.795,1.157,0.592,1.649
980.0,8.284,11.487,2.027,1.281,0.779,1.984
984.0,8.284,11.487,2.027,1.281,0.779,1.984
987.0,8.975,12.403,1.921,1.281,0.779,2.352
991.0,8.975,12.403,1.921,1.414,0.997,2.352
995.0,8.975,12.403,1.921,1.414,0.997,2.352
998.0,9.673,13.513,1.241,1.546,1.249,2.771
1002.0,9.673,13.513,1.241,1.546,1.249,2.771
1006.0,9.673,13.513,1.241,1.546,1.249,2.771
1009.0,10.03,14.163,1.794,1.596,1.499,3.241
1013.0,10.03,14.163,1.794,1.596,1.499,3.241
1017.0,10.264,14.684,2.106,1.596,1.759,3.747
1021.0,10.264,14.684,2.106,1.618,1.759,3.747
1025.0,10.264,14.684,2.106,1.618,1.759,3.747
1028.0,10.722,14.919,1.755,1.552,2.004,4.286
1032.0,10.722,14.919,1.755,1.552,2.004,4.286
1036.0,10.722,14.919,1.853,1.552,2.004,4.286
1040.0,11.278,14.666,1.853,1.38,2.277,4.811
1044.0,11.278,14.666,1.853,1.38,2.277,4.811
1048.0,12.105,14.773,0.199,1.145,2.596,5.01
1051.0,12.105,14.773,0.199,1.145,2.596,5.01
1055.0,12.105,14.773,0.199,1.145,2.596,5.01
1059.0,12.316,14.162,0.631,0.776,2.995,5.013
1063.0,12.316,14.162,0.631,0.776,2.995,5.013
1067.0,11.914,13.141,1.278,0.271,3.393,5.013
1070.0,11.914,13.141,1.278,0.271,3.393,5.013
1074.0,11.914,13.141,1.278,0.271,3.393,5.013
1078.0,10.493,11.413,2.188,-0.388,3.764,5.013
1082.0,10.493,11.413,2.188,-0.388,3.764,5.013
1086.0,8.308,9.066,2.982,-0.388,3.764,5.013
1090.0,8.308,9.066,2.982,-1.163,4.081,5.013
1093.0,8.308,9.066,2.982,-1.163,4.081,5.013
1097.0,5.812,6.831,3.193,-2.0,4.349,5.013
1101.0,5.812,6.831,3.193,-2.0,4.349,5.013
1105.0,5.812,6.831,3.193,-2.0,4.349,5.013
1108.0,3.061,5.06,2.821,-2.879,4.623,5.013
1112.0,3.061,5.06,2.821,-2.879,4.623,5.013
1116.0,0.145,3.654,2.244,-2.879,4.917,5.013
1119.0,0.145,3.654,2.244,-3.826,4.917,5.013
1123.0,0.145,3.654,2.244,-3.826,4.917,5.013
1127.0,-4.065,2.558,1.96,-4.737,5.015,5.013
1131.0,-4.065,2.558,1.96,-4.737,5.015,5.013
1135.0,-4.065,2.558,1.96,-4.737,5.015,5.013
1138.0,-11.283,0.523,1.832,-5.012,5.015,5.013
1142.0,-11.283,0.523,1.832,-5.012,5.015,5.013
1146.0,-19.005,-1.798,2.176,-5.013,5.015,5.013
1150.0,-19.005,-1.798,2.176,-5.013,5.015,5.013
1154.0,-19.005,-1.798,2.176,-5.013,5.015,5.013
1158.0,-19.6,-4.421,3.696,-5.013,4.71,5.013
1162.0,-19.6,-4.421,3.696,-5.013,4.71,5.013
1166.0,-19.6,-13.265,5.955,-5.013,3.136,5.013
1170.0,-19.6,-13.265,5.955,-5.013,3.136,5.013
1174.0,-19.6,-19.513,3.762,-5.013,3.136,5.013
1178.0,-19.6,-19.513,3.762,-5.013,1.034,5.013
1182.0,-19.6,-19.513,3.762,-5.013,1.034,5.013
1187.0,-10.317,-19.6,-1.89,-5.013,-0.516,4.636
1191.0,-10.317,-19.6,-1.89,-5.013,-0.516,4.636
1195.0,7.087,-19.49,-1.691,-4.956,-0.767,2.083
1199.0,7.087,-19.49,-1.691,-4.956,-0.767,2.083
1203.0,7.087,-19.49,-1.691,-4.956,-0.767,2.083
1207.0,9.698,-14.919,3.526,-4.471,-0.438,-0.518
1211.0,9.698,-14.919,3.526,-4.471,-0.438,-0.518
1215.0,5.95,-10.709,5.736,-3.812,-0.481,-1.648
1220.0,5.95,-10.709,5.736,-3.812,-0.481,-1.648
1224.0,5.95,-10.709,4.622,-3.812,-0.481,-1.648
1228.0,2.332,-10.709,4.622,-3.101,-0.568,-1.918
1232.0,2.332,-10.709,4.622,-3.101,-0.568,-1.918
1236.0,0.0,-11.914,4.329,-2.34,-0.357,-1.92
1240.0,0.0,-11.914,4.329,-2.34,-0.357,-1.92
1244.0,-0.495,-13.071,5.143,-2.34,-0.139,-1.821
1248.0,-0.495,-13.071,5.143,-1.518,-0.139,-1.821
1252.0,-0.495,-13.071,5.143,-1.518,-0.139,-1.821
1257.0,0.508,-13.312,5.555,-0.623,-0.038,-1.746
1261.0,0.508,-13.312,5.555,-0.623,-0.038,-1.746
1265.0,1.265,-12.275,4.918,0.281,0.038,-1.648
1269.0,1.265,-12.275,4.918,0.281,0.038,-1.648
1273.0,1.265,-12.275,4.918,0.281,0.038,-1.648
1276.0,2.005,-10.936,4.666,1.056,0.141,-1.381
1280.0,2.005,-10.936,4.666,1.056,0.141,-1.381
1284.0,2.53,-9.32,5.484,1.609,0.271,-0.961
1288.0,2.53,-9.32,5.484,1.609,0.271,-0.961
1292.0,2.53,-9.32,5.484,1.609,0.271,-0.961
1296.0,2.426,-7.799,6.631,1.933,0.364,-0.427
1300.0,2.426,-7.799,6.631,1.933,0.364,-0.427
1303.0,1.96,-6.729,7.566,1.933,0.361,0.163
1307.0,1.96,-6.729,7.566,2.047,0.361,0.163
1311.0,1.96,-6.729,7.566,2.047,0.361,0.163
1315.0,1.456,-5.993,8.042,1.98,0.278,0.707
1318.0,1.456,-5.993,8.042,1.98,0.278,0.707
1322.0,1.456,-5.993,8.042,1.98,0.278,0.707
1326.0,1.362,-5.501,7.961,1.773,0.156,1.144
1329.0,1.362,-5.501,7.961,1.773,0.156,1.144
1333.0,1.832,-5.182,7.513,1.464,0.055,1.449
1337.0,1.832,-5.182,7.513,1.464,0.055,1.449
1341.0,1.832,-5.182,7.513,1.464,0.055,1.449
1344.0,2.426,-4.889,7.055,1.076,0.002,1.6
1348.0,2.426,-4.889,7.055,1.076,0.002,1.6
1352.0,2.426,-4.889,6.794,1.076,0.002,1.6
1356.0,2.724,-4.718,6.794,0.627,-0.021,1.599
1359.0,2.724,-4.718,6.794,0.627,-0.021,1.599
1363.0,2.499,-4.664,6.7,0.145,-0.047,1.465
1367.0,2.499,-4.664,6.7,0.145,-0.047,1.465
1371.0,2.499,-4.664,6.7,0.145,-0.047,1.465
1375.0,1.951,-4.8,6.616,-0.346,-0.093,1.222
1379.0,1.951,-4.8,6.616,-0.346,-0.093,1.222
1382.0,1.43,-5.121,6.513,-0.82,-0.137,0.914
1386.0,1.43,-5.121,6.513,-0.82,-0.137,0.914
1390.0,1.43,-5.121,6.513,-0.82,-0.137,0.914
1394.0,1.24,-5.582,6.388,-1.235,-0.163,0.587
1398.0,1.24,-5.582,6.388,-1.235,-0.163,0.587
1402.0,1.34,-6.194,6.214,-1.235,-0.163,0.29
1406.0,1.34,-6.194,6.214,-1.534,-0.163,0.29
1410.0,1.34,-6.194,6.214,-1.534,-0.163,0.29
1414.0,1.475,-6.95,6.034,-1.681,-0.135,0.065
1418.0,1.475,-6.95,6.034,-1.681,-0.135,0.065
1422.0,1.442,-7.819,5.882,-1.681,-0.135,-0.073
1426.0,1.442,-7.819,5.882,-1.663,-0.088,-0.073
1430.0,1.442,-7.819,5.882,-1.663,-0.088,-0.073
1434.0,1.305,-8.756,5.776,-1.493,-0.043,-0.133
1438.0,1.305,-8.756,5.776,-1.493,-0.043,-0.133
1442.0,1.184,-9.639,5.69,-1.493,-0.007,-0.133
1446.0,1.184,-9.639,5.69,-1.191,-0.007,-0.133
1450.0,1.184,-9.639,5.69,-1.191,-0.007,-0.133
1453.0,1.195,-10.237,5.761,-0.785,0.02,-0.102
