deltaTime,Acc_X,Acc_Y,Acc_Z,Gyro_X,Gyro_Y,Gyro_Z
0.0,-8.624,-2.121,5.391,-0.139,-0.085,-0.115
3.0,-8.624,-2.121,5.391,-0.139,-0.085,-0.115
6.0,-8.624,-2.121,5.391,-0.139,-0.085,-0.115
9.0,-8.624,-2.121,5.841,-0.139,-0.085,-0.115
12.0,-8.626,-2.243,5.841,-0.117,-0.053,-0.103
15.0,-8.626,-2.243,5.841,-0.117,-0.053,-0.103
18.0,-8.626,-2.243,5.841,-0.117,-0.053,-0.103
21.0,-8.59,-2.365,6.158,-0.062,-0.049,-0.085
24.0,-8.59,-2.365,6.158,-0.062,-0.049,-0.085
27.0,-8.59,-2.365,6.158,-0.062,-0.049,-0.085
30.0,-8.584,-2.315,6.263,0.018,-0.045,-0.062
34.0,-8.584,-2.315,6.263,0.018,-0.045,-0.062
38.0,-8.584,-2.315,6.263,0.018,-0.045,-0.062
42.0,-8.73,-2.304,5.754,0.087,-0.042,-0.052
45.0,-8.73,-2.304,5.754,0.087,-0.042,-0.052
49.0,-8.752,-2.277,5.265,0.147,-0.063,-0.049
53.0,-8.752,-2.277,5.265,0.147,-0.063,-0.049
57.0,-8.752,-2.277,5.265,0.147,-0.063,-0.049
61.0,-8.712,-2.249,4.865,0.194,-0.081,-0.05
65.0,-8.712,-2.249,4.865,0.194,-0.081,-0.05
68.0,-8.693,-2.231,4.751,0.194,-0.081,-0.05
72.0,-8.693,-2.231,4.751,0.237,-0.091,-0.054
76.0,-8.693,-2.231,4.751,0.237,-0.091,-0.054
80.0,-8.732,-2.231,4.845,0.282,-0.105,-0.061
84.0,-8.732,-2.231,4.845,0.282,-0.105,-0.061
87.0,-8.732,-2.231,4.845,0.282,-0.105,-0.061
91.0,-8.814,-2.305,5.189,0.319,-0.125,-0.074
95.0,-8.814,-2.305,5.189,0.319,-0.125,-0.074
99.0,-8.9,-2.547,5.709,0.359,-0.151,-0.096
103.0,-8.9,-2.547,5.709,0.359,-0.151,-0.096
107.0,-8.9,-2.547,5.709,0.359,-0.151,-0.096
111.0,-8.997,-2.887,6.259,0.438,-0.188,-0.13
114.0,-8.997,-2.887,6.259,0.438,-0.188,-0.13
118.0,-9.121,-3.12,6.718,0.568,-0.242,-0.179
122.0,-9.121,-3.12,6.718,0.568,-0.242,-0.179
126.0,-9.121,-3.12,6.718,0.568,-0.242,-0.179
130.0,-9.369,-3.424,7.128,0.749,-0.307,-0.234
134.0,-9.369,-3.424,7.128,0.749,-0.307,-0.234
138.0,-9.428,-3.262,7.418,0.749,-0.386,-0.303
142.0,-9.428,-3.262,7.418,0.957,-0.386,-0.303
146.0,-9.428,-3.262,7.418,0.957,-0.386,-0.303
150.0,-9.575,-3.476,7.71,1.189,-0.466,-0.369
154.0,-9.575,-3.476,7.71,1.189,-0.466,-0.369
157.0,-9.607,-2.986,7.737,1.189,-0.466,-0.369
161.0,-9.607,-2.986,7.737,1.421,-0.509,-0.448
165.0,-9.607,-2.986,7.737,1.421,-0.509,-0.448
169.0,-10.853,-2.765,7.551,1.627,-0.609,-0.547
173.0,-10.853,-2.765,7.551,1.627,-0.609,-0.547
177.0,-11.153,-1.733,7.461,1.627,-0.609,-0.547
181.0,-11.153,-1.733,7.461,1.782,-0.887,-0.639
185.0,-11.153,-1.733,7.461,1.782,-0.887,-0.639
189.0,-11.512,-0.916,7.566,1.737,-1.118,-0.734
193.0,-11.512,-0.916,7.566,1.737,-1.118,-0.734
197.0,-11.484,-0.267,7.862,1.737,-1.118,-0.831
201.0,-11.484,-0.267,7.862,1.535,-1.372,-0.831
205.0,-11.484,-0.267,7.862,1.535,-1.372,-0.831
209.0,-11.082,0.106,8.475,1.208,-1.637,-0.937
213.0,-11.082,0.106,8.475,1.208,-1.637,-0.937
217.0,-10.437,-0.014,9.074,1.208,-1.907,-1.041
221.0,-10.437,-0.014,9.074,0.835,-1.907,-1.041
225.0,-10.437,-0.014,9.074,0.835,-1.907,-1.041
229.0,-10.132,-0.529,9.574,0.472,-2.13,-1.139
233.0,-10.132,-0.529,9.574,0.472,-2.13,-1.139
237.0,-10.278,-1.189,10.333,0.152,-2.307,-1.238
241.0,-10.278,-1.189,10.333,0.152,-2.307,-1.238
245.0,-10.278,-1.189,10.333,0.152,-2.307,-1.238
249.0,-10.546,-1.806,10.939,-0.116,-2.486,-1.341
253.0,-10.546,-1.806,10.939,-0.116,-2.486,-1.341
257.0,-10.786,-2.578,11.429,-0.329,-2.682,-1.449
262.0,-10.786,-2.578,11.429,-0.329,-2.682,-1.449
266.0,-10.786,-3.545,11.808,-0.329,-2.682,-1.449
270.0,-10.853,-3.545,11.808,-0.469,-2.904,-1.566
274.0,-10.853,-3.545,11.808,-0.469,-2.904,-1.566
278.0,-10.713,-4.621,11.964,-0.514,-3.133,-1.691
282.0,-10.713,-4.621,11.964,-0.514,-3.133,-1.691
287.0,-10.407,-5.56,11.889,-0.457,-3.34,-1.82
291.0,-10.407,-5.56,11.889,-0.457,-3.34,-1.82
295.0,-10.407,-5.56,11.889,-0.457,-3.34,-1.82
299.0,-10.044,-6.278,11.763,-0.316,-3.511,-1.937
303.0,-10.044,-6.278,11.763,-0.316,-3.511,-1.937
307.0,-9.782,-6.856,11.962,-0.113,-3.661,-2.037
311.0,-9.782,-6.856,11.962,-0.113,-3.661,-2.037
316.0,-9.492,-7.067,12.171,-0.113,-3.825,-2.131
320.0,-9.492,-7.067,12.171,0.117,-3.825,-2.131
324.0,-9.492,-7.067,12.171,0.117,-3.825,-2.131
328.0,-9.019,-7.103,12.12,0.321,-3.994,-2.226
332.0,-9.019,-7.103,12.12,0.321,-3.994,-2.226
336.0,-8.313,-7.122,11.971,0.467,-4.144,-2.325
340.0,-8.313,-7.122,11.971,0.467,-4.144,-2.325
344.0,-8.313,-7.122,11.971,0.467,-4.144,-2.325
348.0,-7.513,-7.0,11.749,0.555,-4.263,-2.428
352.0,-7.513,-7.0,11.749,0.555,-4.263,-2.428
356.0,-6.525,-6.835,11.442,0.558,-4.361,-2.586
360.0,-6.525,-6.835,11.442,0.558,-4.361,-2.586
364.0,-6.525,-6.835,11.442,0.558,-4.361,-2.586
368.0,-5.941,-7.861,11.357,0.532,-4.391,-2.7
372.0,-5.941,-7.861,11.357,0.532,-4.391,-2.7
376.0,-5.188,-8.176,11.018,0.613,-4.4,-2.793
380.0,-5.188,-8.176,11.018,0.613,-4.4,-2.793
384.0,-5.188,-8.176,11.018,0.613,-4.4,-2.793
388.0,-4.338,-8.409,10.649,0.764,-4.405,-2.934
392.0,-4.338,-8.409,10.649,0.764,-4.405,-2.934
396.0,-3.727,-8.875,10.365,0.967,-4.399,-3.106
400.0,-3.727,-8.875,10.365,0.967,-4.399,-3.106
403.0,-3.727,-8.875,10.365,0.967,-4.399,-3.106
407.0,-3.265,-9.32,9.705,1.227,-4.383,-3.29
411.0,-3.265,-9.32,9.705,1.227,-4.383,-3.29
415.0,-2.752,-9.698,8.962,1.543,-4.32,-3.468
419.0,-2.752,-9.698,8.962,1.543,-4.32,-3.468
423.0,-2.752,-9.698,8.962,1.543,-4.32,-3.468
427.0,-2.295,-10.206,8.354,1.915,-4.201,-3.636
431.0,-2.295,-10.206,8.354,1.915,-4.201,-3.636
435.0,-2.002,-10.697,7.917,2.344,-4.051,-3.81
439.0,-2.002,-10.697,7.917,2.344,-4.051,-3.81
443.0,-2.002,-10.697,7.917,2.344,-4.051,-3.81
447.0,-1.826,-10.878,7.63,2.811,-3.886,-3.995
451.0,-1.826,-10.878,7.63,2.811,-3.886,-3.995
455.0,-1.802,-10.624,7.314,3.276,-3.714,-4.191
459.0,-1.802,-10.624,7.314,3.276,-3.714,-4.191
463.0,-1.802,-10.624,6.927,3.276,-3.714,-4.191
467.0,-1.877,-9.891,6.927,3.718,-3.545,-4.376
471.0,-1.877,-9.891,6.927,3.718,-3.545,-4.376
475.0,-1.936,-8.919,6.542,4.111,-3.393,-4.533
479.0,-1.936,-8.919,6.542,4.111,-3.393,-4.533
483.0,-1.936,-8.919,6.166,4.111,-3.393,-4.533
486.0,-1.939,-7.758,6.166,4.442,-3.27,-4.651
490.0,-1.939,-7.758,6.166,4.442,-3.27,-4.651
494.0,-2.102,-6.846,5.891,4.696,-3.195,-4.725
498.0,-2.102,-6.846,5.891,4.696,-3.195,-4.725
502.0,-2.102,-6.846,5.891,4.696,-3.195,-4.725
506.0,-2.188,-5.844,5.373,4.871,-3.171,-4.774
510.0,-2.188,-5.844,5.373,4.871,-3.171,-4.774
514.0,-2.039,-4.604,4.734,4.946,-3.15,-4.811
518.0,-2.039,-4.604,4.734,4.946,-3.15,-4.811
522.0,-2.039,-4.604,4.734,4.946,-3.15,-4.811
526.0,-1.707,-3.397,4.234,4.906,-3.117,-4.847
529.0,-1.707,-3.397,4.234,4.906,-3.117,-4.847
533.0,-1.525,-2.312,3.876,4.753,-3.066,-4.895
537.0,-1.525,-2.312,3.876,4.753,-3.066,-4.895
541.0,-1.525,-2.312,3.876,4.753,-3.066,-4.895
545.0,-1.622,-1.296,3.569,4.508,-2.996,-4.953
549.0,-1.622,-1.296,3.569,4.508,-2.996,-4.953
553.0,-1.698,-0.413,3.249,4.203,-2.907,-4.99
557.0,-1.698,-0.413,3.249,4.203,-2.907,-4.99
561.0,-1.698,-0.413,3.249,4.203,-2.907,-4.99
565.0,-1.775,0.177,3.129,3.863,-2.797,-4.995
568.0,-1.775,0.177,3.129,3.863,-2.797,-4.995
572.0,-1.802,0.745,3.004,3.863,-2.678,-4.995
576.0,-1.802,0.745,3.004,3.519,-2.678,-4.995
580.0,-1.802,0.745,3.004,3.519,-2.678,-4.995
584.0,-1.863,1.266,2.885,3.185,-2.548,-4.995
588.0,-1.863,1.266,2.885,3.185,-2.548,-4.995
591.0,-1.863,1.266,2.837,3.185,-2.548,-4.995
595.0,-1.923,1.609,2.837,2.881,-2.422,-4.995
599.0,-1.923,1.609,2.837,2.881,-2.422,-4.995
603.0,-1.969,1.938,2.777,2.625,-2.299,-4.995
607.0,-1.969,1.938,2.777,2.625,-2.299,-4.995
610.0,-1.969,1.938,2.777,2.625,-2.299,-4.995
614.0,-2.189,2.442,2.81,2.426,-2.172,-4.995
618.0,-2.189,2.442,2.81,2.426,-2.172,-4.995
622.0,-2.493,3.144,2.865,2.279,-2.071,-4.962
626.0,-2.493,3.144,2.865,2.279,-2.071,-4.962
630.0,-2.493,3.144,2.865,2.279,-2.071,-4.962
633.0,-2.666,3.897,2.877,2.169,-1.995,-4.796
637.0,-2.666,3.897,2.877,2.169,-1.995,-4.796
641.0,-2.764,4.558,2.851,2.169,-1.995,-4.796
645.0,-2.764,4.558,2.851,2.09,-1.927,-4.559
649.0,-2.764,4.558,2.851,2.09,-1.927,-4.559
652.0,-2.827,5.161,2.684,2.042,-1.86,-4.302
656.0,-2.827,5.161,2.684,2.042,-1.86,-4.302
660.0,-2.827,5.161,2.684,2.042,-1.86,-4.302
664.0,-2.94,6.025,2.513,2.011,-1.787,-4.042
668.0,-2.94,6.025,2.513,2.011,-1.787,-4.042
672.0,-3.129,7.081,2.335,1.976,-1.712,-3.759
675.0,-3.129,7.081,2.335,1.976,-1.712,-3.759
679.0,-3.129,7.081,2.335,1.976,-1.712,-3.759
683.0,-3.336,8.276,2.247,1.921,-1.633,-3.433
687.0,-3.336,8.276,2.247,1.921,-1.633,-3.433
691.0,-3.605,9.622,2.281,1.921,-1.552,-3.063
694.0,-3.605,9.622,2.281,1.835,-1.552,-3.063
698.0,-3.605,9.622,2.281,1.835,-1.552,-3.063
702.0,-3.799,10.71,2.246,1.706,-1.482,-2.651
706.0,-3.799,10.71,2.246,1.706,-1.482,-2.651
710.0,-3.799,11.547,2.256,1.706,-1.482,-2.651
714.0,-3.766,11.547,2.256,1.538,-1.411,-2.221
718.0,-3.766,11.547,2.256,1.538,-1.411,-2.221
722.0,-3.642,12.283,2.239,1.343,-1.33,-1.805
726.0,-3.642,12.283,2.239,1.343,-1.33,-1.805
729.0,-3.642,12.283,2.191,1.343,-1.33,-1.805
733.0,-3.467,12.924,2.191,1.129,-1.224,-1.402
737.0,-3.467,12.924,2.191,1.129,-1.224,-1.402
741.0,-3.342,13.54,2.232,0.908,-1.086,-0.996
745.0,-3.342,13.54,2.232,0.908,-1.086,-0.996
749.0,-3.342,13.54,2.232,0.908,-1.086,-0.996
753.0,-3.403,14.134,2.371,0.701,-0.929,-0.573
757.0,-3.403,14.134,2.371,0.701,-0.929,-0.573
761.0,-3.581,14.525,2.437,0.52,-0.763,-0.119
765.0,-3.581,14.525,2.437,0.52,-0.763,-0.119
769.0,-3.581,14.525,2.437,0.52,-0.763,-0.119
772.0,-3.486,14.644,2.505,0.375,-0.588,0.352
776.0,-3.486,14.644,2.505,0.375,-0.588,0.352
780.0,-3.392,14.769,2.578,0.291,-0.4,0.798
784.0,-3.392,14.769,2.578,0.291,-0.4,0.798
788.0,-3.392,14.769,2.578,0.291,-0.4,0.798
792.0,-3.273,14.971,2.535,0.284,-0.2,1.213
795.0,-3.273,14.971,2.535,0.284,-0.2,1.213
799.0,-2.985,15.296,2.495,0.284,-0.2,1.607
803.0,-2.985,15.296,2.495,0.348,0.011,1.607
807.0,-2.985,15.296,2.495,0.348,0.011,1.607
810.0,-2.565,15.752,2.342,0.467,0.235,2.005
814.0,-2.565,15.752,2.342,0.467,0.235,2.005
818.0,-2.565,15.752,2.342,0.467,0.235,2.005
822.0,-2.08,16.194,2.135,0.619,0.483,2.432
825.0,-2.08,16.194,2.135,0.619,0.483,2.432
829.0,-1.552,16.567,2.076,0.788,0.755,2.871
833.0,-1.552,16.567,2.076,0.788,0.755,2.871
837.0,-1.552,16.567,2.076,0.788,0.755,2.871
840.0,-1.092,16.981,1.861,0.963,1.034,3.308
844.0,-1.092,16.981,1.861,0.963,1.034,3.308
848.0,-1.092,16.981,1.861,0.963,1.034,3.308
851.0,-0.527,17.416,1.534,1.102,1.325,3.769
855.0,-0.527,17.416,1.534,1.102,1.325,3.769
859.0,0.214,17.594,1.241,1.186,1.634,4.247
863.0,0.214,17.594,1.241,1.186,1.634,4.247
866.0,0.214,17.594,1.241,1.186,1.634,4.247
870.0,1.012,17.734,0.985,1.2,1.946,4.708
874.0,1.012,17.734,0.985,1.2,1.946,4.708
877.0,1.012,17.734,0.985,1.2,1.946,4.708
881.0,1.684,17.718,0.709,1.125,2.252,4.99
884.0,1.684,17.718,0.709,1.125,2.252,4.99
888.0,2.312,17.642,0.435,1.125,2.545,5.013
892.0,2.312,17.642,0.435,0.931,2.545,5.013
895.0,2.312,17.642,0.435,0.931,2.545,5.013
899.0,2.809,17.721,0.23,0.595,2.826,5.013
903.0,2.809,17.721,0.23,0.595,2.826,5.013
906.0,2.809,17.721,0.23,0.595,2.826,5.013
910.0,2.979,17.352,0.108,0.164,3.096,5.013
914.0,2.979,17.352,0.108,0.164,3.096,5.013
917.0,3.05,16.643,-0.089,0.164,3.096,5.013
921.0,3.05,16.643,-0.089,-0.481,3.309,5.013
925.0,3.05,16.643,-0.089,-0.481,3.309,5.013
929.0,2.859,15.317,0.358,-1.219,3.465,5.013
932.0,2.859,15.317,0.358,-1.219,3.465,5.013
936.0,2.859,15.317,0.358,-1.219,3.465,5.013
940.0,2.256,13.64,1.165,-1.964,3.563,5.013
944.0,2.256,13.64,1.165,-1.964,3.563,5.013
947.0,1.333,11.562,1.741,-1.964,3.583,5.013
951.0,1.333,11.562,1.741,-2.704,3.583,5.013
955.0,1.333,11.562,1.741,-2.704,3.583,5.013
959.0,0.327,9.117,2.08,-3.418,3.561,5.013
962.0,0.327,9.117,2.08,-3.418,3.561,5.013
966.0,0.327,9.117,2.08,-3.418,3.561,5.013
969.0,-0.881,6.602,2.359,-4.097,3.518,5.013
973.0,-0.881,6.602,2.359,-4.097,3.518,5.013
977.0,-2.52,3.972,2.79,-4.097,3.442,5.013
981.0,-2.52,3.972,2.79,-4.742,3.442,5.013
984.0,-2.52,3.972,2.79,-4.742,3.442,5.013
988.0,-3.981,1.108,2.816,-5.008,3.331,5.013
992.0,-3.981,1.108,2.816,-5.008,3.331,5.013
996.0,-3.981,1.108,2.816,-5.008,3.331,5.013
999.0,-5.699,-1.606,2.64,-5.013,3.275,5.013
1003.0,-5.699,-1.606,2.64,-5.013,3.275,5.013
1007.0,-8.695,-4.496,2.904,-5.013,3.208,5.013
1011.0,-8.695,-4.496,2.904,-5.013,3.208,5.013
1015.0,-8.695,-4.496,2.904,-5.013,3.208,5.013
1019.0,-11.858,-7.3,1.566,-5.013,2.953,5.013
1023.0,-11.858,-7.3,1.566,-5.013,2.953,5.013
1027.0,-14.663,-9.207,-1.71,-5.013,2.635,5.013
1031.0,-14.663,-9.207,-1.71,-5.013,2.635,5.013
1035.0,-14.663,-9.207,-1.71,-5.013,2.635,5.013
1039.0,-17.664,-11.228,-3.179,-5.013,2.449,5.013
1043.0,-17.664,-11.228,-3.179,-5.013,2.449,5.013
1047.0,-18.82,-13.909,-1.56,-5.013,2.147,5.002
1051.0,-18.82,-13.909,-1.56,-5.013,2.147,5.002
1056.0,-16.502,-16.699,0.764,-5.013,2.147,5.002
1060.0,-16.502,-16.699,0.764,-5.013,1.452,4.728
1064.0,-16.502,-16.699,0.764,-5.013,1.452,4.728
1068.0,-11.858,-19.118,1.08,-5.013,0.54,4.112
1072.0,-11.858,-19.118,1.08,-5.013,0.54,4.112
1076.0,-5.775,-19.6,0.02,-4.99,-0.201,3.338
1080.0,-5.775,-19.6,0.02,-4.99,-0.201,3.338
1084.0,-5.775,-19.6,0.02,-4.99,-0.201,3.338
1088.0,0.007,-18.824,0.042,-4.392,-0.522,2.536
1092.0,0.007,-18.824,0.042,-4.392,-0.522,2.536
1096.0,3.765,-17.255,1.78,-3.292,-0.476,1.847
1100.0,3.765,-17.255,1.78,-3.292,-0.476,1.847
1104.0,3.765,-17.255,1.78,-3.292,-0.476,1.847
1108.0,5.145,-15.8,4.223,-2.296,-0.291,1.238
1112.0,5.145,-15.8,4.223,-2.296,-0.291,1.238
1116.0,4.961,-14.429,6.105,-1.385,-0.133,0.687
1120.0,4.961,-14.429,6.105,-1.385,-0.133,0.687
1124.0,4.961,-14.429,6.782,-1.385,-0.133,0.687
1128.0,4.338,-13.158,6.782,-0.565,-0.008,0.267
1132.0,4.338,-13.158,6.782,-0.565,-0.008,0.267
1136.0,3.843,-12.05,6.873,0.136,0.141,-0.02
1140.0,3.843,-12.05,6.873,0.136,0.141,-0.02
1144.0,3.843,-12.05,6.76,0.136,0.141,-0.02
1148.0,3.606,-11.087,6.76,0.701,0.29,-0.228
1152.0,3.606,-11.087,6.76,0.701,0.29,-0.228
1156.0,3.522,-10.211,6.539,1.128,0.393,-0.362
1160.0,3.522,-10.211,6.539,1.128,0.393,-0.362
1164.0,3.522,-10.211,6.539,1.128,0.393,-0.362
1167.0,3.432,-9.488,6.463,1.425,0.444,-0.423
1171.0,3.432,-9.488,6.463,1.425,0.444,-0.423
1175.0,3.423,-8.734,6.505,1.611,0.451,-0.431
1179.0,3.423,-8.734,6.505,1.611,0.451,-0.431
1183.0,3.423,-8.734,6.505,1.611,0.451,-0.431
1187.0,3.578,-8.026,6.8,1.693,0.446,-0.39
1190.0,3.578,-8.026,6.8,1.693,0.446,-0.39
1194.0,3.787,-7.307,7.511,1.693,0.437,-0.309
1198.0,3.787,-7.307,7.511,1.685,0.437,-0.309
1202.0,3.787,-7.307,7.511,1.685,0.437,-0.309
1206.0,3.941,-6.652,8.335,1.604,0.4,-0.191
1209.0,3.941,-6.652,8.335,1.604,0.4,-0.191
1213.0,3.941,-6.191,8.876,1.604,0.4,-0.191
1217.0,4.136,-6.191,8.876,1.462,0.332,-0.06
1221.0,4.136,-6.191,8.876,1.462,0.332,-0.06
1225.0,4.281,-5.81,9.07,1.261,0.262,0.05
1228.0,4.281,-5.81,9.07,1.261,0.262,0.05
1232.0,4.281,-5.81,9.07,1.261,0.262,0.05
1236.0,4.332,-5.422,9.063,1.003,0.209,0.121
1240.0,4.332,-5.422,9.063,1.003,0.209,0.121
1243.0,4.289,-5.075,8.887,1.003,0.175,0.148
1247.0,4.289,-5.075,8.887,0.696,0.175,0.148
1251.0,4.289,-5.075,8.887,0.696,0.175,0.148
1255.0,4.068,-4.887,8.611,0.361,0.154,0.144
1258.0,4.068,-4.887,8.611,0.361,0.154,0.144
1262.0,4.068,-4.887,8.611,0.361,0.154,0.144
1266.0,3.663,-4.787,8.35,0.029,0.139,0.114
1270.0,3.663,-4.787,8.35,0.029,0.139,0.114
1273.0,3.157,-4.757,8.12,-0.276,0.119,0.068
1277.0,3.157,-4.757,8.12,-0.276,0.119,0.068
1281.0,3.157,-4.757,8.12,-0.276,0.119,0.068
1285.0,2.74,-4.868,7.901,-0.531,0.096,0.02
1289.0,2.74,-4.868,7.901,-0.531,0.096,0.02
1292.0,2.489,-5.157,7.768,-0.531,0.096,0.02
1296.0,2.489,-5.157,7.768,-0.718,0.075,-0.018
1300.0,2.489,-5.157,7.768,-0.718,0.075,-0.018
1304.0,2.426,-5.569,7.667,-0.824,0.052,-0.047
1308.0,2.426,-5.569,7.667,-0.824,0.052,-0.047
1312.0,2.426,-5.569,7.587,-0.824,0.052,-0.047
1316.0,2.512,-5.997,7.587,-0.847,0.036,-0.07
1320.0,2.512,-5.997,7.587,-0.847,0.036,-0.07
1324.0,2.621,-6.353,7.532,-0.793,0.032,-0.09
1327.0,2.621,-6.353,7.532,-0.793,0.032,-0.09
1331.0,2.621,-6.353,7.532,-0.793,0.032,-0.09
1335.0,2.746,-6.608,7.416,-0.677,0.039,-0.105
1339.0,2.746,-6.608,7.416,-0.677,0.039,-0.105
1343.0,2.856,-6.745,7.3,-0.516,0.062,-0.113
1347.0,2.856,-6.745,7.3,-0.516,0.062,-0.113
1351.0,2.856,-6.745,7.3,-0.516,0.062,-0.113
1355.0,2.912,-6.757,7.294,-0.327,0.094,-0.112
1359.0,2.912,-6.757,7.294,-0.327,0.094,-0.112
1363.0,2.959,-6.659,7.32,-0.128,0.119,-0.095
1367.0,2.959,-6.659,7.32,-0.128,0.119,-0.095
1370.0,2.959,-6.659,7.32,-0.128,0.119,-0.095
1374.0,3.015,-6.581,7.329,0.065,0.137,-0.062
1378.0,3.015,-6.581,7.329,0.065,0.137,-0.062
1382.0,3.045,-6.495,7.382,0.246,0.142,-0.023
1386.0,3.045,-6.495,7.382,0.246,0.142,-0.023
1390.0,3.045,-6.495,7.382,0.246,0.142,-0.023
1393.0,3.12,-6.331,7.419,0.404,0.139,0.014
1397.0,3.12,-6.331,7.419,0.404,0.139,0.014
1401.0,3.12,-6.102,7.44,0.404,0.139,0.014
1405.0,3.154,-6.102,7.44,0.527,0.138,0.046
1408.0,3.154,-6.102,7.44,0.527,0.138,0.046
1412.0,3.132,-5.891,7.481,0.612,0.138,0.073
1416.0,3.132,-5.891,7.481,0.612,0.138,0.073
1420.0,3.132,-5.891,7.481,0.612,0.138,0.073
1423.0,3.059,-5.687,7.51,0.653,0.137,0.089
1427.0,3.059,-5.687,7.51,0.653,0.137,0.089
1431.0,3.044,-5.501,7.501,0.653,0.137,0.089
1434.0,3.044,-5.501,7.501,0.654,0.138,0.095
1438.0,3.044,-5.501,7.501,0.654,0.138,0.095
1442.0,3.009,-5.329,7.535,0.62,0.145,0.093
1446.0,3.009,-5.329,7.535,0.62,0.145,0.093
1449.0,3.009,-5.329,7.535,0.62,0.145,0.093
1453.0,2.973,-5.179,7.622,0.561,0.152,0.091
1457.0,2.973,-5.179,7.622,0.561,0.152,0.091
1461.0,2.984,-5.131,7.686,0.561,0.153,0.094
