deltaTime,Acc_X,Acc_Y,Acc_Z,Gyro_X,Gyro_Y,Gyro_Z
0.0,-9.122,-2.117,1.86,0.171,0.025,-0.007
3.0,-9.122,-2.117,1.86,0.171,0.025,-0.007
6.0,-8.718,-1.655,1.839,0.09,0.063,-0.056
9.0,-8.718,-1.655,1.839,0.09,0.063,-0.056
12.0,-8.718,-1.655,1.839,0.09,0.063,-0.056
15.0,-8.553,-1.363,1.865,0.09,0.127,-0.112
18.0,-8.553,-1.363,1.865,-0.075,0.127,-0.112
21.0,-8.553,-1.363,1.865,-0.075,0.127,-0.112
24.0,-8.553,-1.363,1.993,-0.075,0.127,-0.112
27.0,-8.489,-1.397,1.993,-0.282,0.19,-0.151
30.0,-8.489,-1.397,1.993,-0.282,0.19,-0.151
33.0,-8.489,-1.397,1.993,-0.282,0.19,-0.151
37.0,-8.556,-1.783,2.281,-0.474,0.253,-0.174
40.0,-8.556,-1.783,2.281,-0.474,0.253,-0.174
44.0,-8.648,-2.231,2.696,-0.474,0.253,-0.174
48.0,-8.648,-2.231,2.696,-0.608,0.319,-0.19
52.0,-8.648,-2.231,2.696,-0.608,0.319,-0.19
56.0,-8.645,-2.626,3.261,-0.678,0.379,-0.209
60.0,-8.645,-2.626,3.261,-0.678,0.379,-0.209
63.0,-8.645,-2.626,3.261,-0.678,0.379,-0.209
67.0,-8.638,-3.051,3.927,-0.7,0.423,-0.234
71.0,-8.638,-3.051,3.927,-0.7,0.423,-0.234
75.0,-8.989,-3.96,4.735,-0.666,0.439,-0.261
79.0,-8.989,-3.96,4.735,-0.666,0.439,-0.261
82.0,-8.989,-3.96,4.735,-0.666,0.439,-0.261
86.0,-9.407,-4.624,5.504,-0.538,0.435,-0.289
90.0,-9.407,-4.624,5.504,-0.538,0.435,-0.289
94.0,-9.558,-5.666,6.113,-0.538,0.421,-0.34
98.0,-9.558,-5.666,6.113,-0.332,0.421,-0.34
102.0,-9.558,-5.666,6.113,-0.332,0.421,-0.34
105.0,-9.733,-7.179,6.636,0.014,0.381,-0.396
109.0,-9.733,-7.179,6.636,0.014,0.381,-0.396
113.0,-9.733,-7.361,6.729,0.014,0.381,-0.396
117.0,-9.333,-7.361,6.729,0.506,0.29,-0.483
121.0,-9.333,-7.361,6.729,0.506,0.29,-0.483
125.0,-8.88,-6.519,6.544,0.876,0.202,-0.683
128.0,-8.88,-6.519,6.544,0.876,0.202,-0.683
132.0,-8.88,-6.519,6.544,0.876,0.202,-0.683
136.0,-8.742,-6.086,6.566,0.95,0.156,-0.954
140.0,-8.742,-6.086,6.566,0.95,0.156,-0.954
144.0,-8.856,-6.561,6.425,0.874,0.081,-1.228
148.0,-8.856,-6.561,6.425,0.874,0.081,-1.228
151.0,-8.856,-6.561,6.425,0.874,0.081,-1.228
155.0,-8.891,-7.244,6.296,0.749,-0.014,-1.506
159.0,-8.891,-7.244,6.296,0.749,-0.014,-1.506
163.0,-8.468,-8.154,6.45,0.749,-0.014,-1.789
167.0,-8.468,-8.154,6.45,0.555,-0.105,-1.789
171.0,-8.468,-8.154,6.45,0.555,-0.105,-1.789
175.0,-7.931,-9.501,6.906,0.29,-0.196,-2.086
179.0,-7.931,-9.501,6.906,0.29,-0.196,-2.086
182.0,-7.677,-11.283,7.526,0.29,-0.196,-2.086
186.0,-7.677,-11.283,7.526,-0.011,-0.305,-2.427
191.0,-7.677,-11.283,7.526,-0.011,-0.305,-2.427
195.0,-7.733,-13.391,8.039,-0.319,-0.442,-2.83
199.0,-7.733,-13.391,8.039,-0.319,-0.442,-2.83
203.0,-8.112,-15.758,8.365,-0.626,-0.591,-3.316
207.0,-8.112,-15.758,8.365,-0.626,-0.591,-3.316
211.0,-8.112,-15.758,8.365,-0.626,-0.591,-3.316
215.0,-8.886,-18.29,8.508,-0.955,-0.766,-3.929
219.0,-8.886,-18.29,8.508,-0.955,-0.766,-3.929
223.0,-10.08,-19.589,8.28,-1.298,-0.966,-4.67
227.0,-10.08,-19.589,8.28,-1.298,-0.966,-4.67
232.0,-10.08,-19.589,7.666,-1.298,-0.966,-4.67
236.0,-10.973,-19.6,7.666,-1.591,-1.175,-4.99
240.0,-10.973,-19.6,7.666,-1.591,-1.175,-4.99
244.0,-11.099,-19.6,7.363,-1.765,-1.327,-4.995
248.0,-11.099,-19.6,7.363,-1.765,-1.327,-4.995
252.0,-10.798,-19.6,6.984,-1.793,-1.408,-4.995
257.0,-10.798,-19.6,6.984,-1.793,-1.408,-4.995
261.0,-10.798,-19.6,6.984,-1.793,-1.408,-4.995
265.0,-10.51,-19.6,6.361,-1.68,-1.429,-4.995
269.0,-10.51,-19.6,6.361,-1.68,-1.429,-4.995
273.0,-10.535,-19.6,5.646,-1.464,-1.403,-4.995
277.0,-10.535,-19.6,5.646,-1.464,-1.403,-4.995
282.0,-10.701,-19.6,5.014,-1.464,-1.347,-4.995
286.0,-10.701,-19.6,5.014,-1.176,-1.347,-4.995
290.0,-10.701,-19.6,5.014,-1.176,-1.347,-4.995
294.0,-10.735,-19.6,4.281,-0.846,-1.3,-4.995
298.0,-10.735,-19.6,4.281,-0.846,-1.3,-4.995
302.0,-10.725,-19.6,3.415,-0.522,-1.269,-4.995
307.0,-10.725,-19.6,3.415,-0.522,-1.269,-4.995
311.0,-11.055,-19.6,2.816,-0.522,-1.269,-4.995
315.0,-11.055,-19.6,2.816,-0.222,-1.237,-4.995
319.0,-11.055,-19.6,2.816,-0.222,-1.237,-4.995
323.0,-11.372,-19.6,2.377,0.068,-1.207,-4.995
327.0,-11.372,-19.6,2.377,0.068,-1.207,-4.995
331.0,-11.908,-19.6,2.178,0.402,-1.15,-4.995
335.0,-11.908,-19.6,2.178,0.402,-1.15,-4.995
340.0,-11.908,-19.6,2.178,0.402,-1.15,-4.995
344.0,-12.75,-19.6,2.284,0.808,-1.097,-4.995
348.0,-12.75,-19.6,2.284,0.808,-1.097,-4.995
352.0,-13.736,-19.501,2.417,1.251,-1.083,-4.995
356.0,-13.736,-19.501,2.417,1.251,-1.083,-4.995
360.0,-13.736,-17.419,2.657,1.251,-1.083,-4.995
364.0,-14.424,-17.419,2.657,1.672,-1.117,-4.995
368.0,-14.424,-17.419,2.657,1.672,-1.117,-4.995
372.0,-14.776,-14.487,2.81,2.003,-1.195,-4.995
376.0,-14.776,-14.487,2.81,2.003,-1.195,-4.995
380.0,-14.716,-11.727,2.7,2.003,-1.296,-4.995
384.0,-14.716,-11.727,2.7,2.212,-1.296,-4.995
388.0,-14.716,-11.727,2.7,2.212,-1.296,-4.995
393.0,-14.452,-9.209,2.384,2.286,-1.384,-4.995
397.0,-14.452,-9.209,2.384,2.286,-1.384,-4.995
401.0,-14.001,-7.038,2.127,2.239,-1.411,-4.995
405.0,-14.001,-7.038,2.127,2.239,-1.411,-4.995
409.0,-14.001,-7.038,2.127,2.239,-1.411,-4.995
413.0,-14.052,-5.166,1.94,2.104,-1.337,-4.995
417.0,-14.052,-5.166,1.94,2.104,-1.337,-4.995
421.0,-14.586,-3.352,2.092,1.9,-1.181,-4.995
424.0,-14.586,-3.352,2.092,1.9,-1.181,-4.995
428.0,-14.586,-3.352,2.092,1.9,-1.181,-4.995
432.0,-15.766,-1.635,2.288,1.65,-1.009,-4.995
436.0,-15.766,-1.635,2.288,1.65,-1.009,-4.995
440.0,-17.188,0.1,2.179,1.395,-0.862,-4.861
444.0,-17.188,0.1,2.179,1.395,-0.862,-4.861
448.0,-17.188,0.1,2.179,1.395,-0.862,-4.861
452.0,-18.473,1.792,1.756,1.174,-0.74,-4.159
456.0,-18.473,1.792,1.756,1.174,-0.74,-4.159
460.0,-19.494,3.092,0.922,1.008,-0.624,-3.311
464.0,-19.494,3.092,0.922,1.008,-0.624,-3.311
468.0,-19.494,3.092,0.922,1.008,-0.624,-3.311
472.0,-19.6,3.837,0.017,0.902,-0.507,-2.462
476.0,-19.6,3.837,0.017,0.902,-0.507,-2.462
480.0,-19.6,4.26,-0.912,0.866,-0.381,-1.656
484.0,-19.6,4.26,-0.912,0.866,-0.381,-1.656
488.0,-19.6,4.26,-0.912,0.866,-0.381,-1.656
492.0,-19.6,4.651,-1.569,0.883,-0.224,-0.908
496.0,-19.6,4.651,-1.569,0.883,-0.224,-0.908
499.0,-19.294,5.036,-1.901,0.923,-0.042,-0.195
503.0,-19.294,5.036,-1.901,0.923,-0.042,-0.195
507.0,-19.294,5.036,-1.901,0.923,-0.042,-0.195
511.0,-18.294,5.355,-1.867,0.958,0.152,0.499
515.0,-18.294,5.355,-1.867,0.958,0.152,0.499
519.0,-17.026,5.517,-1.633,0.97,0.344,1.19
523.0,-17.026,5.517,-1.633,0.97,0.344,1.19
527.0,-17.026,5.517,-1.633,0.97,0.344,1.19
531.0,-15.48,5.554,-1.263,0.942,0.529,1.894
534.0,-15.48,5.554,-1.263,0.942,0.529,1.894
538.0,-14.209,5.523,-0.815,0.942,0.718,2.62
542.0,-14.209,5.523,-0.815,0.867,0.718,2.62
546.0,-14.209,5.523,-0.815,0.867,0.718,2.62
550.0,-13.243,5.277,-0.427,0.746,0.928,3.396
553.0,-13.243,5.277,-0.427,0.746,0.928,3.396
557.0,-13.243,4.826,-0.019,0.746,0.928,3.396
561.0,-12.696,4.826,-0.019,0.578,1.181,4.222
565.0,-12.696,4.826,-0.019,0.578,1.181,4.222
569.0,-12.554,4.154,0.377,0.377,1.469,4.899
573.0,-12.554,4.154,0.377,0.377,1.469,4.899
576.0,-12.554,4.154,0.377,0.377,1.469,4.899
580.0,-12.719,3.229,0.763,0.152,1.789,5.013
584.0,-12.719,3.229,0.763,0.152,1.789,5.013
587.0,-13.159,1.975,1.117,0.152,1.789,5.013
591.0,-13.159,1.975,1.117,-0.083,2.14,5.013
595.0,-13.159,1.975,1.117,-0.083,2.14,5.013
599.0,-13.819,0.505,1.594,-0.307,2.518,5.013
603.0,-13.819,0.505,1.594,-0.307,2.518,5.013
606.0,-13.819,0.505,2.31,-0.307,2.518,5.013
610.0,-14.758,-1.116,2.31,-0.508,2.904,5.013
614.0,-14.758,-1.116,2.31,-0.508,2.904,5.013
618.0,-16.102,-2.881,3.301,-0.686,3.28,5.013
622.0,-16.102,-2.881,3.301,-0.686,3.28,5.013
626.0,-16.102,-2.881,3.301,-0.686,3.28,5.013
630.0,-18.173,-4.587,4.656,-0.842,3.633,5.013
634.0,-18.173,-4.587,4.656,-0.842,3.633,5.013
638.0,-19.578,-6.511,6.083,-0.963,3.908,5.013
642.0,-19.578,-6.511,6.083,-0.963,3.908,5.013
645.0,-19.578,-6.511,6.083,-0.963,3.908,5.013
649.0,-19.6,-8.675,6.959,-1.047,4.061,5.013
653.0,-19.6,-8.675,6.959,-1.047,4.061,5.013
657.0,-19.6,-11.265,7.39,-1.071,4.114,5.013
661.0,-19.6,-11.265,7.39,-1.071,4.114,5.013
665.0,-19.6,-11.265,7.39,-1.071,4.114,5.013
669.0,-19.6,-14.639,7.704,-1.016,4.114,5.013
673.0,-19.6,-14.639,7.704,-1.016,4.114,5.013
677.0,-19.6,-17.526,7.685,-0.867,4.07,5.013
681.0,-19.6,-17.526,7.685,-0.867,4.07,5.013
685.0,-19.6,-17.526,7.685,-0.867,4.07,5.013
689.0,-19.6,-18.924,7.633,-0.596,3.985,5.013
693.0,-19.6,-18.924,7.633,-0.596,3.985,5.013
697.0,-19.6,-19.491,7.859,-0.239,3.91,5.013
701.0,-19.6,-19.491,7.859,-0.239,3.91,5.013
705.0,-19.6,-19.491,7.859,-0.239,3.91,5.013
709.0,-19.6,-19.425,7.822,0.107,3.916,5.013
713.0,-19.6,-19.425,7.822,0.107,3.916,5.013
717.0,-19.6,-18.799,7.642,0.296,4.0,5.013
721.0,-19.6,-18.799,7.642,0.296,4.0,5.013
725.0,-19.6,-18.799,7.642,0.296,4.0,5.013
729.0,-19.6,-18.443,7.683,0.231,4.111,5.013
732.0,-19.6,-18.443,7.683,0.231,4.111,5.013
736.0,-19.6,-17.969,8.005,-0.059,4.145,5.013
740.0,-19.6,-17.969,8.005,-0.059,4.145,5.013
744.0,-19.6,-17.969,8.005,-0.059,4.145,5.013
748.0,-19.6,-17.116,8.207,-0.463,3.977,5.013
752.0,-19.6,-17.116,8.207,-0.463,3.977,5.013
756.0,-19.6,-16.838,8.302,-0.79,3.656,5.013
760.0,-19.6,-16.838,8.302,-0.79,3.656,5.013
764.0,-19.6,-16.838,8.302,-0.79,3.656,5.013
768.0,-19.6,-17.742,8.052,-0.893,3.248,5.013
772.0,-19.6,-17.742,8.052,-0.893,3.248,5.013
776.0,-19.6,-18.639,6.619,-0.696,2.773,5.013
780.0,-19.6,-18.639,6.619,-0.696,2.773,5.013
784.0,-19.6,-18.639,4.499,-0.696,2.773,5.013
788.0,-19.6,-18.661,4.499,-0.225,2.358,5.013
792.0,-19.6,-18.661,4.499,-0.225,2.358,5.013
796.0,-19.6,-17.585,2.538,0.317,2.15,5.013
800.0,-19.6,-17.585,2.538,0.317,2.15,5.013
804.0,-19.6,-16.461,1.421,0.317,2.15,5.013
808.0,-19.6,-16.461,1.421,0.706,2.191,5.013
812.0,-19.6,-16.461,1.421,0.706,2.191,5.013
816.0,-19.585,-15.592,1.661,0.89,2.37,4.82
820.0,-19.585,-15.592,1.661,0.89,2.37,4.82
824.0,-19.585,-15.592,3.444,0.89,2.37,4.82
828.0,-17.986,-14.804,3.444,0.885,2.539,4.188
831.0,-17.986,-14.804,3.444,0.885,2.539,4.188
835.0,-16.006,-14.167,5.562,0.723,2.545,3.618
839.0,-16.006,-14.167,5.562,0.723,2.545,3.618
843.0,-16.006,-14.167,5.562,0.723,2.545,3.618
847.0,-14.45,-13.905,6.603,0.45,2.344,3.209
851.0,-14.45,-13.905,6.603,0.45,2.344,3.209
855.0,-12.04,-14.09,6.842,0.12,2.054,2.942
859.0,-12.04,-14.09,6.842,0.12,2.054,2.942
863.0,-12.04,-14.09,6.842,0.12,2.054,2.942
867.0,-8.832,-14.521,6.786,-0.218,1.77,2.735
871.0,-8.832,-14.521,6.786,-0.218,1.77,2.735
874.0,-5.706,-14.776,6.57,-0.524,1.51,2.488
878.0,-5.706,-14.776,6.57,-0.524,1.51,2.488
882.0,-5.706,-14.776,6.57,-0.524,1.51,2.488
886.0,-3.297,-15.056,6.219,-0.782,1.271,2.161
890.0,-3.297,-15.056,6.219,-0.782,1.271,2.161
894.0,-1.787,-15.427,5.897,-0.96,1.056,1.723
898.0,-1.787,-15.427,5.897,-0.96,1.056,1.723
902.0,-1.787,-15.427,5.897,-0.96,1.056,1.723
906.0,-1.109,-15.435,5.563,-1.055,0.851,1.19
910.0,-1.109,-15.435,5.563,-1.055,0.851,1.19
913.0,-1.141,-15.211,5.079,-1.101,0.665,0.652
917.0,-1.141,-15.211,5.079,-1.101,0.665,0.652
921.0,-1.141,-15.211,5.079,-1.101,0.665,0.652
925.0,-0.983,-15.2,4.801,-1.11,0.511,0.161
929.0,-0.983,-15.2,4.801,-1.11,0.511,0.161
933.0,-0.163,-15.15,4.792,-1.11,0.388,-0.31
937.0,-0.163,-15.15,4.792,-1.079,0.388,-0.31
941.0,-0.163,-15.15,4.792,-1.079,0.388,-0.31
945.0,0.788,-14.93,5.012,-0.988,0.295,-0.773
949.0,0.788,-14.93,5.012,-0.988,0.295,-0.773
953.0,1.26,-14.894,5.109,-0.988,0.224,-1.216
957.0,1.26,-14.894,5.109,-0.814,0.224,-1.216
961.0,1.26,-14.894,5.109,-0.814,0.224,-1.216
965.0,1.039,-15.06,4.956,-0.577,0.184,-1.652
968.0,1.039,-15.06,4.956,-0.577,0.184,-1.652
972.0,0.271,-15.142,4.637,-0.577,0.184,-2.096
976.0,0.271,-15.142,4.637,-0.303,0.17,-2.096
980.0,0.271,-15.142,4.637,-0.303,0.17,-2.096
984.0,-0.688,-15.086,4.268,-0.01,0.165,-2.538
988.0,-0.688,-15.086,4.268,-0.01,0.165,-2.538
992.0,-1.741,-15.008,3.785,-0.01,0.165,-2.976
996.0,-1.741,-15.008,3.785,0.29,0.155,-2.976
1000.0,-1.741,-15.008,3.785,0.29,0.155,-2.976
1004.0,-2.81,-14.777,3.255,0.576,0.136,-3.41
1008.0,-2.81,-14.777,3.255,0.576,0.136,-3.41
1012.0,-3.957,-14.491,2.81,0.576,0.136,-3.837
1016.0,-3.957,-14.491,2.81,0.821,0.105,-3.837
1020.0,-3.957,-14.491,2.81,0.821,0.105,-3.837
1024.0,-5.417,-14.302,2.35,1.009,0.058,-4.258
1028.0,-5.417,-14.302,2.35,1.009,0.058,-4.258
1032.0,-7.08,-14.21,1.942,1.126,0.008,-4.665
1036.0,-7.08,-14.21,1.942,1.126,0.008,-4.665
1040.0,-7.08,-14.21,1.942,1.126,0.008,-4.665
1044.0,-8.776,-14.23,1.854,1.176,-0.042,-4.955
1048.0,-8.776,-14.23,1.854,1.176,-0.042,-4.955
1052.0,-10.53,-14.601,2.037,1.165,-0.114,-4.995
1056.0,-10.53,-14.601,2.037,1.165,-0.114,-4.995
1060.0,-10.53,-14.601,2.037,1.165,-0.114,-4.995
1065.0,-12.69,-15.503,2.441,1.111,-0.207,-4.995
1069.0,-12.69,-15.503,2.441,1.111,-0.207,-4.995
1073.0,-15.358,-16.858,2.871,1.028,-0.333,-4.995
1077.0,-15.358,-16.858,2.871,1.028,-0.333,-4.995
1081.0,-18.172,-18.301,3.139,1.028,-0.513,-4.995
1085.0,-18.172,-18.301,3.139,0.922,-0.513,-4.995
1090.0,-18.172,-18.301,3.139,0.922,-0.513,-4.995
1094.0,-19.58,-19.495,3.214,0.804,-0.71,-4.995
1098.0,-19.58,-19.495,3.214,0.804,-0.71,-4.995
1102.0,-19.6,-19.6,3.13,0.697,-0.873,-4.995
1106.0,-19.6,-19.6,3.13,0.697,-0.873,-4.995
1110.0,-19.6,-19.6,2.9,0.697,-0.873,-4.995
1115.0,-19.6,-19.6,2.9,0.62,-0.979,-4.995
1119.0,-19.6,-19.6,2.9,0.62,-0.979,-4.995
1123.0,-19.6,-19.6,2.644,0.548,-1.017,-4.995
1127.0,-19.6,-19.6,2.644,0.548,-1.017,-4.995
1131.0,-19.6,-19.6,2.518,0.467,-1.004,-4.995
1135.0,-19.6,-19.6,2.518,0.467,-1.004,-4.995
1140.0,-19.6,-19.6,2.582,0.467,-1.004,-4.995
1144.0,-19.6,-19.6,2.582,0.364,-0.976,-4.995
1148.0,-19.6,-19.6,2.582,0.364,-0.976,-4.995
1152.0,-19.6,-19.6,2.561,0.253,-0.963,-4.995
1156.0,-19.6,-19.6,2.561,0.253,-0.963,-4.995
1160.0,-19.6,-19.6,2.17,0.166,-0.964,-4.995
1165.0,-19.6,-19.6,2.17,0.166,-0.964,-4.995
1169.0,-19.6,-19.6,2.17,0.166,-0.964,-4.995
1173.0,-19.6,-19.6,1.643,0.156,-0.948,-4.995
1177.0,-19.6,-19.6,1.643,0.156,-0.948,-4.995
1181.0,-19.6,-19.6,1.281,0.284,-0.913,-4.995
1185.0,-19.6,-19.6,1.281,0.284,-0.913,-4.995
1190.0,-19.6,-19.6,1.142,0.284,-0.913,-4.995
1194.0,-19.6,-19.6,1.142,0.594,-0.864,-4.995
1198.0,-19.6,-19.6,1.142,0.594,-0.864,-4.995
1202.0,-19.6,-19.6,1.318,1.097,-0.833,-4.995
1206.0,-19.6,-19.6,1.318,1.097,-0.833,-4.995
1210.0,-19.6,-19.6,1.695,1.69,-0.847,-4.995
1215.0,-19.6,-19.6,1.695,1.69,-0.847,-4.995
1219.0,-19.6,-19.6,2.176,1.69,-0.847,-4.995
1223.0,-19.6,-19.6,2.176,2.293,-0.898,-4.995
1227.0,-19.6,-19.6,2.176,2.293,-0.898,-4.995
1231.0,-19.6,-19.6,2.368,2.9,-1.022,-4.995
1235.0,-19.6,-19.6,2.368,2.9,-1.022,-4.995
1240.0,-19.6,-19.6,2.557,3.419,-1.208,-4.995
1244.0,-19.6,-19.6,2.557,3.419,-1.208,-4.995
1248.0,-19.6,-19.6,2.557,3.419,-1.208,-4.995
1252.0,-19.6,-19.6,2.518,3.792,-1.424,-4.995
1256.0,-19.6,-19.6,2.518,3.792,-1.424,-4.995
1260.0,-19.6,-19.427,2.466,4.017,-1.638,-4.995
1265.0,-19.6,-19.427,2.466,4.017,-1.638,-4.995
1269.0,-19.6,-17.189,2.496,4.017,-1.86,-4.995
1273.0,-19.6,-17.189,2.496,4.131,-1.86,-4.995
1277.0,-19.6,-17.189,2.496,4.131,-1.86,-4.995
1281.0,-19.6,-14.18,2.321,4.13,-2.105,-4.995
1285.0,-19.6,-14.18,2.321,4.13,-2.105,-4.995
1290.0,-19.6,-11.051,2.012,4.038,-2.338,-4.995
1294.0,-19.6,-11.051,2.012,4.038,-2.338,-4.995
1298.0,-19.6,-7.953,1.405,4.038,-2.338,-4.995
1302.0,-19.6,-7.953,1.405,3.886,-2.55,-4.995
1306.0,-19.6,-7.953,1.405,3.886,-2.55,-4.995
1310.0,-19.6,-5.096,0.596,3.668,-2.727,-4.995
1314.0,-19.6,-5.096,0.596,3.668,-2.727,-4.995
1318.0,-19.6,-2.316,-0.407,3.376,-2.832,-4.995
1322.0,-19.6,-2.316,-0.407,3.376,-2.832,-4.995
1327.0,-19.6,-2.316,-0.407,3.376,-2.832,-4.995
1331.0,-19.6,0.296,-1.857,3.017,-2.856,-4.995
1335.0,-19.6,0.296,-1.857,3.017,-2.856,-4.995
1339.0,-19.6,2.432,-3.34,2.578,-2.813,-4.995
1343.0,-19.6,2.432,-3.34,2.578,-2.813,-4.995
1347.0,-19.6,4.19,-4.466,2.578,-2.813,-4.995
1351.0,-19.02,4.19,-4.466,2.069,-2.715,-4.859
1355.0,-19.02,4.19,-4.466,2.069,-2.715,-4.859
1359.0,-18.076,5.671,-5.314,1.525,-2.533,-4.297
1363.0,-18.076,5.671,-5.314,1.525,-2.533,-4.297
1367.0,-17.238,6.815,-5.917,1.525,-2.252,-3.643
1372.0,-17.238,6.815,-5.917,0.981,-2.252,-3.643
1376.0,-17.238,6.815,-5.917,0.981,-2.252,-3.643
1380.0,-16.566,7.738,-6.37,0.467,-1.897,-2.945
1384.0,-16.566,7.738,-6.37,0.467,-1.897,-2.945
1388.0,-15.977,8.494,-6.748,0.021,-1.493,-2.202
1392.0,-15.977,8.494,-6.748,0.021,-1.493,-2.202
1396.0,-15.977,8.494,-6.748,0.021,-1.493,-2.202
1400.0,-15.315,9.019,-6.923,-0.337,-1.068,-1.425
1404.0,-15.315,9.019,-6.923,-0.337,-1.068,-1.425
1408.0,-14.632,9.214,-6.808,-0.604,-0.632,-0.605
1413.0,-14.632,9.214,-6.808,-0.604,-0.632,-0.605
1417.0,-13.892,9.014,-6.398,-0.604,-0.201,0.256
1421.0,-13.892,9.014,-6.398,-0.778,-0.201,0.256
1425.0,-13.892,9.014,-6.398,-0.778,-0.201,0.256
1429.0,-13.122,8.46,-5.636,-0.87,0.222,1.145
1433.0,-13.122,8.46,-5.636,-0.87,0.222,1.145
1437.0,-12.69,7.747,-4.622,-0.89,0.64,2.067
1441.0,-12.69,7.747,-4.622,-0.89,0.64,2.067
1445.0,-12.69,7.747,-4.622,-0.89,0.64,2.067
1449.0,-12.584,6.904,-3.647,-0.849,1.043,3.029
1453.0,-12.584,6.904,-3.647,-0.849,1.043,3.029
1457.0,-12.84,5.945,-2.758,-0.769,1.43,4.029
1461.0,-12.84,5.945,-2.758,-0.769,1.43,4.029
1465.0,-12.84,5.945,-2.758,-0.769,1.43,4.029
1469.0,-13.467,4.941,-1.824,-0.666,1.805,4.857
1473.0,-13.467,4.941,-1.824,-0.666,1.805,4.857
1477.0,-14.375,3.925,-0.894,-0.556,2.147,5.013
1481.0,-14.375,3.925,-0.894,-0.556,2.147,5.013
1485.0,-14.375,3.925,-0.894,-0.556,2.147,5.013
1489.0,-15.224,2.775,-0.039,-0.457,2.449,5.013
1493.0,-15.224,2.775,-0.039,-0.457,2.449,5.013
1497.0,-16.076,1.329,0.911,-0.374,2.742,5.013
1501.0,-16.076,1.329,0.911,-0.374,2.742,5.013
1505.0,-16.076,1.329,0.911,-0.374,2.742,5.013
