deltaTime,Acc_X,Acc_Y,Acc_Z,Gyro_X,Gyro_Y,Gyro_Z
0.0,-7.457,-5.67,3.841,0.017,-0.021,0.295
3.0,-7.457,-5.67,3.841,0.017,-0.021,0.295
6.0,-7.457,-5.67,3.841,0.017,-0.021,0.295
9.0,-7.12,-5.661,3.671,-0.072,-0.048,0.293
12.0,-7.12,-5.661,3.671,-0.072,-0.048,0.293
15.0,-7.12,-5.661,3.671,-0.072,-0.048,0.293
18.0,-6.728,-5.669,3.552,-0.148,-0.05,0.285
21.0,-6.728,-5.669,3.552,-0.148,-0.05,0.285
24.0,-6.728,-5.669,3.552,-0.148,-0.05,0.285
27.0,-6.32,-5.742,3.354,-0.216,-0.039,0.271
30.0,-6.32,-5.742,3.354,-0.216,-0.039,0.271
33.0,-6.32,-5.742,3.354,-0.216,-0.039,0.271
37.0,-6.218,-5.892,3.696,-0.275,-0.05,0.243
41.0,-6.218,-5.892,3.696,-0.275,-0.05,0.243
44.0,-6.218,-5.892,3.696,-0.275,-0.05,0.243
48.0,-6.587,-5.722,3.788,-0.27,0.089,0.228
52.0,-6.587,-5.722,3.788,-0.27,0.089,0.228
56.0,-6.587,-5.722,4.052,-0.27,0.089,0.228
59.0,-6.79,-5.627,4.052,-0.28,0.124,0.223
63.0,-6.79,-5.627,4.052,-0.28,0.124,0.223
67.0,-7.006,-5.661,4.358,-0.31,0.135,0.227
71.0,-7.006,-5.661,4.358,-0.31,0.135,0.227
74.0,-7.006,-5.661,4.358,-0.31,0.135,0.227
78.0,-7.241,-5.562,4.518,-0.342,0.116,0.227
82.0,-7.241,-5.562,4.518,-0.342,0.116,0.227
86.0,-7.259,-5.621,4.603,-0.342,0.116,0.227
89.0,-7.259,-5.621,4.603,-0.379,0.084,0.232
93.0,-7.259,-5.621,4.603,-0.379,0.084,0.232
97.0,-7.106,-5.658,4.605,-0.396,0.058,0.247
100.0,-7.106,-5.658,4.605,-0.396,0.058,0.247
104.0,-7.106,-5.658,4.605,-0.396,0.058,0.247
108.0,-6.97,-5.661,4.637,-0.383,0.061,0.266
112.0,-6.97,-5.661,4.637,-0.383,0.061,0.266
116.0,-6.91,-5.614,4.754,-0.347,0.098,0.283
120.0,-6.91,-5.614,4.754,-0.347,0.098,0.283
123.0,-6.91,-5.614,4.754,-0.347,0.098,0.283
127.0,-7.019,-5.623,4.966,-0.291,0.167,0.295
131.0,-7.019,-5.623,4.966,-0.291,0.167,0.295
135.0,-7.238,-5.758,5.259,-0.291,0.167,0.295
139.0,-7.238,-5.758,5.259,-0.173,0.24,0.309
142.0,-7.238,-5.758,5.259,-0.173,0.24,0.309
146.0,-7.256,-5.522,5.523,-0.014,0.313,0.316
150.0,-7.256,-5.522,5.523,-0.014,0.313,0.316
154.0,-7.256,-5.522,5.523,-0.014,0.313,0.316
158.0,-7.279,-5.469,5.749,0.172,0.386,0.325
161.0,-7.279,-5.469,5.749,0.172,0.386,0.325
165.0,-7.717,-5.053,5.557,0.347,0.578,0.354
169.0,-7.717,-5.053,5.557,0.347,0.578,0.354
173.0,-7.717,-5.053,5.557,0.347,0.578,0.354
176.0,-7.774,-4.161,5.247,0.396,0.454,0.331
180.0,-7.774,-4.161,5.247,0.396,0.454,0.331
184.0,-7.774,-4.161,4.683,0.396,0.454,0.331
188.0,-8.086,-4.186,4.683,0.273,0.372,0.301
191.0,-8.086,-4.186,4.683,0.273,0.372,0.301
195.0,-8.068,-4.297,3.979,0.102,0.276,0.296
199.0,-8.068,-4.297,3.979,0.102,0.276,0.296
203.0,-8.068,-4.297,3.979,0.102,0.276,0.296
206.0,-7.741,-4.295,3.413,-0.077,0.161,0.303
210.0,-7.741,-4.295,3.413,-0.077,0.161,0.303
214.0,-7.111,-4.265,2.897,-0.077,0.161,0.303
218.0,-7.111,-4.265,2.897,-0.282,0.083,0.319
222.0,-7.111,-4.265,2.897,-0.282,0.083,0.319
225.0,-6.605,-4.434,2.483,-0.524,0.04,0.345
229.0,-6.605,-4.434,2.483,-0.524,0.04,0.345
233.0,-6.605,-4.434,2.483,-0.524,0.04,0.345
237.0,-6.223,-5.042,2.38,-0.781,0.011,0.365
241.0,-6.223,-5.042,2.38,-0.781,0.011,0.365
244.0,-5.929,-6.089,2.684,-0.993,-0.013,0.349
248.0,-5.929,-6.089,2.684,-0.993,-0.013,0.349
252.0,-5.929,-6.089,2.684,-0.993,-0.013,0.349
256.0,-5.753,-7.558,3.547,-1.104,-0.041,0.279
260.0,-5.753,-7.558,3.547,-1.104,-0.041,0.279
264.0,-5.713,-9.204,4.982,-1.065,-0.096,0.152
268.0,-5.713,-9.204,4.982,-1.065,-0.096,0.152
272.0,-5.713,-9.204,4.982,-1.065,-0.096,0.152
276.0,-5.509,-10.81,6.479,-0.905,-0.199,-0.029
280.0,-5.509,-10.81,6.479,-0.905,-0.199,-0.029
284.0,-4.966,-12.307,7.874,-0.721,-0.339,-0.26
288.0,-4.966,-12.307,7.874,-0.721,-0.339,-0.26
292.0,-4.966,-12.307,7.874,-0.721,-0.339,-0.26
296.0,-4.239,-13.837,9.398,-0.596,-0.499,-0.548
300.0,-4.239,-13.837,9.398,-0.596,-0.499,-0.548
304.0,-3.748,-15.688,10.988,-0.582,-0.686,-0.911
308.0,-3.748,-15.688,10.988,-0.582,-0.686,-0.911
313.0,-3.973,-18.383,12.344,-0.582,-0.686,-0.911
317.0,-3.973,-18.383,12.344,-0.734,-0.918,-1.379
321.0,-3.973,-18.383,12.344,-0.734,-0.918,-1.379
325.0,-5.096,-19.6,13.353,-1.043,-1.225,-2.015
329.0,-5.096,-19.6,13.353,-1.043,-1.225,-2.015
333.0,-6.526,-19.6,13.574,-1.392,-1.611,-2.844
338.0,-6.526,-19.6,13.574,-1.392,-1.611,-2.844
342.0,-6.526,-19.6,13.56,-1.392,-1.611,-2.844
346.0,-6.935,-19.6,13.56,-1.666,-2.037,-3.803
350.0,-6.935,-19.6,13.56,-1.666,-2.037,-3.803
354.0,-6.562,-19.6,13.616,-1.849,-2.42,-4.705
358.0,-6.562,-19.6,13.616,-1.849,-2.42,-4.705
363.0,-6.4,-19.6,13.201,-1.975,-2.731,-4.993
367.0,-6.4,-19.6,13.201,-1.975,-2.731,-4.993
371.0,-6.4,-19.6,13.201,-1.975,-2.731,-4.993
375.0,-6.504,-19.6,12.446,-2.025,-2.98,-4.995
379.0,-6.504,-19.6,12.446,-2.025,-2.98,-4.995
383.0,-6.327,-19.6,11.501,-1.952,-3.165,-4.995
388.0,-6.327,-19.6,11.501,-1.952,-3.165,-4.995
392.0,-6.099,-19.6,10.552,-1.952,-3.165,-4.995
396.0,-6.099,-19.6,10.552,-1.714,-3.26,-4.995
400.0,-6.099,-19.6,10.552,-1.714,-3.26,-4.995
404.0,-6.498,-19.6,9.505,-1.299,-3.257,-4.995
408.0,-6.498,-19.6,9.505,-1.299,-3.257,-4.995
412.0,-7.635,-19.6,8.22,-0.762,-3.197,-4.995
416.0,-7.635,-19.6,8.22,-0.762,-3.197,-4.995
421.0,-7.635,-19.6,8.22,-0.762,-3.197,-4.995
425.0,-8.906,-19.6,7.172,-0.184,-3.115,-4.995
429.0,-8.906,-19.6,7.172,-0.184,-3.115,-4.995
433.0,-10.024,-19.6,6.532,0.331,-3.062,-4.995
437.0,-10.024,-19.6,6.532,0.331,-3.062,-4.995
441.0,-11.033,-19.141,5.903,0.331,-3.062,-4.995
445.0,-11.033,-19.141,5.903,0.717,-3.032,-4.995
449.0,-11.033,-19.141,5.903,0.717,-3.032,-4.995
453.0,-11.808,-16.515,5.359,0.982,-3.025,-4.995
457.0,-11.808,-16.515,5.359,0.982,-3.025,-4.995
461.0,-11.817,-13.627,5.167,1.148,-3.058,-4.995
465.0,-11.817,-13.627,5.167,1.148,-3.058,-4.995
470.0,-11.817,-13.627,5.167,1.148,-3.058,-4.995
474.0,-11.432,-10.999,5.045,1.247,-3.091,-4.995
478.0,-11.432,-10.999,5.045,1.247,-3.091,-4.995
482.0,-11.103,-8.792,4.828,1.307,-3.083,-4.995
486.0,-11.103,-8.792,4.828,1.307,-3.083,-4.995
490.0,-11.103,-8.792,4.828,1.307,-3.083,-4.995
494.0,-11.267,-6.635,4.432,1.369,-3.069,-4.995
498.0,-11.267,-6.635,4.432,1.369,-3.069,-4.995
502.0,-11.329,-3.868,4.103,1.418,-3.055,-4.995
506.0,-11.329,-3.868,4.103,1.418,-3.055,-4.995
510.0,-11.329,-0.951,2.828,1.418,-3.055,-4.995
514.0,-12.123,-0.951,2.828,1.389,-2.956,-4.995
518.0,-12.123,-0.951,2.828,1.389,-2.956,-4.995
522.0,-12.16,1.678,0.894,1.278,-2.811,-4.995
526.0,-12.16,1.678,0.894,1.278,-2.811,-4.995
530.0,-12.16,3.976,-0.912,1.278,-2.811,-4.995
534.0,-12.25,3.976,-0.912,1.085,-2.43,-4.995
538.0,-12.25,3.976,-0.912,1.085,-2.43,-4.995
541.0,-12.995,5.699,-2.328,0.866,-1.863,-4.961
545.0,-12.995,5.699,-2.328,0.866,-1.863,-4.961
549.0,-14.679,6.678,-3.434,0.866,-1.863,-4.961
553.0,-14.679,6.678,-3.434,0.638,-1.24,-4.282
557.0,-14.679,6.678,-3.434,0.638,-1.24,-4.282
561.0,-16.713,6.811,-4.348,0.412,-0.629,-3.004
565.0,-16.713,6.811,-4.348,0.412,-0.629,-3.004
569.0,-18.522,6.374,-4.607,0.412,-0.629,-1.69
573.0,-18.522,6.374,-4.607,0.213,-0.023,-1.69
577.0,-18.522,6.374,-4.607,0.213,-0.023,-1.69
581.0,-19.313,5.64,-4.401,0.09,0.545,-0.366
585.0,-19.313,5.64,-4.401,0.09,0.545,-0.366
589.0,-19.332,4.91,-4.212,0.09,0.545,0.937
593.0,-19.332,4.91,-4.212,0.07,1.041,0.937
597.0,-19.332,4.91,-4.212,0.07,1.041,0.937
601.0,-18.91,4.331,-4.053,0.14,1.457,2.171
605.0,-18.91,4.331,-4.053,0.14,1.457,2.171
608.0,-18.91,4.331,-3.824,0.14,1.457,2.171
612.0,-17.986,3.708,-3.824,0.263,1.782,3.293
616.0,-17.986,3.708,-3.824,0.263,1.782,3.293
620.0,-16.604,2.947,-3.693,0.391,2.036,4.288
624.0,-16.604,2.947,-3.693,0.391,2.036,4.288
627.0,-16.604,2.947,-3.693,0.391,2.036,4.288
631.0,-15.326,2.122,-3.771,0.472,2.279,4.938
635.0,-15.326,2.122,-3.771,0.472,2.279,4.938
639.0,-14.737,1.388,-3.872,0.485,2.562,5.013
643.0,-14.737,1.388,-3.872,0.485,2.562,5.013
647.0,-14.737,1.388,-3.872,0.485,2.562,5.013
650.0,-14.902,0.691,-3.716,0.426,2.886,5.013
654.0,-14.902,0.691,-3.716,0.426,2.886,5.013
658.0,-15.639,0.019,-3.114,0.426,2.886,5.013
662.0,-15.639,0.019,-3.114,0.303,3.209,5.013
666.0,-15.639,0.019,-3.114,0.303,3.209,5.013
669.0,-17.002,-0.707,-2.311,0.115,3.497,5.013
673.0,-17.002,-0.707,-2.311,0.115,3.497,5.013
677.0,-17.002,-0.707,-2.311,0.115,3.497,5.013
681.0,-18.849,-1.78,-1.443,-0.158,3.739,5.013
685.0,-18.849,-1.78,-1.443,-0.158,3.739,5.013
689.0,-19.6,-3.301,-0.619,-0.509,3.916,5.013
693.0,-19.6,-3.301,-0.619,-0.509,3.916,5.013
697.0,-19.6,-3.301,-0.088,-0.509,3.916,5.013
701.0,-19.6,-4.865,-0.088,-0.901,4.012,5.013
705.0,-19.6,-4.865,-0.088,-0.901,4.012,5.013
709.0,-19.6,-6.451,0.214,-1.3,4.043,5.013
713.0,-19.6,-6.451,0.214,-1.3,4.043,5.013
717.0,-19.6,-6.451,0.323,-1.3,4.043,5.013
721.0,-19.6,-8.07,0.323,-1.669,4.046,5.013
725.0,-19.6,-8.07,0.323,-1.669,4.046,5.013
729.0,-19.6,-10.378,0.306,-1.986,4.075,5.013
733.0,-19.6,-10.378,0.306,-1.986,4.075,5.013
737.0,-19.6,-10.378,0.251,-1.986,4.075,5.013
741.0,-19.6,-12.815,0.251,-2.243,4.167,5.013
745.0,-19.6,-12.815,0.251,-2.243,4.167,5.013
749.0,-19.6,-15.244,0.995,-2.406,4.261,5.013
753.0,-19.6,-15.244,0.995,-2.406,4.261,5.013
757.0,-19.6,-17.542,1.988,-2.406,4.261,5.013
761.0,-19.6,-17.542,1.988,-2.446,4.257,5.013
765.0,-19.6,-17.542,1.988,-2.446,4.257,5.013
769.0,-19.6,-18.728,2.711,-2.329,4.173,5.013
773.0,-19.6,-18.728,2.711,-2.329,4.173,5.013
777.0,-19.6,-18.998,3.474,-2.329,4.173,5.013
781.0,-19.6,-18.998,3.474,-2.091,4.032,5.013
785.0,-19.6,-18.998,3.474,-2.091,4.032,5.013
789.0,-19.6,-19.595,4.192,-1.849,3.834,5.013
793.0,-19.6,-19.595,4.192,-1.849,3.834,5.013
797.0,-19.6,-19.6,4.228,-1.849,3.834,5.013
801.0,-19.6,-19.6,4.228,-1.58,3.676,5.013
805.0,-19.6,-19.6,4.228,-1.58,3.676,5.013
809.0,-19.6,-19.433,4.187,-1.416,3.574,5.013
812.0,-19.6,-19.433,4.187,-1.416,3.574,5.013
816.0,-19.6,-19.18,5.209,-1.42,3.517,5.013
820.0,-19.6,-19.18,5.209,-1.42,3.517,5.013
824.0,-19.6,-19.18,5.209,-1.42,3.517,5.013
828.0,-19.6,-19.6,7.347,-1.476,3.359,5.013
832.0,-19.6,-19.6,7.347,-1.476,3.359,5.013
836.0,-19.6,-19.6,8.822,-1.54,2.861,5.013
840.0,-19.6,-19.6,8.822,-1.54,2.861,5.013
844.0,-19.6,-19.6,8.822,-1.54,2.861,5.013
848.0,-19.6,-19.588,7.813,-1.684,2.125,5.013
852.0,-19.6,-19.588,7.813,-1.684,2.125,5.013
856.0,-19.6,-18.214,6.5,-1.832,1.481,5.013
860.0,-19.6,-18.214,6.5,-1.832,1.481,5.013
864.0,-19.6,-18.214,6.5,-1.832,1.481,5.013
868.0,-19.6,-15.678,5.668,-1.959,1.092,5.013
872.0,-19.6,-15.678,5.668,-1.959,1.092,5.013
876.0,-19.6,-13.709,5.171,-2.046,0.911,4.996
880.0,-19.6,-13.709,5.171,-2.046,0.911,4.996
884.0,-19.6,-13.709,5.171,-2.046,0.911,4.996
888.0,-19.6,-13.822,5.031,-2.165,0.792,4.631
892.0,-19.6,-13.822,5.031,-2.165,0.792,4.631
896.0,-19.6,-14.516,4.76,-2.368,0.652,3.929
900.0,-19.6,-14.516,4.76,-2.368,0.652,3.929
904.0,-19.6,-14.516,4.76,-2.368,0.652,3.929
908.0,-19.407,-15.081,4.467,-2.571,0.501,3.312
912.0,-19.407,-15.081,4.467,-2.571,0.501,3.312
916.0,-17.235,-15.567,4.418,-2.658,0.355,2.848
920.0,-17.235,-15.567,4.418,-2.658,0.355,2.848
924.0,-17.235,-15.754,4.644,-2.658,0.355,2.848
928.0,-14.703,-15.754,4.644,-2.529,0.207,2.522
932.0,-14.703,-15.754,4.644,-2.529,0.207,2.522
936.0,-12.622,-15.575,5.11,-2.169,0.039,2.298
940.0,-12.622,-15.575,5.11,-2.169,0.039,2.298
944.0,-10.509,-14.934,5.258,-2.169,0.039,2.298
948.0,-10.509,-14.934,5.258,-1.618,-0.154,2.134
952.0,-10.509,-14.934,5.258,-1.618,-0.154,2.134
956.0,-8.35,-14.034,4.915,-0.978,-0.345,1.997
960.0,-8.35,-14.034,4.915,-0.978,-0.345,1.997
964.0,-6.336,-13.033,4.285,-0.978,-0.484,1.876
968.0,-6.336,-13.033,4.285,-0.316,-0.484,1.876
972.0,-6.336,-13.033,4.285,-0.316,-0.484,1.876
976.0,-4.477,-11.882,3.555,0.313,-0.561,1.774
980.0,-4.477,-11.882,3.555,0.313,-0.561,1.774
984.0,-2.792,-10.827,2.792,0.313,-0.603,1.689
988.0,-2.792,-10.827,2.792,0.848,-0.603,1.689
992.0,-2.792,-10.827,2.792,0.848,-0.603,1.689
996.0,-1.241,-10.275,2.139,1.277,-0.608,1.618
1000.0,-1.241,-10.275,2.139,1.277,-0.608,1.618
1004.0,0.159,-9.95,1.607,1.277,-0.608,1.539
1008.0,0.159,-9.95,1.607,1.612,-0.588,1.539
1011.0,0.159,-9.95,1.607,1.612,-0.588,1.539
1015.0,1.385,-9.497,1.186,1.851,-0.542,1.451
1019.0,1.385,-9.497,1.186,1.851,-0.542,1.451
1023.0,1.385,-9.497,0.998,1.851,-0.542,1.451
1027.0,2.551,-9.139,0.998,1.968,-0.465,1.354
1031.0,2.551,-9.139,0.998,1.968,-0.465,1.354
1034.0,3.511,-9.019,1.057,1.976,-0.368,1.22
1038.0,3.511,-9.019,1.057,1.976,-0.368,1.22
1042.0,3.511,-9.019,1.057,1.976,-0.368,1.22
1046.0,4.347,-9.041,1.257,1.894,-0.272,1.033
1050.0,4.347,-9.041,1.257,1.894,-0.272,1.033
1053.0,5.0,-9.193,1.373,1.746,-0.169,0.788
1057.0,5.0,-9.193,1.373,1.746,-0.169,0.788
1061.0,5.0,-9.193,1.373,1.746,-0.169,0.788
1065.0,5.252,-9.507,1.417,1.576,-0.056,0.489
1069.0,5.252,-9.507,1.417,1.576,-0.056,0.489
1073.0,5.221,-9.763,1.314,1.576,-0.056,0.489
1076.0,5.221,-9.763,1.314,1.403,0.045,0.148
1080.0,5.221,-9.763,1.314,1.403,0.045,0.148
1084.0,4.826,-10.134,1.32,1.244,0.148,-0.22
1088.0,4.826,-10.134,1.32,1.244,0.148,-0.22
1092.0,4.826,-10.134,1.32,1.244,0.148,-0.22
1096.0,4.071,-10.561,1.341,1.125,0.242,-0.607
1099.0,4.071,-10.561,1.341,1.125,0.242,-0.607
1103.0,3.081,-10.866,1.101,1.049,0.295,-1.019
1107.0,3.081,-10.866,1.101,1.049,0.295,-1.019
1111.0,3.081,-10.866,1.101,1.049,0.295,-1.019
1115.0,1.938,-11.245,0.841,1.002,0.326,-1.452
1119.0,1.938,-11.245,0.841,1.002,0.326,-1.452
1123.0,0.669,-11.853,0.615,0.978,0.348,-1.9
1127.0,0.669,-11.853,0.615,0.978,0.348,-1.9
1131.0,0.669,-11.853,0.615,0.978,0.348,-1.9
1135.0,-0.778,-12.498,0.306,0.968,0.341,-2.389
1139.0,-0.778,-12.498,0.306,0.968,0.341,-2.389
1143.0,-2.432,-13.04,0.222,0.974,0.297,-2.91
1147.0,-2.432,-13.04,0.222,0.974,0.297,-2.91
1151.0,-2.432,-13.04,0.222,0.974,0.297,-2.91
1155.0,-4.188,-13.485,0.294,1.005,0.2,-3.426
1159.0,-4.188,-13.485,0.294,1.005,0.2,-3.426
1163.0,-5.885,-13.982,0.299,1.057,0.055,-3.908
1167.0,-5.885,-13.982,0.299,1.057,0.055,-3.908
1171.0,-5.885,-13.982,0.299,1.057,0.055,-3.908
1175.0,-7.547,-14.78,0.343,1.126,-0.122,-4.357
1179.0,-7.547,-14.78,0.343,1.126,-0.122,-4.357
1183.0,-9.261,-15.836,0.384,1.189,-0.323,-4.798
1187.0,-9.261,-15.836,0.384,1.189,-0.323,-4.798
1191.0,-9.261,-16.912,0.406,1.189,-0.323,-4.798
1195.0,-11.116,-16.912,0.406,1.209,-0.529,-4.991
1199.0,-11.116,-16.912,0.406,1.209,-0.529,-4.991
1203.0,-13.222,-17.974,0.576,1.134,-0.709,-4.995
1207.0,-13.222,-17.974,0.576,1.134,-0.709,-4.995
1212.0,-15.887,-19.32,1.088,0.955,-0.858,-4.995
1216.0,-15.887,-19.32,1.088,0.955,-0.858,-4.995
1220.0,-15.887,-19.32,1.088,0.955,-0.858,-4.995
1224.0,-18.904,-19.6,1.644,0.709,-0.975,-4.995
1228.0,-18.904,-19.6,1.644,0.709,-0.975,-4.995
1232.0,-19.6,-19.6,2.174,0.473,-1.075,-4.995
1237.0,-19.6,-19.6,2.174,0.473,-1.075,-4.995
1241.0,-19.6,-19.6,2.622,0.473,-1.206,-4.995
1245.0,-19.6,-19.6,2.622,0.323,-1.206,-4.995
1249.0,-19.6,-19.6,2.622,0.323,-1.206,-4.995
1253.0,-19.6,-19.6,2.811,0.28,-1.333,-4.995
1257.0,-19.6,-19.6,2.811,0.28,-1.333,-4.995
1262.0,-19.6,-19.6,2.711,0.288,-1.385,-4.995
1266.0,-19.6,-19.6,2.711,0.288,-1.385,-4.995
1270.0,-19.6,-19.6,2.566,0.288,-1.385,-4.995
1274.0,-19.6,-19.6,2.566,0.307,-1.348,-4.995
1278.0,-19.6,-19.6,2.566,0.307,-1.348,-4.995
1282.0,-19.6,-19.6,2.627,0.33,-1.304,-4.995
1287.0,-19.6,-19.6,2.627,0.33,-1.304,-4.995
1291.0,-19.6,-19.6,2.579,0.392,-1.323,-4.995
1295.0,-19.6,-19.6,2.579,0.392,-1.323,-4.995
1299.0,-19.6,-19.6,2.579,0.392,-1.323,-4.995
1303.0,-19.6,-19.6,2.515,0.465,-1.404,-4.995
1307.0,-19.6,-19.6,2.515,0.465,-1.404,-4.995
1312.0,-19.6,-19.6,2.444,0.534,-1.506,-4.995
1316.0,-19.6,-19.6,2.444,0.534,-1.506,-4.995
1320.0,-19.6,-19.6,2.495,0.621,-1.602,-4.995
1324.0,-19.6,-19.6,2.495,0.621,-1.602,-4.995
1328.0,-19.6,-19.6,2.495,0.621,-1.602,-4.995
1332.0,-19.6,-19.6,2.682,0.705,-1.742,-4.995
1337.0,-19.6,-19.6,2.682,0.705,-1.742,-4.995
1341.0,-19.6,-19.6,2.51,0.745,-1.914,-4.995
1345.0,-19.6,-19.6,2.51,0.745,-1.914,-4.995
1349.0,-19.6,-19.6,2.52,0.745,-1.914,-4.995
1353.0,-19.6,-19.6,2.52,0.701,-2.054,-4.995
1357.0,-19.6,-19.6,2.52,0.701,-2.054,-4.995
1362.0,-19.6,-19.6,2.975,0.577,-2.114,-4.995
1366.0,-19.6,-19.6,2.975,0.577,-2.114,-4.995
1370.0,-19.6,-19.6,3.432,0.411,-2.108,-4.995
1374.0,-19.6,-19.6,3.432,0.411,-2.108,-4.995
1378.0,-19.6,-19.6,3.481,0.411,-2.108,-4.995
1382.0,-19.6,-19.6,3.481,0.272,-2.03,-4.995
1387.0,-19.6,-19.6,3.481,0.272,-2.03,-4.995
1391.0,-19.6,-19.551,3.191,0.164,-1.901,-4.995
1395.0,-19.6,-19.551,3.191,0.164,-1.901,-4.995
1399.0,-19.6,-18.371,2.84,0.097,-1.717,-4.995
1403.0,-19.6,-18.371,2.84,0.097,-1.717,-4.995
1407.0,-19.6,-18.371,2.84,0.097,-1.717,-4.995
1412.0,-19.6,-16.638,2.81,0.076,-1.498,-4.995
1416.0,-19.6,-16.638,2.81,0.076,-1.498,-4.995
1420.0,-19.6,-14.937,2.913,0.114,-1.274,-4.995
1424.0,-19.6,-14.937,2.913,0.114,-1.274,-4.995
1428.0,-19.6,-13.13,2.739,0.114,-1.274,-4.995
1432.0,-19.6,-13.13,2.739,0.231,-1.064,-4.995
1437.0,-19.6,-13.13,2.739,0.231,-1.064,-4.995
1441.0,-19.6,-10.982,2.11,0.423,-0.872,-4.995
1445.0,-19.6,-10.982,2.11,0.423,-0.872,-4.995
1449.0,-19.6,-8.54,1.238,0.669,-0.677,-4.995
1453.0,-19.6,-8.54,1.238,0.669,-0.677,-4.995
1457.0,-19.6,-8.54,0.495,0.669,-0.677,-4.995
1461.0,-19.6,-5.91,0.495,0.956,-0.465,-4.995
1465.0,-19.6,-5.91,0.495,0.956,-0.465,-4.995
1470.0,-19.6,-3.36,-0.023,1.269,-0.251,-4.993
1474.0,-19.6,-3.36,-0.023,1.269,-0.251,-4.993
1478.0,-19.6,-1.018,-0.415,1.584,-0.063,-4.689
1482.0,-19.6,-1.018,-0.415,1.584,-0.063,-4.689
1486.0,-19.6,-1.018,-0.415,1.584,-0.063,-4.689
1490.0,-19.6,1.002,-0.684,1.858,0.101,-3.789
1494.0,-19.6,1.002,-0.684,1.858,0.101,-3.789
1498.0,-19.6,2.723,-0.759,2.051,0.275,-2.805
