deltaTime,Acc_X,Acc_Y,Acc_Z,Gyro_X,Gyro_Y,Gyro_Z
0.0,-8.511,-4.817,1.778,-0.504,0.091,0.446
3.0,-8.511,-4.817,1.778,-0.517,0.107,0.446
6.0,-8.511,-4.817,1.778,-0.517,0.107,0.446
9.0,-8.511,-4.817,1.778,-0.517,0.107,0.446
12.0,-8.424,-4.868,1.841,-0.505,0.139,0.391
15.0,-8.424,-4.868,1.841,-0.505,0.139,0.391
18.0,-8.424,-4.868,1.841,-0.505,0.139,0.391
21.0,-8.508,-4.742,2.097,-0.494,0.188,0.334
24.0,-8.508,-4.742,2.097,-0.494,0.188,0.334
27.0,-8.508,-4.742,2.097,-0.494,0.188,0.334
29.0,-8.645,-4.362,2.281,-0.508,0.216,0.271
32.0,-8.645,-4.362,2.281,-0.508,0.216,0.271
36.0,-8.645,-4.362,2.281,-0.508,0.216,0.271
39.0,-8.9,-3.974,2.355,-0.508,0.222,0.192
43.0,-8.9,-3.974,2.355,-0.598,0.222,0.192
47.0,-8.9,-3.974,2.355,-0.598,0.222,0.192
50.0,-8.776,-3.826,2.412,-0.74,0.209,0.123
54.0,-8.776,-3.826,2.412,-0.74,0.209,0.123
58.0,-8.776,-3.826,2.412,-0.74,0.209,0.123
62.0,-8.43,-4.094,2.575,-0.876,0.207,0.083
65.0,-8.43,-4.094,2.575,-0.876,0.207,0.083
69.0,-8.264,-4.696,2.979,-0.943,0.241,0.063
73.0,-8.264,-4.696,2.979,-0.943,0.241,0.063
77.0,-8.264,-4.696,2.979,-0.943,0.241,0.063
80.0,-8.167,-5.39,3.583,-0.903,0.309,0.047
84.0,-8.167,-5.39,3.583,-0.903,0.309,0.047
88.0,-8.167,-5.39,4.373,-0.903,0.309,0.047
92.0,-8.458,-6.443,4.373,-0.749,0.4,0.021
95.0,-8.458,-6.443,4.373,-0.749,0.4,0.021
99.0,-8.541,-7.202,5.101,-0.424,0.438,-0.002
103.0,-8.541,-7.202,5.101,-0.424,0.438,-0.002
107.0,-8.541,-7.202,5.101,-0.424,0.438,-0.002
111.0,-9.048,-8.384,5.929,-0.003,0.437,-0.046
115.0,-9.048,-8.384,5.929,-0.003,0.437,-0.046
118.0,-9.155,-9.008,6.4,0.504,0.375,-0.124
122.0,-9.155,-9.008,6.4,0.504,0.375,-0.124
126.0,-9.155,-9.008,6.4,0.504,0.375,-0.124
130.0,-9.278,-8.594,6.721,0.935,0.289,-0.28
134.0,-9.278,-8.594,6.721,0.935,0.289,-0.28
138.0,-9.215,-7.329,7.074,0.935,0.289,-0.28
141.0,-9.215,-7.329,7.074,1.055,0.218,-0.53
145.0,-9.215,-7.329,7.074,1.055,0.218,-0.53
149.0,-9.584,-7.391,7.494,0.787,0.11,-0.855
153.0,-9.584,-7.391,7.494,0.787,0.11,-0.855
157.0,-9.584,-7.391,7.494,0.787,0.11,-0.855
160.0,-9.622,-8.508,7.829,0.349,-0.098,-1.225
164.0,-9.622,-8.508,7.829,0.349,-0.098,-1.225
168.0,-9.1,-9.91,8.366,-0.146,-0.334,-1.641
172.0,-9.1,-9.91,8.366,-0.146,-0.334,-1.641
176.0,-9.1,-9.91,8.366,-0.146,-0.334,-1.641
180.0,-8.427,-11.696,9.179,-0.701,-0.58,-2.083
184.0,-8.427,-11.696,9.179,-0.701,-0.58,-2.083
188.0,-8.209,-13.987,9.727,-1.291,-0.859,-2.608
192.0,-8.209,-13.987,9.727,-1.291,-0.859,-2.608
197.0,-8.209,-16.969,10.082,-1.291,-0.859,-2.608
201.0,-8.69,-16.969,10.082,-1.865,-1.175,-3.265
205.0,-8.69,-16.969,10.082,-1.865,-1.175,-3.265
209.0,-9.578,-19.516,10.358,-2.388,-1.496,-4.076
213.0,-9.578,-19.516,10.358,-2.388,-1.496,-4.076
217.0,-10.12,-19.6,9.812,-2.791,-1.786,-4.856
222.0,-10.12,-19.6,9.812,-2.791,-1.786,-4.856
226.0,-10.12,-19.6,9.812,-2.791,-1.786,-4.856
230.0,-9.621,-19.6,9.257,-2.984,-1.976,-4.995
234.0,-9.621,-19.6,9.257,-2.984,-1.976,-4.995
238.0,-8.669,-19.6,9.175,-2.914,-2.037,-4.995
242.0,-8.669,-19.6,9.175,-2.914,-2.037,-4.995
246.0,-8.096,-19.6,9.158,-2.914,-2.037,-4.995
250.0,-8.096,-19.6,9.158,-2.571,-2.016,-4.995
254.0,-8.096,-19.6,9.158,-2.571,-2.016,-4.995
258.0,-8.508,-19.6,8.586,-1.965,-1.954,-4.995
263.0,-8.508,-19.6,8.586,-1.965,-1.954,-4.995
267.0,-9.227,-19.6,7.391,-1.153,-1.873,-4.995
271.0,-9.227,-19.6,7.391,-1.153,-1.873,-4.995
275.0,-9.227,-19.6,7.391,-1.153,-1.873,-4.995
279.0,-9.918,-19.6,6.394,-0.258,-1.73,-4.995
283.0,-9.918,-19.6,6.394,-0.258,-1.73,-4.995
287.0,-10.733,-19.6,5.724,0.588,-1.584,-4.995
291.0,-10.733,-19.6,5.724,0.588,-1.584,-4.995
295.0,-10.733,-19.6,5.437,0.588,-1.584,-4.995
299.0,-11.901,-19.6,5.437,1.305,-1.494,-4.995
303.0,-11.901,-19.6,5.437,1.305,-1.494,-4.995
307.0,-12.723,-19.6,4.698,1.87,-1.472,-4.995
311.0,-12.723,-19.6,4.698,1.87,-1.472,-4.995
316.0,-13.114,-19.015,4.164,1.87,-1.507,-4.995
320.0,-13.114,-19.015,4.164,2.237,-1.507,-4.995
324.0,-13.114,-19.015,4.164,2.237,-1.507,-4.995
328.0,-12.756,-16.476,3.742,2.476,-1.593,-4.995
332.0,-12.756,-16.476,3.742,2.476,-1.593,-4.995
336.0,-12.474,-14.091,3.374,2.608,-1.701,-4.995
340.0,-12.474,-14.091,3.374,2.608,-1.701,-4.995
344.0,-12.474,-14.091,3.374,2.608,-1.701,-4.995
348.0,-12.271,-12.272,2.955,2.649,-1.822,-4.995
352.0,-12.271,-12.272,2.955,2.649,-1.822,-4.995
356.0,-11.886,-10.72,2.434,2.631,-1.932,-4.995
360.0,-11.886,-10.72,2.434,2.631,-1.932,-4.995
365.0,-11.168,-9.382,1.814,2.631,-1.932,-4.995
369.0,-11.168,-9.382,1.814,2.607,-2.008,-4.995
373.0,-11.168,-9.382,1.814,2.607,-2.008,-4.995
377.0,-10.685,-8.322,1.028,2.589,-2.023,-4.995
381.0,-10.685,-8.322,1.028,2.589,-2.023,-4.995
384.0,-10.799,-7.265,0.354,2.589,-2.023,-4.995
388.0,-10.799,-7.265,0.354,2.579,-1.966,-4.995
392.0,-10.799,-7.265,0.354,2.579,-1.966,-4.995
396.0,-11.212,-6.086,-0.262,2.581,-1.856,-4.995
401.0,-11.212,-6.086,-0.262,2.581,-1.856,-4.995
405.0,-11.862,-4.848,-0.903,2.583,-1.71,-4.995
409.0,-11.862,-4.848,-0.903,2.583,-1.71,-4.995
413.0,-11.862,-4.848,-0.903,2.583,-1.71,-4.995
417.0,-12.623,-3.372,-1.539,2.565,-1.531,-4.995
421.0,-12.623,-3.372,-1.539,2.565,-1.531,-4.995
425.0,-13.477,-1.682,-2.212,2.515,-1.323,-4.982
429.0,-13.477,-1.682,-2.212,2.515,-1.323,-4.982
433.0,-13.477,-1.682,-2.212,2.515,-1.323,-4.982
437.0,-14.597,-0.12,-2.871,2.436,-1.09,-4.583
441.0,-14.597,-0.12,-2.871,2.436,-1.09,-4.583
445.0,-15.632,1.266,-3.601,2.327,-0.868,-3.732
449.0,-15.632,1.266,-3.601,2.327,-0.868,-3.732
453.0,-16.316,2.636,-4.594,2.327,-0.868,-3.732
457.0,-16.316,2.636,-4.594,2.17,-0.695,-2.838
461.0,-16.316,2.636,-4.594,2.17,-0.695,-2.838
465.0,-16.544,3.831,-5.667,1.95,-0.501,-1.919
469.0,-16.544,3.831,-5.667,1.95,-0.501,-1.919
473.0,-16.35,4.732,-6.451,1.95,-0.501,-0.982
477.0,-16.35,4.732,-6.451,1.679,-0.22,-0.982
481.0,-16.35,4.732,-6.451,1.679,-0.22,-0.982
485.0,-15.98,5.535,-6.775,1.386,0.153,-0.052
489.0,-15.98,5.535,-6.775,1.386,0.153,-0.052
493.0,-15.552,6.323,-6.557,1.386,0.153,0.871
497.0,-15.552,6.323,-6.557,1.092,0.593,0.871
501.0,-15.552,6.323,-6.557,1.092,0.593,0.871
505.0,-14.636,6.925,-5.985,0.798,1.039,1.809
508.0,-14.636,6.925,-5.985,0.798,1.039,1.809
512.0,-14.636,6.925,-5.234,0.798,1.039,1.809
516.0,-13.74,7.164,-5.234,0.501,1.469,2.777
520.0,-13.74,7.164,-5.234,0.501,1.469,2.777
524.0,-13.079,6.913,-4.367,0.206,1.892,3.777
528.0,-13.079,6.913,-4.367,0.206,1.892,3.777
531.0,-13.079,6.913,-4.367,0.206,1.892,3.777
535.0,-12.545,6.156,-3.548,-0.072,2.318,4.714
539.0,-12.545,6.156,-3.548,-0.072,2.318,4.714
543.0,-12.232,5.053,-2.817,-0.316,2.759,5.012
547.0,-12.232,5.053,-2.817,-0.316,2.759,5.012
551.0,-12.232,5.053,-2.817,-0.316,2.759,5.012
555.0,-12.321,3.751,-2.09,-0.52,3.214,5.013
559.0,-12.321,3.751,-2.09,-0.52,3.214,5.013
563.0,-12.842,2.304,-1.278,-0.676,3.679,5.013
566.0,-12.842,2.304,-1.278,-0.676,3.679,5.013
570.0,-12.842,2.304,-1.278,-0.676,3.679,5.013
574.0,-13.686,0.776,-0.502,-0.759,4.128,5.013
578.0,-13.686,0.776,-0.502,-0.759,4.128,5.013
582.0,-14.669,-0.544,0.31,-0.759,4.559,5.013
586.0,-14.669,-0.544,0.31,-0.775,4.559,5.013
590.0,-14.669,-0.544,0.31,-0.775,4.559,5.013
594.0,-16.094,-1.769,1.209,-0.745,4.92,5.013
598.0,-16.094,-1.769,1.209,-0.745,4.92,5.013
602.0,-18.084,-3.263,2.506,-0.745,4.92,5.013
605.0,-18.084,-3.263,2.506,-0.685,5.015,5.013
609.0,-18.084,-3.263,2.506,-0.685,5.015,5.013
613.0,-19.567,-5.389,4.143,-0.635,5.015,5.013
617.0,-19.567,-5.389,4.143,-0.635,5.015,5.013
621.0,-19.6,-7.4,5.442,-0.635,5.015,5.013
625.0,-19.6,-7.4,5.442,-0.613,5.015,5.013
629.0,-19.6,-7.4,5.442,-0.613,5.015,5.013
633.0,-19.6,-9.438,5.901,-0.58,5.015,5.013
637.0,-19.6,-9.438,5.901,-0.58,5.015,5.013
641.0,-19.6,-9.438,5.734,-0.58,5.015,5.013
645.0,-19.6,-11.582,5.734,-0.51,5.015,5.013
649.0,-19.6,-11.582,5.734,-0.51,5.015,5.013
653.0,-19.6,-13.73,5.977,-0.362,5.015,5.013
657.0,-19.6,-13.73,5.977,-0.362,5.015,5.013
661.0,-19.6,-15.442,6.895,-0.362,5.015,5.013
665.0,-19.6,-15.442,6.895,-0.118,5.015,5.013
669.0,-19.6,-15.442,6.895,-0.118,5.015,5.013
673.0,-19.6,-16.177,7.937,0.177,5.015,5.013
676.0,-19.6,-16.177,7.937,0.177,5.015,5.013
680.0,-19.6,-16.024,9.314,0.177,5.015,5.013
684.0,-19.6,-16.024,9.314,0.425,5.015,5.013
688.0,-19.6,-16.024,9.314,0.425,5.015,5.013
692.0,-19.6,-15.432,10.564,0.553,5.015,5.013
696.0,-19.6,-15.432,10.564,0.553,5.015,5.013
700.0,-19.6,-14.599,11.484,0.553,5.015,5.013
704.0,-19.6,-14.599,11.484,0.592,5.015,5.013
708.0,-19.6,-14.599,11.484,0.592,5.015,5.013
712.0,-19.6,-13.89,12.185,0.613,5.015,5.013
716.0,-19.6,-13.89,12.185,0.613,5.015,5.013
720.0,-19.6,-13.618,12.661,0.613,5.015,5.013
724.0,-19.6,-13.618,12.661,0.673,5.015,5.013
728.0,-19.6,-13.618,12.661,0.673,5.015,5.013
732.0,-19.6,-13.39,12.557,0.774,4.985,5.013
736.0,-19.6,-13.39,12.557,0.774,4.985,5.013
740.0,-19.6,-12.254,11.698,0.774,4.985,5.013
744.0,-19.6,-12.254,11.698,0.901,4.674,5.013
748.0,-19.6,-12.254,11.698,0.901,4.674,5.013
752.0,-19.6,-10.466,10.78,0.988,4.208,5.013
756.0,-19.6,-10.466,10.78,0.988,4.208,5.013
760.0,-19.6,-8.855,10.235,0.937,3.768,5.013
764.0,-19.6,-8.855,10.235,0.937,3.768,5.013
768.0,-19.6,-8.855,10.235,0.937,3.768,5.013
772.0,-19.6,-7.708,9.765,0.688,3.373,5.005
775.0,-19.6,-7.708,9.765,0.688,3.373,5.005
779.0,-19.6,-7.372,9.703,0.688,3.373,5.005
783.0,-19.6,-7.372,9.703,0.224,3.025,4.75
787.0,-19.6,-7.372,9.703,0.224,3.025,4.75
791.0,-19.564,-7.914,10.052,-0.373,2.683,4.241
795.0,-19.564,-7.914,10.052,-0.373,2.683,4.241
799.0,-19.564,-8.734,10.287,-0.373,2.683,4.241
803.0,-17.531,-8.734,10.287,-0.964,2.337,3.738
807.0,-17.531,-8.734,10.287,-0.964,2.337,3.738
811.0,-14.257,-9.625,10.174,-1.454,2.014,3.256
815.0,-14.257,-9.625,10.174,-1.454,2.014,3.256
819.0,-11.175,-10.585,10.156,-1.454,2.014,3.256
823.0,-11.175,-10.585,10.156,-1.812,1.73,2.838
827.0,-11.175,-10.585,10.156,-1.812,1.73,2.838
831.0,-8.279,-11.304,10.234,-2.061,1.467,2.5
835.0,-8.279,-11.304,10.234,-2.061,1.467,2.5
839.0,-5.59,-12.037,10.018,-2.238,1.191,2.24
843.0,-5.59,-12.037,10.018,-2.238,1.191,2.24
847.0,-5.59,-12.037,10.018,-2.238,1.191,2.24
851.0,-3.277,-12.977,9.629,-2.363,0.922,1.997
855.0,-3.277,-12.977,9.629,-2.363,0.922,1.997
859.0,-1.586,-14.017,9.24,-2.425,0.679,1.702
863.0,-1.586,-14.017,9.24,-2.425,0.679,1.702
867.0,-1.586,-14.017,9.24,-2.425,0.679,1.702
870.0,-0.585,-14.924,8.76,-2.417,0.461,1.325
874.0,-0.585,-14.924,8.76,-2.417,0.461,1.325
878.0,-0.232,-15.72,8.265,-2.417,0.284,0.893
882.0,-0.232,-15.72,8.265,-2.33,0.284,0.893
886.0,-0.232,-15.72,8.265,-2.33,0.284,0.893
890.0,-0.446,-16.498,7.859,-2.146,0.152,0.427
894.0,-0.446,-16.498,7.859,-2.146,0.152,0.427
898.0,-0.951,-17.067,7.534,-2.146,0.152,-0.072
902.0,-0.951,-17.067,7.534,-1.865,0.041,-0.072
906.0,-0.951,-17.067,7.534,-1.865,0.041,-0.072
910.0,-1.667,-17.285,7.314,-1.519,-0.075,-0.598
914.0,-1.667,-17.285,7.314,-1.519,-0.075,-0.598
918.0,-2.401,-17.09,6.966,-1.142,-0.216,-1.149
922.0,-2.401,-17.09,6.966,-1.142,-0.216,-1.149
926.0,-2.401,-17.09,6.966,-1.142,-0.216,-1.149
930.0,-3.111,-16.592,6.407,-0.772,-0.367,-1.735
934.0,-3.111,-16.592,6.407,-0.772,-0.367,-1.735
938.0,-3.86,-16.04,5.815,-0.442,-0.497,-2.34
942.0,-3.86,-16.04,5.815,-0.442,-0.497,-2.34
946.0,-3.86,-16.04,5.815,-0.442,-0.497,-2.34
951.0,-4.816,-15.635,5.328,-0.167,-0.591,-2.933
955.0,-4.816,-15.635,5.328,-0.167,-0.591,-2.933
959.0,-6.025,-15.367,5.01,0.051,-0.666,-3.505
963.0,-6.025,-15.367,5.01,0.051,-0.666,-3.505
967.0,-7.308,-15.194,4.808,0.051,-0.666,-3.505
971.0,-7.308,-15.194,4.808,0.202,-0.748,-4.052
975.0,-7.308,-15.194,4.808,0.202,-0.748,-4.052
979.0,-8.646,-15.144,4.692,0.274,-0.84,-4.575
983.0,-8.646,-15.144,4.692,0.274,-0.84,-4.575
987.0,-10.137,-15.257,4.764,0.274,-0.84,-4.949
991.0,-10.137,-15.257,4.764,0.266,-0.951,-4.949
995.0,-10.137,-15.257,4.764,0.266,-0.951,-4.949
999.0,-11.751,-15.424,4.987,0.181,-1.086,-4.995
1003.0,-11.751,-15.424,4.987,0.181,-1.086,-4.995
1007.0,-13.566,-15.596,4.996,0.032,-1.247,-4.995
1011.0,-13.566,-15.596,4.996,0.032,-1.247,-4.995
1015.0,-13.566,-15.596,4.996,0.032,-1.247,-4.995
1020.0,-15.598,-15.966,4.893,-0.168,-1.387,-4.995
1024.0,-15.598,-15.966,4.893,-0.168,-1.387,-4.995
1028.0,-17.808,-16.796,5.021,-0.392,-1.467,-4.995
1032.0,-17.808,-16.796,5.021,-0.392,-1.467,-4.995
1037.0,-19.489,-18.686,5.558,-0.616,-1.505,-4.995
1041.0,-19.489,-18.686,5.558,-0.616,-1.505,-4.995
1045.0,-19.489,-18.686,5.558,-0.616,-1.505,-4.995
1049.0,-19.6,-19.6,5.936,-0.826,-1.531,-4.995
1054.0,-19.6,-19.6,5.936,-0.826,-1.531,-4.995
1058.0,-19.6,-19.6,6.122,-1.004,-1.53,-4.995
1062.0,-19.6,-19.6,6.122,-1.004,-1.53,-4.995
1066.0,-19.6,-19.6,6.226,-1.133,-1.477,-4.995
1071.0,-19.6,-19.6,6.226,-1.133,-1.477,-4.995
1075.0,-19.6,-19.6,6.207,-1.133,-1.477,-4.995
1079.0,-19.6,-19.6,6.207,-1.158,-1.38,-4.995
1083.0,-19.6,-19.6,6.207,-1.158,-1.38,-4.995
1088.0,-19.6,-19.6,6.115,-1.035,-1.237,-4.995
1092.0,-19.6,-19.6,6.115,-1.035,-1.237,-4.995
1096.0,-19.6,-19.6,6.07,-0.759,-1.089,-4.995
1100.0,-19.6,-19.6,6.07,-0.759,-1.089,-4.995
1105.0,-19.6,-19.6,6.208,-0.759,-1.089,-4.995
1109.0,-19.6,-19.6,6.208,-0.319,-0.972,-4.995
1113.0,-19.6,-19.6,6.208,-0.319,-0.972,-4.995
1117.0,-19.6,-19.6,6.459,0.26,-0.92,-4.995
1122.0,-19.6,-19.6,6.459,0.26,-0.92,-4.995
1126.0,-19.6,-19.6,6.625,0.93,-0.943,-4.995
1130.0,-19.6,-19.6,6.625,0.93,-0.943,-4.995
1134.0,-19.6,-19.6,6.771,0.93,-0.943,-4.995
1138.0,-19.6,-19.6,6.771,1.645,-1.066,-4.995
1142.0,-19.6,-19.6,6.771,1.645,-1.066,-4.995
1147.0,-19.6,-19.6,6.757,2.357,-1.277,-4.995
1151.0,-19.6,-19.6,6.757,2.357,-1.277,-4.995
1155.0,-19.6,-19.6,6.559,2.993,-1.584,-4.995
1159.0,-19.6,-19.6,6.559,2.993,-1.584,-4.995
1163.0,-19.6,-19.6,6.559,2.993,-1.584,-4.995
1167.0,-19.6,-19.6,6.21,3.465,-1.943,-4.995
1172.0,-19.6,-19.6,6.21,3.465,-1.943,-4.995
1176.0,-19.6,-19.6,5.871,3.729,-2.301,-4.995
1180.0,-19.6,-19.6,5.871,3.729,-2.301,-4.995
1184.0,-19.6,-19.194,5.704,3.729,-2.301,-4.995
1188.0,-19.6,-19.194,5.704,3.729,-2.629,-4.995
1192.0,-19.6,-19.194,5.704,3.729,-2.629,-4.995
1197.0,-19.6,-16.612,5.343,3.454,-2.888,-4.995
1201.0,-19.6,-16.612,5.343,3.454,-2.888,-4.995
1205.0,-19.6,-13.513,4.928,2.98,-3.062,-4.995
1209.0,-19.6,-13.513,4.928,2.98,-3.062,-4.995
1213.0,-19.6,-10.311,4.345,2.98,-3.062,-4.995
1217.0,-19.6,-10.311,4.345,2.405,-3.159,-4.995
1222.0,-19.6,-10.311,4.345,2.405,-3.159,-4.995
1226.0,-19.6,-7.269,3.428,1.838,-3.195,-4.995
1230.0,-19.6,-7.269,3.428,1.838,-3.195,-4.995
1234.0,-19.6,-4.405,2.124,1.368,-3.199,-4.995
1238.0,-19.6,-4.405,2.124,1.368,-3.199,-4.995
1242.0,-19.6,-4.405,2.124,1.368,-3.199,-4.995
1246.0,-19.18,-1.917,0.517,1.025,-3.154,-4.995
1250.0,-19.18,-1.917,0.517,1.025,-3.154,-4.995
1254.0,-17.805,-0.084,-1.08,0.786,-3.027,-4.995
1259.0,-17.805,-0.084,-1.08,0.786,-3.027,-4.995
1263.0,-17.805,1.53,-2.603,0.786,-3.027,-4.995
1267.0,-17.021,1.53,-2.603,0.636,-2.817,-4.995
1271.0,-17.021,1.53,-2.603,0.636,-2.817,-4.995
1275.0,-16.599,2.791,-3.901,0.58,-2.508,-4.904
1279.0,-16.599,2.791,-3.901,0.58,-2.508,-4.904
1283.0,-16.085,3.443,-4.496,0.623,-2.072,-4.198
1287.0,-16.085,3.443,-4.496,0.623,-2.072,-4.198
1291.0,-16.085,3.443,-4.496,0.623,-2.072,-4.198
1295.0,-16.25,3.911,-4.56,0.761,-1.543,-3.266
1299.0,-16.25,3.911,-4.56,0.761,-1.543,-3.266
1303.0,-16.479,4.713,-4.399,0.972,-0.968,-2.366
1308.0,-16.479,4.713,-4.399,0.972,-0.968,-2.366
1312.0,-16.479,4.713,-4.399,0.972,-0.968,-2.366
1316.0,-16.204,5.874,-4.28,1.216,-0.365,-1.476
1320.0,-16.204,5.874,-4.28,1.216,-0.365,-1.476
1324.0,-15.572,7.121,-4.124,1.447,0.268,-0.568
1328.0,-15.572,7.121,-4.124,1.447,0.268,-0.568
1332.0,-14.803,8.239,-3.817,1.447,0.268,-0.568
1336.0,-14.803,8.239,-3.817,1.629,0.903,0.352
1340.0,-14.803,8.239,-3.817,1.629,0.903,0.352
1344.0,-14.033,8.977,-3.305,1.724,1.496,1.284
1348.0,-14.033,8.977,-3.305,1.724,1.496,1.284
1351.0,-14.033,9.13,-2.663,1.724,1.496,1.284
1355.0,-13.54,9.13,-2.663,1.701,2.02,2.231
1359.0,-13.54,9.13,-2.663,1.701,2.02,2.231
1363.0,-13.681,8.636,-2.137,1.567,2.478,3.176
1367.0,-13.681,8.636,-2.137,1.567,2.478,3.176
1371.0,-13.681,8.636,-1.753,1.567,2.478,3.176
1375.0,-14.072,7.58,-1.753,1.341,2.891,4.117
1379.0,-14.072,7.58,-1.753,1.341,2.891,4.117
1383.0,-14.594,6.258,-1.452,1.062,3.279,4.872
1387.0,-14.594,6.258,-1.452,1.062,3.279,4.872
1391.0,-14.594,6.258,-1.452,1.062,3.279,4.872
1394.0,-15.064,4.933,-1.171,0.771,3.647,5.013
1398.0,-15.064,4.933,-1.171,0.771,3.647,5.013
1402.0,-15.61,3.767,-0.957,0.477,4.002,5.013
1406.0,-15.61,3.767,-0.957,0.477,4.002,5.013
1410.0,-15.61,3.767,-0.957,0.477,4.002,5.013
1414.0,-16.561,2.78,-0.565,0.176,4.361,5.013
1418.0,-16.561,2.78,-0.565,0.176,4.361,5.013
1422.0,-17.781,1.777,0.058,-0.125,4.699,5.013
1426.0,-17.781,1.777,0.058,-0.125,4.699,5.013
1430.0,-17.781,1.777,0.058,-0.125,4.699,5.013
1434.0,-19.174,0.389,0.962,-0.425,4.959,5.013
1437.0,-19.174,0.389,0.962,-0.425,4.959,5.013
1441.0,-19.6,-1.577,2.016,-0.738,5.015,5.013
1445.0,-19.6,-1.577,2.016,-0.738,5.015,5.013
1449.0,-19.6,-1.577,2.016,-0.738,5.015,5.013
1453.0,-19.6,-3.708,3.098,-1.068,5.015,5.013
1457.0,-19.6,-3.708,3.098,-1.068,5.015,5.013
1461.0,-19.6,-6.214,4.347,-1.387,5.015,5.013
1465.0,-19.6,-6.214,4.347,-1.387,5.015,5.013
1469.0,-19.6,-6.214,4.347,-1.387,5.015,5.013
1473.0,-19.6,-9.465,5.813,-1.651,5.015,5.013
1477.0,-19.6,-9.465,5.813,-1.651,5.015,5.013
1481.0,-19.6,-12.526,6.87,-1.787,5.015,5.013
1485.0,-19.6,-12.526,6.87,-1.787,5.015,5.013
1489.0,-19.6,-12.526,7.821,-1.787,5.015,5.013
1494.0,-19.6,-15.577,7.821,-1.735,5.015,5.013
1498.0,-19.6,-15.577,7.821,-1.735,5.015,5.013
1502.0,-19.6,-18.631,8.518,-1.499,5.011,5.013
1506.0,-19.6,-18.631,8.518,-1.499,5.011,5.013
