deltaTime,Acc_X,Acc_Y,Acc_Z,Gyro_X,Gyro_Y,Gyro_Z
0.0,-9.144,-3.051,1.634,0.049,0.016,-0.175
3.0,-9.144,-3.051,1.634,0.049,0.016,-0.175
6.0,-9.19,-3.075,1.74,-0.063,0.022,-0.24
9.0,-9.19,-3.075,1.74,-0.063,0.022,-0.24
12.0,-9.19,-3.075,1.74,-0.063,0.022,-0.24
15.0,-9.188,-2.993,1.954,-0.174,0.026,-0.288
18.0,-9.188,-2.993,1.954,-0.174,0.026,-0.288
21.0,-9.188,-2.993,1.954,-0.174,0.026,-0.288
24.0,-8.849,-3.095,2.239,-0.174,0.026,-0.288
27.0,-8.849,-3.095,2.239,-0.299,0.036,-0.32
30.0,-8.849,-3.095,2.239,-0.299,0.036,-0.32
33.0,-8.849,-3.095,2.239,-0.299,0.036,-0.32
37.0,-8.789,-3.372,2.599,-0.412,0.048,-0.35
41.0,-8.789,-3.372,2.599,-0.412,0.048,-0.35
44.0,-9.017,-3.668,3.048,-0.505,0.056,-0.385
48.0,-9.017,-3.668,3.048,-0.505,0.056,-0.385
52.0,-9.017,-3.668,3.048,-0.505,0.056,-0.385
56.0,-9.22,-4.095,3.571,-0.573,0.046,-0.423
60.0,-9.22,-4.095,3.571,-0.573,0.046,-0.423
64.0,-9.486,-4.822,4.222,-0.573,0.046,-0.469
67.0,-9.486,-4.822,4.222,-0.581,0.01,-0.469
71.0,-9.486,-4.822,4.222,-0.581,0.01,-0.469
75.0,-9.745,-5.754,5.04,-0.496,-0.041,-0.527
79.0,-9.745,-5.754,5.04,-0.496,-0.041,-0.527
83.0,-9.745,-5.754,5.84,-0.496,-0.041,-0.527
87.0,-9.99,-6.943,5.84,-0.289,-0.082,-0.603
91.0,-9.99,-6.943,5.84,-0.289,-0.082,-0.603
95.0,-10.285,-8.076,6.628,0.099,-0.162,-0.698
98.0,-10.285,-8.076,6.628,0.099,-0.162,-0.698
102.0,-10.285,-8.076,6.628,0.099,-0.162,-0.698
106.0,-10.489,-9.849,7.436,0.642,-0.272,-0.792
110.0,-10.489,-9.849,7.436,0.642,-0.272,-0.792
114.0,-10.445,-9.916,7.892,1.34,-0.427,-0.894
118.0,-10.445,-9.916,7.892,1.34,-0.427,-0.894
122.0,-10.445,-9.916,8.404,1.34,-0.427,-0.894
126.0,-10.689,-8.31,8.404,1.81,-0.557,-1.098
130.0,-10.689,-8.31,8.404,1.81,-0.557,-1.098
134.0,-10.874,-6.422,9.072,1.763,-0.718,-1.409
138.0,-10.874,-6.422,9.072,1.763,-0.718,-1.409
142.0,-11.54,-5.565,9.583,1.763,-0.718,-1.409
146.0,-11.54,-5.565,9.583,1.254,-0.993,-1.786
150.0,-11.54,-5.565,9.583,1.254,-0.993,-1.786
154.0,-11.785,-5.968,9.692,0.527,-1.371,-2.16
158.0,-11.785,-5.968,9.692,0.527,-1.371,-2.16
162.0,-11.302,-7.133,9.391,0.527,-1.371,-2.528
166.0,-11.302,-7.133,9.391,-0.246,-1.756,-2.528
170.0,-11.302,-7.133,9.391,-0.246,-1.756,-2.528
174.0,-10.387,-9.059,9.048,-1.025,-2.082,-2.957
178.0,-10.387,-9.059,9.048,-1.025,-2.082,-2.957
183.0,-9.826,-11.7,9.087,-1.791,-2.334,-3.498
187.0,-9.826,-11.7,9.087,-1.791,-2.334,-3.498
191.0,-9.826,-11.7,9.087,-1.791,-2.334,-3.498
195.0,-10.04,-15.019,9.431,-2.504,-2.551,-4.151
199.0,-10.04,-15.019,9.431,-2.504,-2.551,-4.151
203.0,-10.711,-18.418,9.699,-3.111,-2.772,-4.813
207.0,-10.711,-18.418,9.699,-3.111,-2.772,-4.813
211.0,-11.221,-19.6,9.738,-3.111,-2.772,-4.813
216.0,-11.221,-19.6,9.738,-3.564,-2.988,-4.995
220.0,-11.221,-19.6,9.738,-3.564,-2.988,-4.995
224.0,-11.428,-19.6,9.617,-3.819,-3.177,-4.995
228.0,-11.428,-19.6,9.617,-3.819,-3.177,-4.995
232.0,-10.969,-19.6,9.036,-3.817,-3.304,-4.995
236.0,-10.969,-19.6,9.036,-3.817,-3.304,-4.995
241.0,-10.969,-19.6,8.14,-3.817,-3.304,-4.995
245.0,-9.752,-19.6,8.14,-3.544,-3.323,-4.995
249.0,-9.752,-19.6,8.14,-3.544,-3.323,-4.995
253.0,-8.509,-19.6,6.966,-3.068,-3.222,-4.995
257.0,-8.509,-19.6,6.966,-3.068,-3.222,-4.995
261.0,-7.857,-19.6,5.935,-3.068,-2.996,-4.995
265.0,-7.857,-19.6,5.935,-2.454,-2.996,-4.995
269.0,-7.857,-19.6,5.935,-2.454,-2.996,-4.995
273.0,-7.601,-19.6,5.221,-1.78,-2.683,-4.995
277.0,-7.601,-19.6,5.221,-1.78,-2.683,-4.995
282.0,-7.99,-19.6,4.697,-1.1,-2.336,-4.995
286.0,-7.99,-19.6,4.697,-1.1,-2.336,-4.995
290.0,-7.99,-19.6,4.697,-1.1,-2.336,-4.995
294.0,-8.879,-19.6,4.119,-0.438,-2.012,-4.995
298.0,-8.879,-19.6,4.119,-0.438,-2.012,-4.995
302.0,-9.419,-18.971,3.728,0.162,-1.737,-4.995
306.0,-9.419,-18.971,3.728,0.162,-1.737,-4.995
310.0,-9.419,-17.443,3.342,0.162,-1.737,-4.995
314.0,-9.875,-17.443,3.342,0.724,-1.505,-4.995
318.0,-9.875,-17.443,3.342,0.724,-1.505,-4.995
322.0,-10.301,-15.763,2.993,1.264,-1.312,-4.995
326.0,-10.301,-15.763,2.993,1.264,-1.312,-4.995
330.0,-10.679,-14.019,2.727,1.264,-1.312,-4.995
334.0,-10.679,-14.019,2.727,1.75,-1.168,-4.995
338.0,-10.679,-14.019,2.727,1.75,-1.168,-4.995
342.0,-10.909,-12.311,2.545,2.149,-1.084,-4.995
346.0,-10.909,-12.311,2.545,2.149,-1.084,-4.995
350.0,-10.786,-10.677,2.362,2.471,-1.048,-4.995
355.0,-10.786,-10.677,2.362,2.471,-1.048,-4.995
359.0,-10.786,-10.677,2.362,2.471,-1.048,-4.995
363.0,-10.706,-9.202,2.219,2.724,-1.037,-4.995
367.0,-10.706,-9.202,2.219,2.724,-1.037,-4.995
371.0,-10.755,-7.732,1.96,2.913,-1.042,-4.995
375.0,-10.755,-7.732,1.96,2.913,-1.042,-4.995
379.0,-10.755,-7.732,1.96,2.913,-1.042,-4.995
383.0,-11.008,-6.219,1.446,3.03,-1.047,-4.995
387.0,-11.008,-6.219,1.446,3.03,-1.047,-4.995
391.0,-11.455,-4.64,0.739,3.073,-1.033,-4.995
395.0,-11.455,-4.64,0.739,3.073,-1.033,-4.995
399.0,-11.455,-4.64,-0.117,3.073,-1.033,-4.995
403.0,-12.023,-3.074,-0.117,3.049,-0.989,-4.995
407.0,-12.023,-3.074,-0.117,3.049,-0.989,-4.995
411.0,-12.532,-1.628,-1.003,2.972,-0.912,-4.973
415.0,-12.532,-1.628,-1.003,2.972,-0.912,-4.973
419.0,-13.047,-0.123,-1.649,2.972,-0.912,-4.607
423.0,-13.047,-0.123,-1.649,2.855,-0.806,-4.607
427.0,-13.047,-0.123,-1.649,2.855,-0.806,-4.607
431.0,-13.512,1.487,-2.207,2.7,-0.71,-3.963
435.0,-13.512,1.487,-2.207,2.7,-0.71,-3.963
439.0,-13.735,2.98,-2.798,2.487,-0.636,-3.277
443.0,-13.735,2.98,-2.798,2.487,-0.636,-3.277
447.0,-13.735,2.98,-2.798,2.487,-0.636,-3.277
451.0,-13.724,4.214,-3.47,2.187,-0.562,-2.545
455.0,-13.724,4.214,-3.47,2.187,-0.562,-2.545
459.0,-13.522,5.084,-4.083,1.807,-0.453,-1.798
463.0,-13.522,5.084,-4.083,1.807,-0.453,-1.798
467.0,-13.522,5.084,-4.083,1.807,-0.453,-1.798
471.0,-13.173,5.628,-4.452,1.374,-0.272,-1.07
475.0,-13.173,5.628,-4.452,1.374,-0.272,-1.07
479.0,-12.857,5.887,-4.528,0.921,-0.015,-0.358
483.0,-12.857,5.887,-4.528,0.921,-0.015,-0.358
487.0,-12.857,5.887,-4.528,0.921,-0.015,-0.358
491.0,-12.474,5.906,-4.29,0.487,0.296,0.364
495.0,-12.474,5.906,-4.29,0.487,0.296,0.364
499.0,-12.208,5.634,-3.822,0.1,0.65,1.106
503.0,-12.208,5.634,-3.822,0.1,0.65,1.106
506.0,-12.208,5.634,-3.822,0.1,0.65,1.106
510.0,-12.309,5.121,-3.329,-0.225,1.038,1.869
514.0,-12.309,5.121,-3.329,-0.225,1.038,1.869
518.0,-12.468,4.455,-2.764,-0.492,1.452,2.65
522.0,-12.468,4.455,-2.764,-0.492,1.452,2.65
526.0,-12.468,4.455,-2.764,-0.492,1.452,2.65
530.0,-12.692,3.699,-2.097,-0.717,1.879,3.462
534.0,-12.692,3.699,-2.097,-0.717,1.879,3.462
538.0,-12.934,2.89,-1.379,-0.717,2.302,4.321
541.0,-12.934,2.89,-1.379,-0.917,2.302,4.321
545.0,-12.934,2.89,-1.379,-0.917,2.302,4.321
549.0,-13.027,1.98,-0.635,-1.099,2.704,4.944
553.0,-13.027,1.98,-0.635,-1.099,2.704,4.944
557.0,-12.924,0.954,0.116,-1.099,2.704,5.013
561.0,-12.924,0.954,0.116,-1.274,3.064,5.013
565.0,-12.924,0.954,0.116,-1.274,3.064,5.013
569.0,-12.732,-0.228,0.776,-1.452,3.38,5.013
572.0,-12.732,-0.228,0.776,-1.452,3.38,5.013
576.0,-12.732,-0.228,1.33,-1.452,3.38,5.013
580.0,-12.465,-1.601,1.33,-1.639,3.663,5.013
584.0,-12.465,-1.601,1.33,-1.639,3.663,5.013
588.0,-12.403,-3.404,1.868,-1.839,3.927,5.013
592.0,-12.403,-3.404,1.868,-1.839,3.927,5.013
596.0,-12.403,-3.404,1.868,-1.839,3.927,5.013
600.0,-13.013,-5.52,2.447,-2.044,4.172,5.013
604.0,-13.013,-5.52,2.447,-2.044,4.172,5.013
608.0,-14.3,-7.695,3.325,-2.245,4.376,5.013
612.0,-14.3,-7.695,3.325,-2.245,4.376,5.013
615.0,-14.3,-7.695,3.325,-2.245,4.376,5.013
619.0,-16.376,-9.581,4.293,-2.43,4.51,5.013
623.0,-16.376,-9.581,4.293,-2.43,4.51,5.013
627.0,-18.855,-11.768,5.157,-2.579,4.556,5.013
631.0,-18.855,-11.768,5.157,-2.579,4.556,5.013
635.0,-18.855,-11.768,5.157,-2.579,4.556,5.013
639.0,-19.6,-14.361,6.108,-2.661,4.551,5.013
643.0,-19.6,-14.361,6.108,-2.661,4.551,5.013
647.0,-19.6,-16.333,7.125,-2.605,4.545,5.013
651.0,-19.6,-16.333,7.125,-2.605,4.545,5.013
655.0,-19.6,-16.333,7.125,-2.605,4.545,5.013
659.0,-19.6,-17.953,8.365,-2.33,4.531,5.013
663.0,-19.6,-17.953,8.365,-2.33,4.531,5.013
667.0,-19.6,-19.167,9.288,-1.839,4.493,5.013
671.0,-19.6,-19.167,9.288,-1.839,4.493,5.013
675.0,-19.6,-19.167,10.485,-1.839,4.493,5.013
679.0,-19.6,-19.459,10.485,-1.191,4.458,5.013
683.0,-19.6,-19.459,10.485,-1.191,4.458,5.013
687.0,-19.6,-18.649,11.463,-0.473,4.444,5.013
691.0,-19.6,-18.649,11.463,-0.473,4.444,5.013
695.0,-19.6,-18.582,12.775,-0.473,4.415,5.013
700.0,-19.6,-18.582,12.775,0.216,4.415,5.013
704.0,-19.6,-18.582,12.775,0.216,4.415,5.013
708.0,-19.6,-18.301,13.403,0.819,4.377,5.013
712.0,-19.6,-18.301,13.403,0.819,4.377,5.013
716.0,-19.6,-17.885,13.673,1.319,4.32,5.013
720.0,-19.6,-17.885,13.673,1.319,4.32,5.013
724.0,-19.6,-17.885,13.673,1.319,4.32,5.013
728.0,-19.6,-17.376,13.972,1.771,4.149,5.013
731.0,-19.6,-17.376,13.972,1.771,4.149,5.013
735.0,-19.6,-16.801,14.045,2.23,3.791,5.013
739.0,-19.6,-16.801,14.045,2.23,3.791,5.013
743.0,-19.6,-16.801,14.045,2.23,3.791,5.013
747.0,-19.6,-16.064,13.261,2.653,3.285,5.013
751.0,-19.6,-16.064,13.261,2.653,3.285,5.013
755.0,-19.6,-14.916,11.013,2.948,2.738,5.013
759.0,-19.6,-14.916,11.013,2.948,2.738,5.013
763.0,-19.6,-14.916,11.013,2.948,2.738,5.013
767.0,-19.6,-12.881,8.399,2.983,2.268,5.013
771.0,-19.6,-12.881,8.399,2.983,2.268,5.013
775.0,-19.6,-10.297,6.628,2.657,1.941,5.013
779.0,-19.6,-10.297,6.628,2.657,1.941,5.013
783.0,-19.6,-10.297,6.628,2.657,1.941,5.013
787.0,-19.465,-7.567,5.806,2.002,1.741,4.905
791.0,-19.465,-7.567,5.806,2.002,1.741,4.905
795.0,-17.085,-5.206,5.58,1.171,1.643,4.069
798.0,-17.085,-5.206,5.58,1.171,1.643,4.069
802.0,-17.085,-5.206,5.58,1.171,1.643,4.069
806.0,-14.389,-4.311,6.109,0.304,1.574,3.129
810.0,-14.389,-4.311,6.109,0.304,1.574,3.129
814.0,-12.169,-4.899,7.253,0.304,1.574,2.45
818.0,-12.169,-4.899,7.253,-0.477,1.46,2.45
821.0,-12.169,-4.899,7.253,-0.477,1.46,2.45
825.0,-10.089,-6.814,8.396,-1.09,1.253,1.956
829.0,-10.089,-6.814,8.396,-1.09,1.253,1.956
833.0,-10.089,-9.537,8.755,-1.09,1.253,1.956
837.0,-7.68,-9.537,8.755,-1.578,0.961,1.532
841.0,-7.68,-9.537,8.755,-1.578,0.961,1.532
845.0,-5.172,-11.953,8.434,-2.016,0.666,1.11
849.0,-5.172,-11.953,8.434,-2.016,0.666,1.11
853.0,-5.172,-11.953,8.434,-2.016,0.666,1.11
856.0,-2.975,-14.115,7.781,-2.407,0.408,0.699
860.0,-2.975,-14.115,7.781,-2.407,0.408,0.699
864.0,-1.464,-16.043,7.088,-2.682,0.184,0.258
868.0,-1.464,-16.043,7.088,-2.682,0.184,0.258
872.0,-1.464,-16.043,7.088,-2.682,0.184,0.258
876.0,-0.535,-17.544,6.364,-2.743,-0.03,-0.237
880.0,-0.535,-17.544,6.364,-2.743,-0.03,-0.237
884.0,-0.06,-18.39,5.538,-2.518,-0.221,-0.765
888.0,-0.06,-18.39,5.538,-2.518,-0.221,-0.765
892.0,-0.06,-18.39,4.691,-2.518,-0.221,-0.765
896.0,-0.009,-18.438,4.691,-2.012,-0.36,-1.276
900.0,-0.009,-18.438,4.691,-2.012,-0.36,-1.276
904.0,-0.33,-18.032,3.967,-1.289,-0.436,-1.743
909.0,-0.33,-18.032,3.967,-1.289,-0.436,-1.743
913.0,-0.964,-17.323,3.45,-1.289,-0.471,-2.197
917.0,-0.964,-17.323,3.45,-0.461,-0.471,-2.197
921.0,-0.964,-17.323,3.45,-0.461,-0.471,-2.197
925.0,-1.953,-16.382,3.026,0.328,-0.493,-2.673
929.0,-1.953,-16.382,3.026,0.328,-0.493,-2.673
933.0,-3.313,-15.342,2.667,0.96,-0.524,-3.187
937.0,-3.313,-15.342,2.667,0.96,-0.524,-3.187
941.0,-3.313,-15.342,2.667,0.96,-0.524,-3.187
945.0,-4.92,-14.323,2.501,1.367,-0.567,-3.735
949.0,-4.92,-14.323,2.501,1.367,-0.567,-3.735
953.0,-6.708,-13.42,2.615,1.555,-0.632,-4.284
957.0,-6.708,-13.42,2.615,1.555,-0.632,-4.284
961.0,-6.708,-13.42,2.615,1.555,-0.632,-4.284
965.0,-8.472,-12.68,2.842,1.576,-0.735,-4.781
969.0,-8.472,-12.68,2.842,1.576,-0.735,-4.781
973.0,-10.111,-12.307,3.032,1.464,-0.876,-4.99
977.0,-10.111,-12.307,3.032,1.464,-0.876,-4.99
981.0,-10.111,-12.307,3.268,1.464,-0.876,-4.99
985.0,-11.755,-12.337,3.268,1.238,-1.049,-4.995
989.0,-11.755,-12.337,3.268,1.238,-1.049,-4.995
993.0,-13.474,-12.774,3.57,0.907,-1.232,-4.995
997.0,-13.474,-12.774,3.57,0.907,-1.232,-4.995
1001.0,-15.552,-13.497,3.914,0.907,-1.232,-4.995
1006.0,-15.552,-13.497,3.914,0.485,-1.397,-4.995
1010.0,-15.552,-13.497,3.914,0.485,-1.397,-4.995
1014.0,-17.932,-14.416,4.235,0.005,-1.541,-4.995
1018.0,-17.932,-14.416,4.235,0.005,-1.541,-4.995
1022.0,-19.549,-15.45,4.577,-0.487,-1.661,-4.995
1026.0,-19.549,-15.45,4.577,-0.487,-1.661,-4.995
1031.0,-19.6,-16.845,4.876,-0.487,-1.661,-4.995
1035.0,-19.6,-16.845,4.876,-0.94,-1.728,-4.995
1039.0,-19.6,-16.845,4.876,-0.94,-1.728,-4.995
1043.0,-19.6,-18.598,5.618,-1.286,-1.699,-4.995
1048.0,-19.6,-18.598,5.618,-1.286,-1.699,-4.995
1052.0,-19.6,-19.585,6.556,-1.476,-1.602,-4.995
1056.0,-19.6,-19.585,6.556,-1.476,-1.602,-4.995
1060.0,-19.6,-19.6,7.502,-1.476,-1.602,-4.995
1065.0,-19.6,-19.6,7.502,-1.493,-1.473,-4.995
1069.0,-19.6,-19.6,7.502,-1.493,-1.473,-4.995
1073.0,-19.6,-19.6,8.632,-1.348,-1.294,-4.995
1078.0,-19.6,-19.6,8.632,-1.348,-1.294,-4.995
1082.0,-19.6,-19.6,9.667,-1.045,-1.075,-4.995
1086.0,-19.6,-19.6,9.667,-1.045,-1.075,-4.995
1090.0,-19.6,-19.6,10.372,-1.045,-0.909,-4.995
1095.0,-19.6,-19.6,10.372,-0.564,-0.909,-4.995
1099.0,-19.6,-19.6,10.372,-0.564,-0.909,-4.995
1103.0,-19.6,-19.6,11.015,0.088,-0.851,-4.995
1108.0,-19.6,-19.6,11.015,0.088,-0.851,-4.995
1112.0,-19.6,-19.6,11.608,0.836,-0.891,-4.995
1116.0,-19.6,-19.6,11.608,0.836,-0.891,-4.995
1120.0,-19.6,-19.6,11.8,1.609,-1.052,-4.995
1125.0,-19.6,-19.6,11.8,1.609,-1.052,-4.995
1129.0,-19.6,-19.6,11.8,1.609,-1.052,-4.995
1133.0,-19.6,-19.6,11.57,2.322,-1.342,-4.995
1137.0,-19.6,-19.6,11.57,2.322,-1.342,-4.995
1142.0,-19.6,-19.6,11.007,2.954,-1.736,-4.995
1146.0,-19.6,-19.6,11.007,2.954,-1.736,-4.995
1150.0,-19.6,-19.6,10.433,3.484,-2.162,-4.995
1154.0,-19.6,-19.6,10.433,3.484,-2.162,-4.995
1159.0,-19.6,-19.6,9.724,3.484,-2.162,-4.995
1163.0,-19.58,-19.461,9.724,3.887,-2.543,-4.995
1167.0,-19.58,-19.461,9.724,3.887,-2.543,-4.995
1171.0,-18.789,-17.584,9.023,4.141,-2.871,-4.995
1175.0,-18.789,-17.584,9.023,4.141,-2.871,-4.995
1179.0,-17.408,-15.024,8.316,4.238,-3.159,-4.995
1184.0,-17.408,-15.024,8.316,4.238,-3.159,-4.995
1188.0,-17.408,-15.024,8.316,4.238,-3.159,-4.995
1192.0,-16.059,-12.519,7.422,4.195,-3.399,-4.995
1196.0,-16.059,-12.519,7.422,4.195,-3.399,-4.995
1200.0,-14.946,-10.302,6.271,4.037,-3.576,-4.995
1204.0,-14.946,-10.302,6.271,4.037,-3.576,-4.995
1209.0,-14.395,-8.34,4.92,4.037,-3.576,-4.995
1213.0,-14.395,-8.34,4.92,3.785,-3.67,-4.995
1217.0,-14.395,-8.34,4.92,3.785,-3.67,-4.995
1221.0,-14.546,-6.632,3.289,3.456,-3.67,-4.995
1225.0,-14.546,-6.632,3.289,3.456,-3.67,-4.995
1229.0,-14.59,-5.231,1.548,3.079,-3.568,-4.995
1233.0,-14.59,-5.231,1.548,3.079,-3.568,-4.995
1237.0,-14.59,-5.231,1.548,3.079,-3.568,-4.995
1241.0,-14.95,-3.921,0.066,2.702,-3.383,-4.956
1245.0,-14.95,-3.921,0.066,2.702,-3.383,-4.956
1249.0,-15.826,-2.632,-1.224,2.383,-3.157,-4.535
1254.0,-15.826,-2.632,-1.224,2.383,-3.157,-4.535
1258.0,-16.656,-1.234,-2.453,2.383,-3.157,-4.535
1262.0,-16.656,-1.234,-2.453,2.149,-2.916,-3.923
1266.0,-16.656,-1.234,-2.453,2.149,-2.916,-3.923
1270.0,-17.177,0.097,-3.743,1.984,-2.665,-3.278
1274.0,-17.177,0.097,-3.743,1.984,-2.665,-3.278
1278.0,-17.398,1.138,-4.979,1.867,-2.356,-2.578
1282.0,-17.398,1.138,-4.979,1.867,-2.356,-2.578
1287.0,-17.398,1.138,-4.979,1.867,-2.356,-2.578
1291.0,-17.558,2.003,-5.81,1.793,-1.948,-1.876
1295.0,-17.558,2.003,-5.81,1.793,-1.948,-1.876
1299.0,-17.686,2.807,-6.185,1.74,-1.494,-1.193
1303.0,-17.686,2.807,-6.185,1.74,-1.494,-1.193
1307.0,-17.686,3.517,-6.245,1.74,-1.494,-1.193
1311.0,-17.585,3.517,-6.245,1.675,-1.04,-0.524
1315.0,-17.585,3.517,-6.245,1.675,-1.04,-0.524
1319.0,-17.297,4.137,-5.98,1.576,-0.604,0.135
1323.0,-17.297,4.137,-5.98,1.576,-0.604,0.135
1327.0,-16.677,4.557,-5.669,1.576,-0.604,0.809
1331.0,-16.677,4.557,-5.669,1.437,-0.195,0.809
1335.0,-16.677,4.557,-5.669,1.437,-0.195,0.809
1339.0,-15.676,4.738,-5.297,1.259,0.212,1.505
1343.0,-15.676,4.738,-5.297,1.259,0.212,1.505
1347.0,-14.782,4.701,-4.79,1.259,0.642,2.223
1351.0,-14.782,4.701,-4.79,1.046,0.642,2.223
1355.0,-14.782,4.701,-4.79,1.046,0.642,2.223
1359.0,-14.268,4.366,-4.096,0.807,1.103,2.982
1363.0,-14.268,4.366,-4.096,0.807,1.103,2.982
1366.0,-13.915,3.829,-3.349,0.807,1.103,3.791
1370.0,-13.915,3.829,-3.349,0.544,1.576,3.791
1374.0,-13.915,3.829,-3.349,0.544,1.576,3.791
1378.0,-13.425,3.115,-2.417,0.267,2.054,4.614
1382.0,-13.425,3.115,-2.417,0.267,2.054,4.614
1386.0,-12.961,2.261,-1.365,0.267,2.054,4.614
1390.0,-12.961,2.261,-1.365,-0.002,2.528,5.001
1394.0,-12.961,2.261,-1.365,-0.002,2.528,5.001
1398.0,-12.501,1.365,-0.145,-0.241,2.993,5.013
1402.0,-12.501,1.365,-0.145,-0.241,2.993,5.013
1406.0,-12.05,0.37,1.161,-0.241,2.993,5.013
1410.0,-12.05,0.37,1.161,-0.445,3.445,5.013
1414.0,-12.05,0.37,1.161,-0.445,3.445,5.013
1418.0,-11.955,-0.8,2.542,-0.61,3.871,5.013
1422.0,-11.955,-0.8,2.542,-0.61,3.871,5.013
1426.0,-12.412,-2.203,3.873,-0.61,3.871,5.013
1430.0,-12.412,-2.203,3.873,-0.744,4.265,5.013
1434.0,-12.412,-2.203,3.873,-0.744,4.265,5.013
1438.0,-13.759,-4.149,5.294,-0.87,4.632,5.013
1442.0,-13.759,-4.149,5.294,-0.87,4.632,5.013
1446.0,-16.072,-6.668,6.629,-0.87,4.632,5.013
1450.0,-16.072,-6.668,6.629,-0.985,4.916,5.013
1454.0,-16.072,-6.668,6.629,-0.985,4.916,5.013
1458.0,-18.449,-9.009,7.331,-1.071,5.013,5.013
1462.0,-18.449,-9.009,7.331,-1.071,5.013,5.013
1466.0,-19.592,-11.551,7.892,-1.071,5.015,5.013
1470.0,-19.592,-11.551,7.892,-1.095,5.015,5.013
1474.0,-19.592,-11.551,7.892,-1.095,5.015,5.013
1478.0,-19.6,-14.477,9.078,-1.026,5.015,5.013
1482.0,-19.6,-14.477,9.078,-1.026,5.015,5.013
1486.0,-19.6,-17.292,10.698,-0.833,5.015,5.013
1490.0,-19.6,-17.292,10.698,-0.833,5.015,5.013
1494.0,-19.6,-17.292,11.93,-0.833,5.015,5.013
1498.0,-19.6,-19.374,11.93,-0.51,5.015,5.013
1503.0,-19.6,-19.374,11.93,-0.51,5.015,5.013
1507.0,-19.6,-19.6,12.645,-0.087,5.015,5.013
1511.0,-19.6,-19.6,12.645,-0.087,5.015,5.013
1515.0,-19.6,-19.6,13.429,0.33,5.015,5.013
