deltaTime,Acc_X,Acc_Y,Acc_Z,Gyro_X,Gyro_Y,Gyro_Z
0.0,-10.185,-1.406,4.899,-0.542,-0.189,-0.129
3.0,-10.004,-1.737,4.898,-0.687,-0.221,-0.133
6.0,-10.004,-1.737,4.898,-0.687,-0.221,-0.133
9.0,-10.004,-1.737,4.898,-0.687,-0.221,-0.133
12.0,-9.763,-1.916,4.926,-0.757,-0.196,-0.165
15.0,-9.763,-1.916,4.926,-0.757,-0.196,-0.165
18.0,-9.763,-1.916,4.926,-0.757,-0.196,-0.165
21.0,-10.095,-1.828,4.883,-0.782,-0.116,-0.21
24.0,-10.095,-1.828,4.883,-0.782,-0.116,-0.21
27.0,-10.095,-1.828,4.883,-0.782,-0.116,-0.21
31.0,-10.428,-1.734,4.875,-0.781,-0.067,-0.244
35.0,-10.428,-1.734,4.875,-0.781,-0.067,-0.244
39.0,-10.428,-1.734,4.875,-0.781,-0.067,-0.244
43.0,-10.689,-1.581,4.784,-0.774,-0.026,-0.251
47.0,-10.689,-1.581,4.784,-0.774,-0.026,-0.251
51.0,-10.671,-1.661,4.793,-0.768,0.008,-0.246
55.0,-10.671,-1.661,4.793,-0.768,0.008,-0.246
59.0,-10.671,-1.661,4.793,-0.768,0.008,-0.246
63.0,-10.199,-1.634,4.976,-0.732,0.031,-0.23
66.0,-10.199,-1.634,4.976,-0.732,0.031,-0.23
70.0,-9.938,-1.853,5.422,-0.714,0.119,-0.216
74.0,-9.938,-1.853,5.422,-0.714,0.119,-0.216
78.0,-9.938,-1.853,5.422,-0.714,0.119,-0.216
82.0,-9.801,-2.289,5.962,-0.676,0.194,-0.216
86.0,-9.801,-2.289,5.962,-0.676,0.194,-0.216
89.0,-9.989,-2.947,6.694,-0.676,0.194,-0.216
93.0,-9.989,-2.947,6.694,-0.588,0.237,-0.239
97.0,-9.989,-2.947,6.694,-0.588,0.237,-0.239
101.0,-10.225,-3.669,7.603,-0.429,0.239,-0.291
105.0,-10.225,-3.669,7.603,-0.429,0.239,-0.291
109.0,-10.225,-4.765,8.602,-0.429,0.239,-0.291
113.0,-10.418,-4.765,8.602,-0.19,0.179,-0.392
117.0,-10.418,-4.765,8.602,-0.19,0.179,-0.392
121.0,-10.954,-5.856,9.573,0.174,0.047,-0.562
125.0,-10.954,-5.856,9.573,0.174,0.047,-0.562
129.0,-10.954,-6.528,10.298,0.174,0.047,-0.562
133.0,-11.579,-6.528,10.298,0.649,-0.172,-0.805
137.0,-11.579,-6.528,10.298,0.649,-0.172,-0.805
141.0,-12.16,-6.307,10.794,1.159,-0.449,-1.09
145.0,-12.16,-6.307,10.794,1.159,-0.449,-1.09
149.0,-12.966,-6.425,11.217,1.159,-0.74,-1.383
153.0,-12.966,-6.425,11.217,1.636,-0.74,-1.383
157.0,-12.966,-6.425,11.217,1.636,-0.74,-1.383
161.0,-13.782,-5.523,11.315,2.11,-1.138,-1.665
165.0,-13.782,-5.523,11.315,2.11,-1.138,-1.665
169.0,-14.207,-4.463,10.858,2.333,-1.626,-2.019
173.0,-14.207,-4.463,10.858,2.333,-1.626,-2.019
178.0,-14.207,-4.463,10.858,2.333,-1.626,-2.019
182.0,-14.076,-4.449,10.033,2.326,-2.142,-2.441
186.0,-14.076,-4.449,10.033,2.326,-2.142,-2.441
190.0,-13.904,-3.98,9.331,2.283,-2.634,-2.865
194.0,-13.904,-3.98,9.331,2.283,-2.634,-2.865
198.0,-13.904,-3.238,9.051,2.283,-2.634,-2.865
202.0,-13.34,-3.238,9.051,2.165,-3.053,-3.199
206.0,-13.34,-3.238,9.051,2.165,-3.053,-3.199
210.0,-12.402,-2.666,9.278,1.946,-3.388,-3.422
214.0,-12.402,-2.666,9.278,1.946,-3.388,-3.422
218.0,-10.984,-1.768,9.791,1.946,-3.388,-3.422
222.0,-10.984,-1.768,9.791,1.661,-3.669,-3.577
226.0,-10.984,-1.768,9.791,1.661,-3.669,-3.577
230.0,-9.137,-0.587,10.249,1.352,-3.909,-3.66
234.0,-9.137,-0.587,10.249,1.352,-3.909,-3.66
238.0,-6.936,0.709,10.485,1.352,-3.909,-3.653
242.0,-6.936,0.709,10.485,1.04,-4.122,-3.653
246.0,-6.936,0.709,10.485,1.04,-4.122,-3.653
249.0,-4.719,1.869,10.476,0.737,-4.281,-3.564
253.0,-4.719,1.869,10.476,0.737,-4.281,-3.564
257.0,-2.383,2.646,10.361,0.737,-4.281,-3.564
261.0,-2.383,2.646,10.361,0.46,-4.376,-3.405
265.0,-2.383,2.646,10.361,0.46,-4.376,-3.405
269.0,-0.035,2.944,10.149,0.216,-4.39,-3.199
273.0,-0.035,2.944,10.149,0.216,-4.39,-3.199
277.0,-0.035,3.049,9.803,0.216,-4.39,-3.199
281.0,2.234,3.049,9.803,0.003,-4.304,-2.963
284.0,2.234,3.049,9.803,0.003,-4.304,-2.963
288.0,4.096,2.842,9.473,-0.193,-4.11,-2.701
292.0,4.096,2.842,9.473,-0.193,-4.11,-2.701
296.0,4.096,2.842,9.473,-0.193,-4.11,-2.701
300.0,5.359,2.302,9.245,-0.361,-3.842,-2.426
303.0,5.359,2.302,9.245,-0.361,-3.842,-2.426
307.0,5.807,1.616,9.009,-0.494,-3.525,-2.159
311.0,5.807,1.616,9.009,-0.494,-3.525,-2.159
315.0,5.807,1.616,9.009,-0.494,-3.525,-2.159
319.0,5.794,0.918,8.703,-0.591,-3.192,-1.906
322.0,5.794,0.918,8.703,-0.591,-3.192,-1.906
326.0,5.623,0.327,8.389,-0.591,-3.192,-1.906
330.0,5.623,0.327,8.389,-0.662,-2.845,-1.646
334.0,5.623,0.327,8.389,-0.662,-2.845,-1.646
338.0,5.419,-0.172,7.963,-0.723,-2.483,-1.352
342.0,5.419,-0.172,7.963,-0.723,-2.483,-1.352
346.0,5.419,-0.172,7.963,-0.723,-2.483,-1.352
349.0,4.973,-0.385,7.454,-0.792,-2.115,-1.001
353.0,4.973,-0.385,7.454,-0.792,-2.115,-1.001
357.0,4.223,-0.127,6.709,-0.864,-1.775,-0.551
361.0,4.223,-0.127,6.709,-0.864,-1.775,-0.551
365.0,4.223,-0.127,6.709,-0.864,-1.775,-0.551
369.0,3.653,0.171,5.566,-0.93,-1.473,0.031
373.0,3.653,0.171,5.566,-0.93,-1.473,0.031
376.0,3.421,0.599,4.212,-0.982,-1.148,0.707
380.0,3.421,0.599,4.212,-0.982,-1.148,0.707
384.0,3.421,0.599,4.212,-0.982,-1.148,0.707
388.0,3.444,0.618,2.987,-1.013,-0.739,1.426
391.0,3.444,0.618,2.987,-1.013,-0.739,1.426
395.0,3.444,0.618,2.155,-1.013,-0.739,1.426
399.0,3.259,-0.116,2.155,-1.022,-0.248,2.122
403.0,3.259,-0.116,2.155,-1.022,-0.248,2.122
406.0,2.541,-1.329,1.776,-1.014,0.262,2.737
410.0,2.541,-1.329,1.776,-1.014,0.262,2.737
414.0,2.541,-1.329,1.776,-1.014,0.262,2.737
418.0,1.086,-2.897,1.753,-1.003,0.737,3.235
421.0,1.086,-2.897,1.753,-1.003,0.737,3.235
425.0,-1.167,-4.256,1.786,-1.003,0.737,3.612
429.0,-1.167,-4.256,1.786,-0.996,1.144,3.612
433.0,-1.167,-4.256,1.786,-0.996,1.144,3.612
437.0,-4.12,-5.25,1.868,-0.971,1.47,3.925
440.0,-4.12,-5.25,1.868,-0.971,1.47,3.925
444.0,-4.12,-5.25,1.868,-0.971,1.47,3.925
448.0,-7.789,-5.788,2.076,-0.856,1.71,4.246
452.0,-7.789,-5.788,2.076,-0.856,1.71,4.246
456.0,-12.709,-5.637,2.174,-0.569,1.846,4.66
460.0,-12.709,-5.637,2.174,-0.569,1.846,4.66
464.0,-12.709,-5.637,2.174,-0.569,1.846,4.66
467.0,-18.661,-5.346,2.354,-0.009,1.887,4.987
471.0,-18.661,-5.346,2.354,-0.009,1.887,4.987
475.0,-19.6,-5.346,2.914,0.831,1.792,5.013
479.0,-19.6,-5.346,2.914,0.831,1.792,5.013
483.0,-19.6,-5.346,2.914,0.831,1.792,5.013
487.0,-19.6,-6.003,4.091,1.775,1.468,5.013
490.0,-19.6,-6.003,4.091,1.775,1.468,5.013
494.0,-19.6,-7.245,4.289,1.775,1.468,5.013
498.0,-19.6,-7.245,4.289,2.695,0.954,5.013
502.0,-19.6,-7.245,4.289,2.695,0.954,5.013
506.0,-19.6,-8.634,3.505,3.565,0.379,5.013
510.0,-19.6,-8.634,3.505,3.565,0.379,5.013
513.0,-19.6,-8.634,1.5,3.565,0.379,5.013
517.0,-19.493,-9.938,1.5,4.339,-0.211,4.993
521.0,-19.493,-9.938,1.5,4.339,-0.211,4.993
525.0,-12.722,-10.517,-4.728,4.892,-0.614,4.27
529.0,-12.722,-10.517,-4.728,4.892,-0.614,4.27
533.0,-12.722,-10.517,-4.855,4.892,-0.614,4.27
537.0,-3.376,-7.418,-4.855,4.995,-0.317,2.313
541.0,-3.376,-7.418,-4.855,4.995,-0.317,2.313
545.0,-2.494,-1.744,-1.113,4.995,0.209,0.142
549.0,-2.494,-1.744,-1.113,4.995,0.209,0.142
553.0,-2.494,-1.744,-1.113,4.995,0.209,0.142
557.0,-7.533,0.682,1.161,4.995,0.103,-1.287
560.0,-7.533,0.682,1.161,4.995,0.103,-1.287
564.0,-13.446,0.469,0.516,4.995,-0.535,-2.341
568.0,-13.446,0.469,0.516,4.995,-0.535,-2.341
572.0,-13.446,0.469,0.516,4.995,-0.535,-2.341
576.0,-17.456,-0.119,0.077,4.886,-1.236,-3.405
580.0,-17.456,-0.119,0.077,4.886,-1.236,-3.405
584.0,-19.028,-0.061,0.336,4.376,-1.831,-4.376
588.0,-19.028,-0.061,0.336,4.376,-1.831,-4.376
592.0,-19.028,-0.061,0.336,4.376,-1.831,-4.376
596.0,-19.589,0.907,0.682,3.632,-2.299,-4.937
600.0,-19.589,0.907,0.682,3.632,-2.299,-4.937
604.0,-19.6,2.073,1.269,2.681,-2.633,-4.995
607.0,-19.6,2.073,1.269,2.681,-2.633,-4.995
611.0,-19.6,2.073,1.269,2.681,-2.633,-4.995
615.0,-19.6,2.532,2.212,1.53,-2.838,-4.995
619.0,-19.6,2.532,2.212,1.53,-2.838,-4.995
623.0,-19.599,1.954,3.371,0.262,-2.932,-4.995
627.0,-19.599,1.954,3.371,0.262,-2.932,-4.995
631.0,-19.599,1.954,3.371,0.262,-2.932,-4.995
635.0,-18.028,0.68,4.259,-0.97,-2.913,-4.995
639.0,-18.028,0.68,4.259,-0.97,-2.913,-4.995
643.0,-14.866,-0.459,4.46,-2.059,-2.73,-4.93
647.0,-14.866,-0.459,4.46,-2.059,-2.73,-4.93
651.0,-14.866,-0.459,4.46,-2.059,-2.73,-4.93
655.0,-11.938,-1.101,4.634,-2.958,-2.376,-4.621
659.0,-11.938,-1.101,4.634,-2.958,-2.376,-4.621
663.0,-9.194,-1.537,5.17,-3.664,-1.924,-4.184
667.0,-9.194,-1.537,5.17,-3.664,-1.924,-4.184
671.0,-9.194,-1.537,5.17,-3.664,-1.924,-4.184
675.0,-7.011,-1.974,5.782,-4.192,-1.463,-3.686
679.0,-7.011,-1.974,5.782,-4.192,-1.463,-3.686
683.0,-5.487,-2.615,6.29,-4.557,-1.07,-3.17
687.0,-5.487,-2.615,6.29,-4.557,-1.07,-3.17
691.0,-5.487,-2.615,6.679,-4.557,-1.07,-3.17
695.0,-4.19,-3.342,6.679,-4.766,-0.769,-2.635
699.0,-4.19,-3.342,6.679,-4.766,-0.769,-2.635
703.0,-2.826,-3.635,6.665,-4.847,-0.529,-2.036
707.0,-2.826,-3.635,6.665,-4.847,-0.529,-2.036
711.0,-2.826,-3.936,6.654,-4.847,-0.529,-2.036
715.0,-1.293,-3.936,6.654,-4.863,-0.307,-1.309
719.0,-1.293,-3.936,6.654,-4.863,-0.307,-1.309
723.0,0.038,-4.515,6.732,-4.871,-0.099,-0.469
727.0,0.038,-4.515,6.732,-4.871,-0.099,-0.469
731.0,0.038,-5.043,6.625,-4.871,-0.099,-0.469
735.0,1.079,-5.043,6.625,-4.927,0.082,0.415
738.0,1.079,-5.043,6.625,-4.927,0.082,0.415
742.0,1.569,-5.73,6.546,-5.004,0.246,1.281
746.0,1.569,-5.73,6.546,-5.004,0.246,1.281
750.0,1.569,-5.73,6.546,-5.004,0.246,1.281
753.0,1.587,-6.785,6.625,-5.013,0.341,2.071
757.0,1.587,-6.785,6.625,-5.013,0.341,2.071
761.0,1.315,-8.069,6.925,-5.013,0.341,2.737
765.0,1.315,-8.069,6.925,-5.013,0.341,2.737
768.0,1.315,-8.069,6.925,-5.013,0.341,2.737
772.0,0.967,-10.286,7.512,-5.013,0.216,3.265
776.0,0.967,-10.286,7.512,-5.013,0.216,3.265
780.0,0.967,-10.286,7.512,-5.013,0.216,3.265
784.0,0.49,-13.467,8.023,-5.013,-0.069,3.621
787.0,0.49,-13.467,8.023,-5.013,-0.069,3.621
791.0,0.165,-16.638,8.069,-5.013,-0.493,3.806
795.0,0.165,-16.638,8.069,-5.013,-0.493,3.806
799.0,0.165,-16.638,8.069,-5.013,-0.493,3.806
803.0,0.717,-19.089,7.839,-5.013,-0.972,3.891
807.0,0.717,-19.089,7.839,-5.013,-0.972,3.891
811.0,1.182,-19.6,7.028,-5.013,-1.453,3.922
815.0,1.182,-19.6,7.028,-5.013,-1.453,3.922
819.0,1.182,-19.6,7.028,-5.013,-1.453,3.922
823.0,2.338,-19.6,6.196,-5.013,-1.915,3.883
827.0,2.338,-19.6,6.196,-5.013,-1.915,3.883
830.0,3.812,-19.6,5.506,-5.013,-2.309,3.696
834.0,3.812,-19.6,5.506,-5.013,-2.309,3.696
838.0,3.812,-19.6,5.506,-5.013,-2.309,3.696
842.0,5.807,-19.6,5.116,-5.013,-2.603,3.339
846.0,5.807,-19.6,5.116,-5.013,-2.603,3.339
850.0,8.584,-19.6,5.102,-5.013,-2.8,2.877
854.0,8.584,-19.6,5.102,-5.006,-2.8,2.877
858.0,8.584,-19.6,5.102,-5.006,-2.8,2.877
862.0,11.878,-18.702,5.526,-4.504,-2.86,2.421
866.0,11.878,-18.702,5.526,-4.504,-2.86,2.421
870.0,14.914,-16.251,6.616,-4.504,-2.752,1.999
874.0,14.914,-16.251,6.616,-3.196,-2.752,1.999
878.0,14.914,-16.251,6.616,-3.196,-2.752,1.999
882.0,17.066,-13.708,7.701,-1.907,-2.531,1.555
886.0,17.066,-13.708,7.701,-1.907,-2.531,1.555
890.0,17.927,-11.133,8.509,-0.824,-2.239,1.017
894.0,17.927,-11.133,8.509,-0.824,-2.239,1.017
898.0,17.927,-11.133,8.509,-0.824,-2.239,1.017
902.0,17.98,-8.886,8.809,0.017,-1.895,0.373
905.0,17.98,-8.886,8.809,0.017,-1.895,0.373
909.0,17.081,-6.895,8.646,0.658,-1.514,-0.332
913.0,17.081,-6.895,8.646,0.658,-1.514,-0.332
917.0,17.081,-6.895,8.646,0.658,-1.514,-0.332
921.0,15.757,-5.477,8.29,1.143,-1.121,-1.033
925.0,15.757,-5.477,8.29,1.143,-1.121,-1.033
929.0,13.925,-4.832,7.81,1.143,-0.752,-1.683
933.0,13.925,-4.832,7.81,1.48,-0.752,-1.683
937.0,13.925,-4.832,7.81,1.48,-0.752,-1.683
940.0,11.908,-4.887,7.056,1.666,-0.423,-2.245
944.0,11.908,-4.887,7.056,1.666,-0.423,-2.245
948.0,10.826,-5.754,6.406,1.666,-0.423,-2.245
952.0,10.826,-5.754,6.406,1.721,-0.125,-2.685
956.0,10.826,-5.754,6.406,1.721,-0.125,-2.685
960.0,10.217,-7.335,6.057,1.684,0.164,-3.003
964.0,10.217,-7.335,6.057,1.684,0.164,-3.003
968.0,10.217,-7.335,5.944,1.684,0.164,-3.003
971.0,9.685,-9.451,5.944,1.621,0.456,-3.213
975.0,9.685,-9.451,5.944,1.621,0.456,-3.213
979.0,9.147,-12.083,6.191,1.59,0.755,-3.328
983.0,9.147,-12.083,6.191,1.59,0.755,-3.328
987.0,9.147,-12.083,6.191,1.59,0.755,-3.328
990.0,8.014,-14.415,6.498,1.608,1.048,-3.371
994.0,8.014,-14.415,6.498,1.608,1.048,-3.371
998.0,6.438,-16.271,6.84,1.665,1.305,-3.324
1002.0,6.438,-16.271,6.84,1.665,1.305,-3.324
1006.0,6.438,-16.271,6.84,1.665,1.305,-3.324
1010.0,4.734,-18.61,7.515,1.725,1.507,-3.187
1014.0,4.734,-18.61,7.515,1.725,1.507,-3.187
1017.0,2.667,-19.557,7.647,1.725,1.507,-3.024
1021.0,2.667,-19.557,7.647,1.779,1.653,-3.024
1025.0,2.667,-19.557,7.647,1.779,1.653,-3.024
1029.0,0.985,-19.11,7.16,1.82,1.765,-2.811
1033.0,0.985,-19.11,7.16,1.82,1.765,-2.811
1037.0,-0.112,-17.961,6.474,1.82,1.765,-2.811
1041.0,-0.112,-17.961,6.474,1.822,1.857,-2.555
1045.0,-0.112,-17.961,6.474,1.822,1.857,-2.555
1049.0,-0.871,-16.274,5.244,1.817,1.95,-2.25
1053.0,-0.871,-16.274,5.244,1.817,1.95,-2.25
1057.0,-1.475,-14.825,4.153,1.817,1.95,-1.853
1061.0,-1.475,-14.825,4.153,1.891,2.098,-1.853
1065.0,-1.475,-14.825,4.153,1.891,2.098,-1.853
1069.0,-1.916,-13.725,3.343,2.114,2.272,-1.369
1073.0,-1.916,-13.725,3.343,2.114,2.272,-1.369
1077.0,-2.349,-12.881,2.934,2.114,2.438,-0.819
1081.0,-2.349,-12.881,2.934,2.494,2.438,-0.819
1085.0,-2.349,-12.881,2.934,2.494,2.438,-0.819
1089.0,-2.856,-12.13,2.776,3.007,2.576,-0.217
1093.0,-2.856,-12.13,2.776,3.007,2.576,-0.217
1097.0,-3.377,-11.206,2.603,3.618,2.667,0.417
1101.0,-3.377,-11.206,2.603,3.618,2.667,0.417
1105.0,-3.377,-11.206,2.603,3.618,2.667,0.417
1109.0,-3.791,-10.363,2.161,4.264,2.715,1.06
1113.0,-3.791,-10.363,2.161,4.264,2.715,1.06
1116.0,-4.24,-9.617,1.694,4.264,2.773,1.663
1120.0,-4.24,-9.617,1.694,4.832,2.773,1.663
1124.0,-4.24,-9.617,1.694,4.832,2.773,1.663
1128.0,-4.811,-9.065,1.262,4.994,2.861,2.202
1132.0,-4.811,-9.065,1.262,4.994,2.861,2.202
1136.0,-4.811,-8.666,0.884,4.994,2.861,2.202
1139.0,-5.466,-8.666,0.884,4.995,2.975,2.66
1143.0,-5.466,-8.666,0.884,4.995,2.975,2.66
1147.0,-6.273,-8.14,0.433,4.995,3.11,3.028
1151.0,-6.273,-8.14,0.433,4.995,3.11,3.028
1155.0,-6.273,-8.14,0.433,4.995,3.11,3.028
1158.0,-7.244,-7.314,-0.051,4.995,3.264,3.327
1162.0,-7.244,-7.314,-0.051,4.995,3.264,3.327
1166.0,-8.367,-6.395,-0.538,4.995,3.435,3.601
1170.0,-8.367,-6.395,-0.538,4.995,3.435,3.601
1174.0,-8.367,-6.395,-0.538,4.995,3.435,3.601
1178.0,-10.108,-5.645,-0.722,4.995,3.606,3.894
1182.0,-10.108,-5.645,-0.722,4.995,3.606,3.894
1186.0,-12.689,-5.348,-0.558,4.995,3.718,4.21
1190.0,-12.689,-5.348,-0.558,4.995,3.718,4.21
1194.0,-12.689,-5.348,-0.558,4.995,3.718,4.21
1198.0,-16.354,-5.734,0.113,4.995,3.674,4.504
1202.0,-16.354,-5.734,0.113,4.995,3.674,4.504
1206.0,-19.43,-6.589,1.233,4.995,3.323,4.707
1210.0,-19.43,-6.589,1.233,4.995,3.323,4.707
1214.0,-19.43,-6.589,1.233,4.995,3.323,4.707
1217.0,-19.6,-7.19,1.854,4.995,2.532,4.742
1221.0,-19.6,-7.19,1.854,4.995,2.532,4.742
1225.0,-19.6,-6.866,0.686,4.995,1.331,4.584
1229.0,-19.6,-6.866,0.686,4.995,1.331,4.584
1233.0,-19.6,-6.866,0.686,4.995,1.331,4.584
1237.0,-19.6,-5.302,-1.668,4.995,0.007,4.283
1241.0,-19.6,-5.302,-1.668,4.995,0.007,4.283
1245.0,-18.288,-2.545,-4.542,4.995,-1.109,3.821
1249.0,-18.288,-2.545,-4.542,4.995,-1.109,3.821
1253.0,-18.288,-2.545,-4.542,4.995,-1.109,3.821
1257.0,-12.625,1.07,-7.291,4.995,-1.813,3.044
1261.0,-12.625,1.07,-7.291,4.995,-1.813,3.044
1265.0,-9.403,5.192,-9.092,4.995,-2.153,1.804
1269.0,-9.403,5.192,-9.092,4.995,-2.153,1.804
1273.0,-9.403,5.192,-9.092,4.995,-2.153,1.804
1277.0,-9.747,9.812,-7.818,4.94,-2.371,0.321
1281.0,-9.747,9.812,-7.818,4.94,-2.371,0.321
1285.0,-12.426,12.614,-4.238,3.486,-2.682,-0.948
1289.0,-12.426,12.614,-4.238,3.486,-2.682,-0.948
1293.0,-12.426,12.614,-4.238,3.486,-2.682,-0.948
1297.0,-16.344,13.152,-0.683,0.475,-3.159,-1.925
1301.0,-16.344,13.152,-0.683,0.475,-3.159,-1.925
1306.0,-19.368,12.299,1.853,-2.587,-3.697,-2.649
1310.0,-19.368,12.299,1.853,-2.587,-3.697,-2.649
1314.0,-19.6,10.041,3.042,-2.587,-4.145,-3.129
1318.0,-19.6,10.041,3.042,-4.745,-4.145,-3.129
1322.0,-19.6,10.041,3.042,-4.745,-4.145,-3.129
1326.0,-19.6,6.457,2.87,-5.013,-4.424,-3.485
1331.0,-19.6,6.457,2.87,-5.013,-4.424,-3.485
1335.0,-18.659,2.397,1.383,-5.013,-4.48,-3.831
1339.0,-18.659,2.397,1.383,-5.013,-4.48,-3.831
1343.0,-18.659,2.397,-0.989,-5.013,-4.48,-3.831
1347.0,-15.687,-1.287,-0.989,-5.013,-4.275,-4.161
1351.0,-15.687,-1.287,-0.989,-5.013,-4.275,-4.161
1355.0,-11.982,-3.949,-3.061,-5.013,-3.786,-4.407
1360.0,-11.982,-3.949,-3.061,-5.013,-3.786,-4.407
1364.0,-8.517,-6.019,-3.889,-5.013,-3.075,-4.466
1368.0,-8.517,-6.019,-3.889,-5.013,-3.075,-4.466
1372.0,-8.517,-6.019,-3.038,-5.013,-3.075,-4.466
1376.0,-6.291,-8.464,-3.038,-5.013,-2.306,-4.28
1381.0,-6.291,-8.464,-3.038,-5.013,-2.306,-4.28
1385.0,-5.155,-10.778,-0.897,-5.013,-1.641,-3.886
1389.0,-5.155,-10.778,-0.897,-5.013,-1.641,-3.886
1393.0,-4.758,-12.534,1.26,-5.013,-1.134,-3.317
1397.0,-4.758,-12.534,1.26,-5.013,-1.134,-3.317
1402.0,-4.758,-12.534,1.26,-5.013,-1.134,-3.317
1406.0,-4.995,-14.238,3.803,-5.013,-0.768,-2.559
1410.0,-4.995,-14.238,3.803,-5.013,-0.768,-2.559
1414.0,-5.51,-15.356,6.499,-5.013,-0.608,-1.636
1418.0,-5.51,-15.356,6.499,-5.013,-0.608,-1.636
1422.0,-5.461,-15.915,8.998,-5.013,-0.69,-0.613
1427.0,-5.461,-15.915,8.998,-5.013,-0.69,-0.613
1431.0,-5.461,-15.915,8.998,-5.013,-0.69,-0.613
1435.0,-5.282,-15.611,10.775,-4.765,-0.967,0.393
1439.0,-5.282,-15.611,10.775,-4.765,-0.967,0.393
1443.0,-4.768,-14.691,11.499,-3.645,-1.377,1.379
1447.0,-4.768,-14.691,11.499,-3.645,-1.377,1.379
1452.0,-3.568,-13.637,11.434,-3.645,-1.377,1.379
1456.0,-3.568,-13.637,11.434,-2.601,-1.811,2.368
1460.0,-3.568,-13.637,11.434,-2.601,-1.811,2.368
1464.0,-1.673,-12.72,10.726,-1.921,-2.174,3.318
1468.0,-1.673,-12.72,10.726,-1.921,-2.174,3.318
1472.0,0.509,-11.562,9.425,-1.581,-2.408,4.16
1476.0,0.509,-11.562,9.425,-1.581,-2.408,4.16
1480.0,0.509,-11.562,9.425,-1.581,-2.408,4.16
1484.0,2.458,-10.273,8.147,-1.542,-2.507,4.812
