deltaTime,Acc_X,Acc_Y,Acc_Z,Gyro_X,Gyro_Y,Gyro_Z
0.0,-3.962,0.842,8.282,-0.377,-0.064,0.138
3.0,-3.962,0.842,8.282,-0.377,-0.064,0.138
6.0,-3.859,0.621,8.241,-0.351,-0.02,0.18
9.0,-3.859,0.621,8.241,-0.351,-0.02,0.18
12.0,-3.859,0.621,8.241,-0.351,-0.02,0.18
15.0,-3.91,0.627,8.255,-0.309,0.017,0.21
18.0,-3.91,0.627,8.255,-0.309,0.017,0.21
21.0,-3.91,0.627,8.255,-0.309,0.017,0.21
24.0,-3.942,0.846,8.303,-0.309,0.045,0.222
27.0,-3.942,0.846,8.303,-0.287,0.045,0.222
30.0,-3.942,0.846,8.303,-0.287,0.045,0.222
33.0,-3.942,0.846,8.303,-0.287,0.045,0.222
36.0,-3.946,0.996,8.463,-0.304,0.068,0.232
39.0,-3.946,0.996,8.463,-0.304,0.068,0.232
42.0,-3.946,0.996,8.463,-0.304,0.068,0.232
46.0,-4.074,1.184,8.683,-0.344,0.091,0.256
50.0,-4.074,1.184,8.683,-0.344,0.091,0.256
53.0,-4.286,1.306,8.858,-0.344,0.103,0.298
57.0,-4.286,1.306,8.858,-0.405,0.103,0.298
61.0,-4.286,1.306,8.858,-0.405,0.103,0.298
64.0,-4.396,1.312,8.937,-0.474,0.101,0.352
68.0,-4.396,1.312,8.937,-0.474,0.101,0.352
72.0,-4.396,1.312,8.937,-0.474,0.101,0.352
75.0,-4.355,1.181,8.913,-0.537,0.097,0.409
79.0,-4.355,1.181,8.913,-0.537,0.097,0.409
82.0,-4.259,1.198,8.833,-0.537,0.097,0.409
86.0,-4.259,1.198,8.833,-0.586,0.103,0.453
90.0,-4.259,1.198,8.833,-0.586,0.103,0.453
93.0,-4.269,1.23,8.841,-0.643,0.12,0.479
97.0,-4.269,1.23,8.841,-0.643,0.12,0.479
101.0,-4.269,1.23,8.841,-0.643,0.12,0.479
104.0,-4.363,1.258,8.949,-0.71,0.142,0.494
108.0,-4.363,1.258,8.949,-0.71,0.142,0.494
112.0,-4.363,0.971,9.379,-0.71,0.142,0.494
116.0,-4.517,0.971,9.379,-0.766,0.165,0.519
119.0,-4.517,0.971,9.379,-0.766,0.165,0.519
123.0,-4.84,0.524,9.887,-0.747,0.183,0.574
127.0,-4.84,0.524,9.887,-0.747,0.183,0.574
131.0,-4.84,0.524,9.887,-0.747,0.183,0.574
134.0,-5.279,0.345,10.065,-0.651,0.167,0.634
138.0,-5.279,0.345,10.065,-0.651,0.167,0.634
142.0,-5.391,0.137,10.065,-0.651,0.167,0.694
146.0,-5.391,0.137,10.065,-0.504,0.156,0.694
150.0,-5.391,0.137,10.065,-0.504,0.156,0.694
153.0,-6.62,0.364,9.754,-0.319,0.093,0.709
157.0,-6.62,0.364,9.754,-0.319,0.093,0.709
161.0,-6.62,0.364,9.754,-0.319,0.093,0.709
165.0,-7.539,1.089,9.141,-0.213,-0.117,0.675
168.0,-7.539,1.089,9.141,-0.213,-0.117,0.675
172.0,-7.764,1.178,8.27,-0.248,-0.305,0.638
176.0,-7.764,1.178,8.27,-0.248,-0.305,0.638
180.0,-7.764,1.178,8.27,-0.248,-0.305,0.638
184.0,-7.871,1.166,7.322,-0.329,-0.43,0.628
188.0,-7.871,1.166,7.322,-0.329,-0.43,0.628
191.0,-8.066,1.061,6.593,-0.329,-0.43,0.633
195.0,-8.066,1.061,6.593,-0.428,-0.513,0.633
199.0,-8.066,1.061,6.593,-0.428,-0.513,0.633
203.0,-8.461,0.748,6.111,-0.537,-0.582,0.629
207.0,-8.461,0.748,6.111,-0.537,-0.582,0.629
210.0,-8.461,0.748,5.873,-0.537,-0.582,0.629
214.0,-9.02,0.283,5.873,-0.649,-0.658,0.594
218.0,-9.02,0.283,5.873,-0.649,-0.658,0.594
222.0,-9.629,-0.278,5.833,-0.76,-0.745,0.524
226.0,-9.629,-0.278,5.833,-0.76,-0.745,0.524
230.0,-9.629,-0.278,5.833,-0.76,-0.745,0.524
234.0,-10.07,-0.862,5.959,-0.864,-0.85,0.426
238.0,-10.07,-0.862,5.959,-0.864,-0.85,0.426
242.0,-10.259,-1.244,6.09,-0.969,-0.974,0.31
246.0,-10.259,-1.244,6.09,-0.969,-0.974,0.31
250.0,-10.259,-1.244,6.09,-0.969,-0.974,0.31
254.0,-10.423,-1.416,6.236,-1.083,-1.103,0.194
258.0,-10.423,-1.416,6.236,-1.083,-1.103,0.194
262.0,-10.623,-1.472,6.422,-1.216,-1.229,0.099
266.0,-10.623,-1.472,6.422,-1.216,-1.229,0.099
270.0,-10.623,-1.472,6.422,-1.216,-1.229,0.099
274.0,-10.67,-1.384,6.569,-1.376,-1.359,0.037
278.0,-10.67,-1.384,6.569,-1.376,-1.359,0.037
282.0,-10.392,-1.329,6.604,-1.575,-1.49,0.014
286.0,-10.392,-1.329,6.604,-1.575,-1.49,0.014
290.0,-10.392,-1.329,6.525,-1.575,-1.49,0.014
294.0,-9.586,-1.466,6.525,-1.794,-1.611,0.016
297.0,-9.586,-1.466,6.525,-1.794,-1.611,0.016
301.0,-8.148,-1.564,6.202,-1.992,-1.687,0.028
305.0,-8.148,-1.564,6.202,-1.992,-1.687,0.028
309.0,-8.148,-1.564,5.945,-1.992,-1.687,0.028
313.0,-6.329,-1.513,5.945,-2.183,-1.666,0.061
317.0,-6.329,-1.513,5.945,-2.183,-1.666,0.061
321.0,-4.521,-1.533,5.713,-2.418,-1.531,0.117
325.0,-4.521,-1.533,5.713,-2.418,-1.531,0.117
329.0,-4.521,-1.533,5.713,-2.418,-1.531,0.117
333.0,-1.767,-1.535,5.661,-2.714,-1.357,0.212
336.0,-1.767,-1.535,5.661,-2.714,-1.357,0.212
340.0,2.083,-1.866,6.351,-3.151,-1.041,0.377
344.0,2.083,-1.866,6.351,-3.151,-1.041,0.377
348.0,2.083,-1.866,6.351,-3.151,-1.041,0.377
352.0,5.678,-2.803,7.945,-3.724,-0.603,0.606
356.0,5.678,-2.803,7.945,-3.724,-0.603,0.606
359.0,8.474,-4.601,10.183,-4.312,-0.224,0.842
363.0,8.474,-4.601,10.183,-4.312,-0.224,0.842
367.0,8.474,-4.601,10.183,-4.312,-0.224,0.842
371.0,10.301,-6.644,12.713,-4.784,-0.011,0.927
375.0,10.301,-6.644,12.713,-4.784,-0.011,0.927
379.0,11.818,-8.017,14.955,-4.784,-0.025,0.807
383.0,11.818,-8.017,14.955,-4.993,-0.025,0.807
387.0,11.818,-8.017,14.955,-4.993,-0.025,0.807
391.0,13.325,-9.132,16.423,-4.984,-0.154,0.56
395.0,13.325,-9.132,16.423,-4.984,-0.154,0.56
399.0,15.343,-10.637,17.767,-4.745,-0.329,0.272
403.0,15.343,-10.637,17.767,-4.745,-0.329,0.272
407.0,15.343,-10.637,17.767,-4.745,-0.329,0.272
411.0,17.675,-12.884,18.972,-4.208,-0.523,-0.084
416.0,17.675,-12.884,18.972,-4.208,-0.523,-0.084
420.0,19.499,-14.904,19.6,-3.439,-0.775,-0.52
424.0,19.499,-14.904,19.6,-3.439,-0.775,-0.52
428.0,19.596,-16.338,19.6,-3.439,-0.775,-0.52
432.0,19.596,-16.338,19.6,-2.499,-1.029,-1.016
436.0,19.596,-16.338,19.6,-2.499,-1.029,-1.016
441.0,19.528,-17.02,19.6,-1.501,-1.3,-1.54
445.0,19.528,-17.02,19.6,-1.501,-1.3,-1.54
449.0,18.095,-16.769,19.6,-0.516,-1.584,-2.08
453.0,18.095,-16.769,19.6,-0.516,-1.584,-2.08
457.0,18.095,-16.769,19.429,-0.516,-1.584,-2.08
461.0,15.75,-15.539,19.429,0.375,-1.861,-2.591
465.0,15.75,-15.539,19.429,0.375,-1.861,-2.591
470.0,13.594,-13.664,18.0,1.076,-2.095,-2.997
474.0,13.594,-13.664,18.0,1.076,-2.095,-2.997
478.0,11.928,-11.579,16.35,1.076,-2.095,-3.257
482.0,11.928,-11.579,16.35,1.513,-2.249,-3.257
486.0,11.928,-11.579,16.35,1.513,-2.249,-3.257
490.0,10.223,-9.577,14.869,1.663,-2.303,-3.393
494.0,10.223,-9.577,14.869,1.663,-2.303,-3.393
498.0,8.387,-7.7,13.471,1.557,-2.259,-3.452
502.0,8.387,-7.7,13.471,1.557,-2.259,-3.452
506.0,8.387,-7.7,13.471,1.557,-2.259,-3.452
510.0,6.577,-6.098,12.199,1.242,-2.122,-3.465
514.0,6.577,-6.098,12.199,1.242,-2.122,-3.465
517.0,4.755,-4.945,10.918,0.767,-1.897,-3.457
521.0,4.755,-4.945,10.918,0.767,-1.897,-3.457
525.0,4.755,-4.945,10.918,0.767,-1.897,-3.457
529.0,2.905,-4.037,9.43,0.189,-1.588,-3.43
533.0,2.905,-4.037,9.43,0.189,-1.588,-3.43
537.0,1.465,-3.104,7.367,0.189,-1.588,-3.337
541.0,1.465,-3.104,7.367,-0.435,-1.188,-3.337
545.0,1.465,-3.104,7.367,-0.435,-1.188,-3.337
548.0,0.77,-2.2,5.036,-1.044,-0.634,-3.115
552.0,0.77,-2.2,5.036,-1.044,-0.634,-3.115
556.0,0.255,-1.863,3.668,-1.044,-0.634,-3.115
560.0,0.255,-1.863,3.668,-1.548,0.118,-2.748
564.0,0.255,-1.863,3.668,-1.548,0.118,-2.748
568.0,-0.511,-2.017,3.191,-1.831,0.916,-2.26
572.0,-0.511,-2.017,3.191,-1.831,0.916,-2.26
576.0,-0.511,-2.017,3.191,-1.831,0.916,-2.26
580.0,-1.45,-3.669,3.134,-1.793,1.598,-1.662
583.0,-1.45,-3.669,3.134,-1.793,1.598,-1.662
587.0,-2.813,-6.355,3.586,-1.312,2.156,-1.034
591.0,-2.813,-6.355,3.586,-1.312,2.156,-1.034
595.0,-2.813,-6.355,3.586,-1.312,2.156,-1.034
599.0,-4.372,-9.094,3.765,-0.261,2.633,-0.354
603.0,-4.372,-9.094,3.765,-0.261,2.633,-0.354
607.0,-6.026,-11.431,3.705,1.355,3.07,0.435
611.0,-6.026,-11.431,3.705,1.355,3.07,0.435
615.0,-6.026,-11.431,3.705,1.355,3.07,0.435
618.0,-7.777,-12.258,3.529,3.319,3.422,1.293
622.0,-7.777,-12.258,3.529,3.319,3.422,1.293
626.0,-9.649,-12.112,2.978,3.319,3.609,2.118
630.0,-9.649,-12.112,2.978,4.806,3.609,2.118
634.0,-9.649,-12.112,2.978,4.806,3.609,2.118
637.0,-11.597,-11.311,1.528,4.995,3.645,2.794
641.0,-11.597,-11.311,1.528,4.995,3.645,2.794
645.0,-13.948,-9.848,-0.955,4.995,3.645,2.794
649.0,-13.948,-9.848,-0.955,4.995,3.61,3.31
653.0,-13.948,-9.848,-0.955,4.995,3.61,3.31
657.0,-16.864,-8.62,-3.593,4.995,3.541,3.685
661.0,-16.864,-8.62,-3.593,4.995,3.541,3.685
665.0,-16.864,-7.268,-5.216,4.995,3.541,3.685
669.0,-19.16,-7.268,-5.216,4.995,3.384,3.873
673.0,-19.16,-7.268,-5.216,4.995,3.384,3.873
676.0,-19.578,-5.599,-5.594,4.995,3.008,3.9
680.0,-19.578,-5.599,-5.594,4.995,3.008,3.9
684.0,-19.578,-5.599,-5.998,4.995,3.008,3.9
688.0,-18.413,-3.82,-5.998,4.995,2.37,3.843
692.0,-18.413,-3.82,-5.998,4.995,2.37,3.843
696.0,-15.536,-1.57,-6.564,4.995,1.669,3.703
700.0,-15.536,-1.57,-6.564,4.995,1.669,3.703
704.0,-15.536,-1.57,-6.564,4.995,1.669,3.703
708.0,-12.404,1.02,-6.826,4.995,1.132,3.377
712.0,-12.404,1.02,-6.826,4.995,1.132,3.377
715.0,-10.449,3.313,-7.912,4.995,0.753,2.714
719.0,-10.449,3.313,-7.912,4.995,0.753,2.714
723.0,-10.449,3.313,-7.912,4.995,0.753,2.714
727.0,-9.31,7.186,-10.394,4.995,0.454,1.618
731.0,-9.31,7.186,-10.394,4.995,0.454,1.618
734.0,-10.649,12.135,-8.898,4.995,0.309,0.207
738.0,-10.649,12.135,-8.898,4.983,0.309,0.207
742.0,-10.649,12.135,-8.898,4.983,0.309,0.207
746.0,-12.568,15.494,-4.615,3.869,0.036,-1.077
750.0,-12.568,15.494,-4.615,3.869,0.036,-1.077
754.0,-13.927,15.806,-0.195,3.869,-0.521,-1.944
758.0,-13.927,15.806,-0.195,0.741,-0.521,-1.944
762.0,-13.927,15.806,-0.195,0.741,-0.521,-1.944
766.0,-15.087,13.769,2.486,-2.374,-1.179,-2.436
771.0,-15.087,13.769,2.486,-2.374,-1.179,-2.436
775.0,-16.036,11.057,3.036,-4.613,-1.746,-2.72
779.0,-16.036,11.057,3.036,-4.613,-1.746,-2.72
783.0,-16.036,11.057,3.036,-4.613,-1.746,-2.72
787.0,-16.339,8.508,2.026,-5.013,-2.102,-2.896
791.0,-16.339,8.508,2.026,-5.013,-2.102,-2.896
795.0,-15.616,6.208,0.735,-5.013,-2.199,-2.964
799.0,-15.616,6.208,0.735,-5.013,-2.199,-2.964
803.0,-15.616,6.208,-0.144,-5.013,-2.199,-2.964
807.0,-14.072,4.049,-0.144,-5.013,-2.093,-2.862
811.0,-14.072,4.049,-0.144,-5.013,-2.093,-2.862
815.0,-12.537,2.17,-0.666,-5.013,-1.874,-2.567
819.0,-12.537,2.17,-0.666,-5.013,-1.874,-2.567
823.0,-11.334,0.166,-0.887,-5.013,-1.874,-2.118
827.0,-11.334,0.166,-0.887,-5.013,-1.623,-2.118
831.0,-11.334,0.166,-0.887,-5.013,-1.623,-2.118
835.0,-9.87,-1.865,-0.963,-5.013,-1.393,-1.608
840.0,-9.87,-1.865,-0.963,-5.013,-1.393,-1.608
844.0,-8.122,-3.632,-0.619,-5.013,-1.167,-1.093
848.0,-8.122,-3.632,-0.619,-5.013,-1.167,-1.093
852.0,-8.122,-3.632,-0.619,-5.013,-1.167,-1.093
856.0,-6.664,-5.348,0.189,-5.013,-0.957,-0.573
860.0,-6.664,-5.348,0.189,-5.013,-0.957,-0.573
864.0,-5.911,-6.615,1.316,-5.013,-0.798,-0.046
868.0,-5.911,-6.615,1.316,-5.013,-0.798,-0.046
872.0,-5.911,-6.615,2.379,-5.013,-0.798,-0.046
876.0,-5.599,-7.507,2.379,-5.013,-0.703,0.552
880.0,-5.599,-7.507,2.379,-5.013,-0.703,0.552
884.0,-5.44,-8.632,3.543,-5.013,-0.681,1.25
888.0,-5.44,-8.632,3.543,-5.013,-0.681,1.25
891.0,-5.44,-8.632,3.543,-5.013,-0.681,1.25
895.0,-5.062,-9.893,4.927,-5.013,-0.784,2.032
899.0,-5.062,-9.893,4.927,-5.013,-0.784,2.032
903.0,-4.103,-11.529,6.571,-5.013,-1.055,2.872
907.0,-4.103,-11.529,6.571,-5.013,-1.055,2.872
911.0,-4.103,-11.529,6.571,-5.013,-1.055,2.872
915.0,-3.005,-13.485,7.46,-5.013,-1.503,3.704
919.0,-3.005,-13.485,7.46,-5.013,-1.503,3.704
923.0,-2.152,-15.223,7.037,-5.013,-2.069,4.429
927.0,-2.152,-15.223,7.037,-5.013,-2.069,4.429
931.0,-2.152,-15.223,5.515,-5.013,-2.069,4.429
935.0,-1.509,-16.364,5.515,-5.013,-2.617,4.921
939.0,-1.509,-16.364,5.515,-5.013,-2.617,4.921
943.0,-0.861,-17.154,3.806,-5.013,-3.034,5.013
947.0,-0.861,-17.154,3.806,-5.013,-3.034,5.013
951.0,-0.861,-18.441,2.558,-5.013,-3.034,5.013
955.0,0.711,-18.441,2.558,-5.013,-3.279,5.013
959.0,0.711,-18.441,2.558,-5.013,-3.279,5.013
963.0,3.269,-19.561,2.278,-5.013,-3.309,5.013
967.0,3.269,-19.561,2.278,-5.013,-3.309,5.013
971.0,3.269,-19.561,3.31,-5.013,-3.309,5.013
975.0,6.337,-19.6,3.31,-5.013,-3.089,4.97
978.0,6.337,-19.6,3.31,-5.013,-3.089,4.97
982.0,8.876,-19.6,6.09,-4.804,-2.67,4.638
986.0,8.876,-19.6,6.09,-4.804,-2.67,4.638
990.0,8.876,-19.6,6.09,-4.804,-2.67,4.638
994.0,10.583,-19.409,8.946,-3.704,-2.245,4.277
998.0,10.583,-19.409,8.946,-3.704,-2.245,4.277
1002.0,11.207,-17.769,10.92,-2.251,-1.894,4.095
1006.0,11.207,-17.769,10.92,-2.251,-1.894,4.095
1010.0,11.007,-15.86,11.995,-2.251,-1.894,4.095
1015.0,11.007,-15.86,11.995,-0.764,-1.597,4.057
1019.0,11.007,-15.86,11.995,-0.764,-1.597,4.057
1023.0,10.39,-13.943,12.436,0.65,-1.335,4.089
1027.0,10.39,-13.943,12.436,0.65,-1.335,4.089
1031.0,9.601,-12.258,12.239,1.925,-1.068,4.174
1035.0,9.601,-12.258,12.239,1.925,-1.068,4.174
1039.0,9.601,-12.258,12.239,1.925,-1.068,4.174
1043.0,8.628,-10.964,11.508,3.024,-0.756,4.305
1047.0,8.628,-10.964,11.508,3.024,-0.756,4.305
1051.0,7.492,-10.007,10.635,3.944,-0.385,4.465
1055.0,7.492,-10.007,10.635,3.944,-0.385,4.465
1059.0,7.492,-10.007,10.635,3.944,-0.385,4.465
1063.0,5.931,-9.184,9.844,4.692,0.047,4.65
1067.0,5.931,-9.184,9.844,4.692,0.047,4.65
1071.0,3.939,-8.505,9.097,4.988,0.52,4.871
1074.0,3.939,-8.505,9.097,4.988,0.52,4.871
1078.0,3.939,-8.505,9.097,4.988,0.52,4.871
1082.0,1.555,-8.14,8.35,4.995,1.056,5.006
1085.0,1.555,-8.14,8.35,4.995,1.056,5.006
1089.0,1.555,-8.14,7.356,4.995,1.056,5.006
1093.0,-1.128,-7.564,7.356,4.995,1.694,5.013
1097.0,-1.128,-7.564,7.356,4.995,1.694,5.013
1101.0,-5.015,-6.811,5.282,4.995,2.455,5.013
1104.0,-5.015,-6.811,5.282,4.995,2.455,5.013
1108.0,-5.015,-6.811,5.282,4.995,2.455,5.013
1112.0,-14.53,-6.657,1.41,4.995,3.429,5.013
1116.0,-14.53,-6.657,1.41,4.995,3.429,5.013
1120.0,-19.589,-6.637,-0.084,4.995,4.555,4.907
1124.0,-19.589,-6.637,-0.084,4.995,4.555,4.907
1128.0,-19.589,-6.637,-0.084,4.995,4.555,4.907
1132.0,-19.6,-5.892,2.711,4.995,4.998,4.43
1136.0,-19.6,-5.892,2.711,4.995,4.998,4.43
1140.0,-19.6,-4.761,6.578,4.995,4.624,3.781
1144.0,-19.6,-4.761,6.578,4.995,4.624,3.781
1147.0,-19.6,-4.761,6.578,4.995,4.624,3.781
1151.0,-19.6,-3.624,6.618,4.995,3.573,2.992
1155.0,-19.6,-3.624,6.618,4.995,3.573,2.992
1159.0,-19.6,-2.693,4.801,4.995,2.451,2.173
1163.0,-19.6,-2.693,4.801,4.995,2.451,2.173
1167.0,-19.6,-2.693,4.801,4.995,2.451,2.173
1171.0,-19.6,-1.807,3.11,4.995,1.449,1.398
1175.0,-19.6,-1.807,3.11,4.995,1.449,1.398
1179.0,-19.6,0.589,2.221,4.995,0.598,0.656
1182.0,-19.6,0.589,2.221,4.995,0.598,0.656
1186.0,-19.6,0.589,2.221,4.995,0.598,0.656
1190.0,-19.494,4.178,2.252,4.995,-0.059,-0.059
1194.0,-19.494,4.178,2.252,4.995,-0.059,-0.059
1198.0,-18.102,7.375,2.763,4.995,-0.059,-0.059
1202.0,-18.102,7.375,2.763,4.995,-0.575,-0.648
1206.0,-18.102,7.375,2.763,4.995,-0.575,-0.648
1210.0,-15.917,9.762,3.875,4.59,-1.021,-1.068
1214.0,-15.917,9.762,3.875,4.59,-1.021,-1.068
1218.0,-12.854,10.621,5.067,4.59,-1.021,-1.354
1222.0,-12.854,10.621,5.067,2.306,-1.404,-1.354
1226.0,-12.854,10.621,5.067,2.306,-1.404,-1.354
1230.0,-10.084,9.981,6.08,-0.459,-1.712,-1.541
1234.0,-10.084,9.981,6.08,-0.459,-1.712,-1.541
1238.0,-8.154,8.136,6.487,-2.95,-1.978,-1.623
1242.0,-8.154,8.136,6.487,-2.95,-1.978,-1.623
1246.0,-8.154,8.136,6.487,-2.95,-1.978,-1.623
1250.0,-6.675,5.681,6.317,-4.709,-2.234,-1.628
1254.0,-6.675,5.681,6.317,-4.709,-2.234,-1.628
1258.0,-5.19,3.139,5.703,-5.013,-2.485,-1.609
1262.0,-5.19,3.139,5.703,-5.013,-2.485,-1.609
1266.0,-5.19,3.139,5.703,-5.013,-2.485,-1.609
1270.0,-3.321,0.887,4.575,-5.013,-2.704,-1.61
1274.0,-3.321,0.887,4.575,-5.013,-2.704,-1.61
1278.0,-1.136,-0.738,3.628,-5.013,-2.857,-1.625
1282.0,-1.136,-0.738,3.628,-5.013,-2.857,-1.625
1287.0,-1.136,-0.738,3.086,-5.013,-2.857,-1.625
1291.0,1.339,-1.889,3.086,-5.013,-2.973,-1.606
1295.0,1.339,-1.889,3.086,-5.013,-2.973,-1.606
1299.0,3.909,-3.124,3.093,-5.013,-3.086,-1.539
1303.0,3.909,-3.124,3.093,-5.013,-3.086,-1.539
1307.0,6.863,-4.83,3.221,-5.013,-3.086,-1.539
1311.0,6.863,-4.83,3.221,-5.013,-3.272,-1.503
1315.0,6.863,-4.83,3.221,-5.013,-3.272,-1.503
1319.0,9.881,-6.735,3.787,-5.013,-3.533,-1.606
1323.0,9.881,-6.735,3.787,-5.013,-3.533,-1.606
1327.0,12.194,-7.478,4.167,-5.013,-3.533,-1.828
1331.0,12.194,-7.478,4.167,-5.013,-3.828,-1.828
1335.0,12.194,-7.478,4.167,-5.013,-3.828,-1.828
1339.0,14.045,-7.825,4.164,-5.013,-4.079,-2.055
1343.0,14.045,-7.825,4.164,-5.013,-4.079,-2.055
1347.0,15.845,-8.239,4.452,-5.013,-4.205,-2.289
1351.0,15.845,-8.239,4.452,-5.013,-4.205,-2.289
1355.0,15.845,-8.239,4.452,-5.013,-4.205,-2.289
1359.0,17.322,-8.643,5.256,-4.737,-4.208,-2.557
1363.0,17.322,-8.643,5.256,-4.737,-4.208,-2.557
1367.0,18.31,-8.726,6.383,-3.481,-4.135,-2.86
1371.0,18.31,-8.726,6.383,-3.481,-4.135,-2.86
1376.0,18.31,-8.571,7.783,-3.481,-4.135,-2.86
1380.0,18.848,-8.571,7.783,-2.054,-4.02,-3.163
1384.0,18.848,-8.571,7.783,-2.054,-4.02,-3.163
1388.0,19.036,-8.384,9.156,-0.776,-3.879,-3.457
1392.0,19.036,-8.384,9.156,-0.776,-3.879,-3.457
1396.0,18.441,-7.769,10.04,-0.776,-3.703,-3.769
1400.0,18.441,-7.769,10.04,0.255,-3.703,-3.769
1404.0,18.441,-7.769,10.04,0.255,-3.703,-3.769
1408.0,17.033,-7.291,10.939,0.973,-3.46,-4.094
1412.0,17.033,-7.291,10.939,0.973,-3.46,-4.094
1416.0,14.465,-7.22,11.956,1.359,-3.163,-4.416
1420.0,14.465,-7.22,11.956,1.359,-3.163,-4.416
1425.0,14.465,-7.22,11.956,1.359,-3.163,-4.416
1429.0,10.588,-7.553,13.267,1.452,-2.854,-4.684
1433.0,10.588,-7.553,13.267,1.452,-2.854,-4.684
1437.0,7.063,-9.454,15.337,1.347,-2.579,-4.814
1441.0,7.063,-9.454,15.337,1.347,-2.579,-4.814
1445.0,4.524,-11.584,17.305,1.347,-2.579,-4.814
1449.0,4.524,-11.584,17.305,1.183,-2.323,-4.768
1453.0,4.524,-11.584,17.305,1.183,-2.323,-4.768
1457.0,2.121,-13.007,18.642,1.042,-2.054,-4.464
1461.0,2.121,-13.007,18.642,1.042,-2.054,-4.464
1465.0,0.234,-13.539,18.918,0.875,-1.808,-3.925
1469.0,0.234,-13.539,18.918,0.875,-1.808,-3.925
1473.0,0.234,-13.539,18.918,0.875,-1.808,-3.925
1477.0,-0.994,-12.961,18.443,0.575,-1.543,-3.327
1482.0,-0.994,-12.961,18.443,0.575,-1.543,-3.327
