deltaTime,Acc_X,Acc_Y,Acc_Z,Gyro_X,Gyro_Y,Gyro_Z
0.0,-9.497,-1.225,3.669,-0.176,0.367,0.052
3.0,-9.273,-1.225,3.669,-0.083,0.371,0.13
6.0,-9.273,-1.225,3.669,-0.083,0.371,0.13
9.0,-9.273,-1.225,3.669,-0.083,0.371,0.13
12.0,-9.034,-1.367,3.636,0.062,0.369,0.162
15.0,-9.034,-1.367,3.636,0.062,0.369,0.162
18.0,-9.034,-1.367,3.636,0.062,0.369,0.162
21.0,-9.031,-1.267,3.516,0.198,0.362,0.157
24.0,-9.031,-1.267,3.516,0.198,0.362,0.157
27.0,-9.031,-1.267,3.516,0.198,0.362,0.157
30.0,-9.102,-0.756,3.283,0.198,0.362,0.157
33.0,-9.102,-0.756,3.283,0.283,0.357,0.134
36.0,-9.102,-0.756,3.283,0.283,0.357,0.134
39.0,-9.102,-0.756,3.283,0.283,0.357,0.134
43.0,-9.293,-0.088,3.051,0.269,0.355,0.103
46.0,-9.293,-0.088,3.051,0.269,0.355,0.103
50.0,-9.58,0.412,2.951,0.269,0.355,0.079
54.0,-9.58,0.412,2.951,0.145,0.353,0.079
57.0,-9.58,0.412,2.951,0.145,0.353,0.079
61.0,-9.9,0.602,2.946,-0.049,0.349,0.078
64.0,-9.9,0.602,2.946,-0.049,0.349,0.078
68.0,-9.9,0.602,2.946,-0.049,0.349,0.078
72.0,-10.159,0.415,3.029,-0.258,0.334,0.106
75.0,-10.159,0.415,3.029,-0.258,0.334,0.106
79.0,-10.159,0.03,3.092,-0.258,0.334,0.106
83.0,-10.173,0.03,3.092,-0.423,0.305,0.16
87.0,-10.173,0.03,3.092,-0.423,0.305,0.16
90.0,-10.043,-0.238,3.011,-0.529,0.27,0.215
94.0,-10.043,-0.238,3.011,-0.529,0.27,0.215
98.0,-10.043,-0.238,3.011,-0.529,0.27,0.215
102.0,-9.899,-0.307,2.914,-0.62,0.246,0.252
106.0,-9.899,-0.307,2.914,-0.62,0.246,0.252
109.0,-9.794,-0.397,2.828,-0.62,0.236,0.28
113.0,-9.794,-0.397,2.828,-0.727,0.236,0.28
117.0,-9.794,-0.397,2.828,-0.727,0.236,0.28
121.0,-9.559,-0.485,2.701,-0.842,0.233,0.305
125.0,-9.559,-0.485,2.701,-0.842,0.233,0.305
129.0,-9.559,-0.482,2.56,-0.842,0.233,0.305
132.0,-9.36,-0.482,2.56,-0.959,0.237,0.328
136.0,-9.36,-0.482,2.56,-0.959,0.237,0.328
140.0,-9.297,-0.398,2.497,-1.095,0.25,0.343
144.0,-9.297,-0.398,2.497,-1.095,0.25,0.343
148.0,-9.297,-0.398,2.497,-1.095,0.25,0.343
152.0,-9.385,-0.482,2.585,-1.258,0.278,0.361
155.0,-9.385,-0.482,2.585,-1.258,0.278,0.361
159.0,-9.604,-0.599,2.773,-1.427,0.315,0.382
163.0,-9.604,-0.599,2.773,-1.427,0.315,0.382
167.0,-9.604,-0.599,2.773,-1.427,0.315,0.382
171.0,-9.82,-0.696,3.121,-1.594,0.347,0.396
174.0,-9.82,-0.696,3.121,-1.594,0.347,0.396
178.0,-10.033,-0.898,3.546,-1.594,0.347,0.396
182.0,-10.033,-0.898,3.546,-1.746,0.363,0.403
186.0,-10.033,-0.898,3.546,-1.746,0.363,0.403
190.0,-10.183,-1.202,3.96,-1.854,0.357,0.423
194.0,-10.183,-1.202,3.96,-1.854,0.357,0.423
198.0,-10.42,-1.352,4.264,-1.854,0.357,0.423
202.0,-10.42,-1.352,4.264,-1.911,0.329,0.454
206.0,-10.42,-1.352,4.264,-1.911,0.329,0.454
209.0,-10.54,-1.445,4.333,-1.952,0.282,0.475
213.0,-10.54,-1.445,4.333,-1.952,0.282,0.475
217.0,-10.54,-1.445,4.347,-1.952,0.282,0.475
221.0,-10.531,-1.997,4.347,-1.966,0.23,0.499
225.0,-10.531,-1.997,4.347,-1.966,0.23,0.499
229.0,-10.343,-2.39,4.172,-1.907,0.176,0.525
233.0,-10.343,-2.39,4.172,-1.907,0.176,0.525
237.0,-10.343,-2.39,4.172,-1.907,0.176,0.525
241.0,-10.016,-2.593,3.821,-1.791,0.132,0.539
245.0,-10.016,-2.593,3.821,-1.791,0.132,0.539
249.0,-9.68,-2.66,3.465,-1.648,0.115,0.527
252.0,-9.68,-2.66,3.465,-1.648,0.115,0.527
256.0,-9.68,-2.66,3.465,-1.648,0.115,0.527
260.0,-9.595,-2.686,3.226,-1.486,0.133,0.499
264.0,-9.595,-2.686,3.226,-1.486,0.133,0.499
268.0,-9.803,-2.669,3.009,-1.308,0.171,0.462
271.0,-9.803,-2.669,3.009,-1.308,0.171,0.462
275.0,-9.803,-2.669,3.009,-1.308,0.171,0.462
279.0,-10.338,-2.64,2.83,-1.121,0.204,0.423
283.0,-10.338,-2.64,2.83,-1.121,0.204,0.423
287.0,-11.113,-2.605,2.857,-1.121,0.204,0.399
291.0,-11.113,-2.605,2.857,-0.936,0.2,0.399
295.0,-11.113,-2.605,2.857,-0.936,0.2,0.399
299.0,-11.707,-2.511,2.88,-0.762,0.158,0.395
303.0,-11.707,-2.511,2.88,-0.762,0.158,0.395
306.0,-11.776,-2.348,2.876,-0.762,0.158,0.395
310.0,-11.776,-2.348,2.876,-0.604,0.089,0.393
314.0,-11.776,-2.348,2.876,-0.604,0.089,0.393
318.0,-11.392,-2.216,2.845,-0.473,0.016,0.387
322.0,-11.392,-2.216,2.845,-0.473,0.016,0.387
326.0,-11.392,-2.176,2.767,-0.473,0.016,0.387
330.0,-10.799,-2.176,2.767,-0.357,-0.042,0.384
334.0,-10.799,-2.176,2.767,-0.357,-0.042,0.384
338.0,-10.056,-1.989,2.579,-0.25,-0.081,0.37
342.0,-10.056,-1.989,2.579,-0.25,-0.081,0.37
346.0,-9.54,-1.801,2.387,-0.25,-0.081,0.37
350.0,-9.54,-1.801,2.387,-0.167,-0.096,0.335
354.0,-9.54,-1.801,2.387,-0.167,-0.096,0.335
358.0,-9.336,-1.599,2.215,-0.114,-0.09,0.291
361.0,-9.336,-1.599,2.215,-0.114,-0.09,0.291
365.0,-9.336,-1.599,2.039,-0.114,-0.09,0.291
369.0,-9.287,-1.421,2.039,-0.089,-0.078,0.254
373.0,-9.287,-1.421,2.039,-0.089,-0.078,0.254
377.0,-9.315,-1.264,1.916,-0.091,-0.07,0.226
381.0,-9.315,-1.264,1.916,-0.091,-0.07,0.226
385.0,-9.315,-1.264,1.916,-0.091,-0.07,0.226
389.0,-9.355,-1.163,1.826,-0.114,-0.065,0.208
393.0,-9.355,-1.163,1.826,-0.114,-0.065,0.208
397.0,-9.45,-1.085,1.733,-0.155,-0.06,0.2
401.0,-9.45,-1.085,1.733,-0.155,-0.06,0.2
404.0,-9.45,-1.085,1.733,-0.155,-0.06,0.2
408.0,-9.566,-1.046,1.653,-0.207,-0.05,0.201
412.0,-9.566,-1.046,1.653,-0.207,-0.05,0.201
416.0,-9.601,-1.019,1.572,-0.269,-0.039,0.213
420.0,-9.601,-1.019,1.572,-0.269,-0.039,0.213
424.0,-9.601,-1.019,1.572,-0.269,-0.039,0.213
428.0,-9.534,-0.997,1.53,-0.34,-0.028,0.239
432.0,-9.534,-0.997,1.53,-0.34,-0.028,0.239
436.0,-9.479,-1.003,1.475,-0.418,-0.013,0.275
440.0,-9.479,-1.003,1.475,-0.418,-0.013,0.275
444.0,-9.479,-1.003,1.475,-0.418,-0.013,0.275
447.0,-9.47,-1.019,1.411,-0.501,0.01,0.315
451.0,-9.47,-1.019,1.411,-0.501,0.01,0.315
455.0,-9.515,-1.052,1.379,-0.587,0.039,0.361
459.0,-9.515,-1.052,1.379,-0.587,0.039,0.361
463.0,-9.515,-1.052,1.379,-0.587,0.039,0.361
467.0,-9.477,-1.095,1.397,-0.674,0.068,0.417
470.0,-9.477,-1.095,1.397,-0.674,0.068,0.417
474.0,-9.477,-1.153,1.389,-0.674,0.068,0.417
478.0,-9.42,-1.153,1.389,-0.76,0.09,0.481
482.0,-9.42,-1.153,1.389,-0.76,0.09,0.481
486.0,-9.434,-1.209,1.369,-0.844,0.11,0.545
489.0,-9.434,-1.209,1.369,-0.844,0.11,0.545
493.0,-9.434,-1.209,1.369,-0.844,0.11,0.545
497.0,-9.497,-1.254,1.324,-0.927,0.131,0.61
501.0,-9.497,-1.254,1.324,-0.927,0.131,0.61
505.0,-9.608,-1.272,1.283,-1.011,0.15,0.676
509.0,-9.608,-1.272,1.283,-1.011,0.15,0.676
512.0,-9.608,-1.272,1.283,-1.011,0.15,0.676
516.0,-9.816,-1.267,1.281,-1.099,0.163,0.743
520.0,-9.816,-1.267,1.281,-1.099,0.163,0.743
524.0,-10.119,-1.238,1.223,-1.099,0.163,0.805
528.0,-10.119,-1.238,1.223,-1.19,0.167,0.805
532.0,-10.119,-1.238,1.223,-1.19,0.167,0.805
536.0,-10.357,-1.168,1.195,-1.289,0.165,0.858
539.0,-10.357,-1.168,1.195,-1.289,0.165,0.858
543.0,-10.417,-1.077,1.228,-1.289,0.165,0.858
547.0,-10.417,-1.077,1.228,-1.397,0.146,0.899
551.0,-10.417,-1.077,1.228,-1.397,0.146,0.899
555.0,-10.312,-0.961,1.214,-1.511,0.103,0.919
559.0,-10.312,-0.961,1.214,-1.511,0.103,0.919
563.0,-10.312,-0.961,1.127,-1.511,0.103,0.919
567.0,-10.228,-0.826,1.127,-1.63,0.045,0.913
571.0,-10.228,-0.826,1.127,-1.63,0.045,0.913
575.0,-10.172,-0.693,0.949,-1.756,-0.009,0.882
579.0,-10.172,-0.693,0.949,-1.756,-0.009,0.882
583.0,-10.172,-0.693,0.803,-1.756,-0.009,0.882
587.0,-10.088,-0.549,0.803,-1.895,-0.052,0.836
591.0,-10.088,-0.549,0.803,-1.895,-0.052,0.836
595.0,-9.998,-0.45,0.707,-2.047,-0.087,0.785
598.0,-9.998,-0.45,0.707,-2.047,-0.087,0.785
602.0,-9.998,-0.385,0.65,-2.047,-0.087,0.785
606.0,-10.002,-0.385,0.65,-2.207,-0.115,0.732
610.0,-10.002,-0.385,0.65,-2.207,-0.115,0.732
614.0,-10.155,-0.395,0.616,-2.367,-0.14,0.679
618.0,-10.155,-0.395,0.616,-2.367,-0.14,0.679
622.0,-10.525,-0.437,0.537,-2.367,-0.14,0.679
626.0,-10.525,-0.437,0.537,-2.519,-0.17,0.626
630.0,-10.525,-0.437,0.537,-2.519,-0.17,0.626
634.0,-10.966,-0.541,0.398,-2.665,-0.212,0.574
638.0,-10.966,-0.541,0.398,-2.665,-0.212,0.574
642.0,-11.464,-0.61,0.242,-2.665,-0.212,0.574
646.0,-11.464,-0.61,0.242,-2.806,-0.266,0.519
650.0,-11.464,-0.61,0.242,-2.806,-0.266,0.519
654.0,-11.923,-0.63,-0.039,-2.947,-0.332,0.458
658.0,-11.923,-0.63,-0.039,-2.947,-0.332,0.458
662.0,-12.045,-0.66,-0.32,-3.097,-0.396,0.395
666.0,-12.045,-0.66,-0.32,-3.097,-0.396,0.395
671.0,-12.045,-0.66,-0.32,-3.097,-0.396,0.395
675.0,-11.788,-0.684,-0.473,-3.257,-0.452,0.332
679.0,-11.788,-0.684,-0.473,-3.257,-0.452,0.332
683.0,-11.181,-0.754,-0.478,-3.418,-0.493,0.268
687.0,-11.181,-0.754,-0.478,-3.418,-0.493,0.268
691.0,-11.181,-0.754,-0.478,-3.418,-0.493,0.268
695.0,-10.41,-0.892,-0.404,-3.564,-0.516,0.204
699.0,-10.41,-0.892,-0.404,-3.564,-0.516,0.204
703.0,-9.763,-1.045,-0.33,-3.682,-0.518,0.14
707.0,-9.763,-1.045,-0.33,-3.682,-0.518,0.14
711.0,-9.322,-1.172,-0.279,-3.682,-0.518,0.14
715.0,-9.322,-1.172,-0.279,-3.765,-0.501,0.087
719.0,-9.322,-1.172,-0.279,-3.765,-0.501,0.087
723.0,-9.087,-1.315,-0.216,-3.819,-0.468,0.053
727.0,-9.087,-1.315,-0.216,-3.819,-0.468,0.053
731.0,-8.978,-1.503,-0.122,-3.819,-0.468,0.046
735.0,-8.978,-1.503,-0.122,-3.846,-0.426,0.046
739.0,-8.978,-1.503,-0.122,-3.846,-0.426,0.046
743.0,-8.996,-1.704,-0.033,-3.845,-0.381,0.068
747.0,-8.996,-1.704,-0.033,-3.845,-0.381,0.068
751.0,-9.025,-1.938,0.055,-3.845,-0.338,0.119
755.0,-9.025,-1.938,0.055,-3.816,-0.338,0.119
759.0,-9.025,-1.938,0.055,-3.816,-0.338,0.119
763.0,-8.977,-2.2,0.151,-3.757,-0.3,0.193
767.0,-8.977,-2.2,0.151,-3.757,-0.3,0.193
771.0,-8.96,-2.487,0.217,-3.757,-0.3,0.283
775.0,-8.96,-2.487,0.217,-3.668,-0.274,0.283
778.0,-8.96,-2.487,0.217,-3.668,-0.274,0.283
782.0,-9.096,-2.721,0.245,-3.548,-0.255,0.384
786.0,-9.096,-2.721,0.245,-3.548,-0.255,0.384
790.0,-9.347,-2.953,0.232,-3.548,-0.255,0.384
794.0,-9.347,-2.953,0.232,-3.4,-0.24,0.495
798.0,-9.347,-2.953,0.232,-3.4,-0.24,0.495
802.0,-9.543,-3.13,0.206,-3.228,-0.232,0.616
806.0,-9.543,-3.13,0.206,-3.228,-0.232,0.616
810.0,-9.543,-3.13,0.2,-3.228,-0.232,0.616
814.0,-9.638,-3.267,0.2,-3.037,-0.231,0.739
817.0,-9.638,-3.267,0.2,-3.037,-0.231,0.739
821.0,-9.707,-3.358,0.2,-2.833,-0.236,0.854
825.0,-9.707,-3.358,0.2,-2.833,-0.236,0.854
829.0,-9.707,-3.358,0.2,-2.833,-0.236,0.854
833.0,-9.698,-3.385,0.196,-2.617,-0.242,0.956
837.0,-9.698,-3.385,0.196,-2.617,-0.242,0.956
841.0,-9.592,-3.345,0.2,-2.391,-0.247,1.04
845.0,-9.592,-3.345,0.2,-2.391,-0.247,1.04
849.0,-9.592,-3.345,0.2,-2.391,-0.247,1.04
853.0,-9.41,-3.266,0.248,-2.158,-0.249,1.104
857.0,-9.41,-3.266,0.248,-2.158,-0.249,1.104
860.0,-9.239,-3.144,0.294,-1.925,-0.248,1.146
864.0,-9.239,-3.144,0.294,-1.925,-0.248,1.146
868.0,-9.239,-3.144,0.294,-1.925,-0.248,1.146
872.0,-9.101,-3.016,0.323,-1.697,-0.242,1.171
876.0,-9.101,-3.016,0.323,-1.697,-0.242,1.171
880.0,-9.097,-2.861,0.289,-1.481,-0.228,1.181
884.0,-9.097,-2.861,0.289,-1.481,-0.228,1.181
888.0,-9.097,-2.861,0.289,-1.481,-0.228,1.181
892.0,-9.429,-2.675,0.154,-1.29,-0.202,1.178
896.0,-9.429,-2.675,0.154,-1.29,-0.202,1.178
900.0,-9.93,-2.512,-0.009,-1.133,-0.158,1.173
903.0,-9.93,-2.512,-0.009,-1.133,-0.158,1.173
907.0,-9.93,-2.512,-0.009,-1.133,-0.158,1.173
911.0,-10.286,-2.387,-0.004,-1.008,-0.11,1.166
916.0,-10.286,-2.387,-0.004,-1.008,-0.11,1.166
920.0,-10.435,-2.272,0.071,-0.912,-0.071,1.152
924.0,-10.435,-2.272,0.071,-0.912,-0.071,1.152
928.0,-10.435,-2.272,0.071,-0.912,-0.071,1.152
932.0,-10.376,-2.2,0.163,-0.839,-0.04,1.124
936.0,-10.376,-2.2,0.163,-0.839,-0.04,1.124
940.0,-10.101,-2.124,0.249,-0.784,-0.018,1.074
944.0,-10.101,-2.124,0.249,-0.784,-0.018,1.074
948.0,-10.101,-2.124,0.249,-0.784,-0.018,1.074
952.0,-9.802,-2.026,0.264,-0.745,-0.003,0.996
955.0,-9.802,-2.026,0.264,-0.745,-0.003,0.996
959.0,-9.678,-1.908,0.16,-0.721,0.021,0.9
963.0,-9.678,-1.908,0.16,-0.721,0.021,0.9
967.0,-9.678,-1.908,0.16,-0.721,0.021,0.9
971.0,-9.884,-1.747,-0.005,-0.712,0.07,0.8
975.0,-9.884,-1.747,-0.005,-0.712,0.07,0.8
979.0,-10.234,-1.607,-0.095,-0.723,0.148,0.711
983.0,-10.234,-1.607,-0.095,-0.723,0.148,0.711
987.0,-10.234,-1.607,-0.095,-0.723,0.148,0.711
991.0,-10.302,-1.545,0.008,-0.752,0.23,0.649
995.0,-10.302,-1.545,0.008,-0.752,0.23,0.649
998.0,-9.89,-1.559,0.272,-0.793,0.292,0.612
1002.0,-9.89,-1.559,0.272,-0.793,0.292,0.612
1006.0,-9.89,-1.559,0.272,-0.793,0.292,0.612
1010.0,-9.224,-1.664,0.513,-0.834,0.331,0.582
1014.0,-9.224,-1.664,0.513,-0.834,0.331,0.582
1018.0,-8.706,-1.756,0.623,-0.865,0.361,0.542
1022.0,-8.706,-1.756,0.623,-0.865,0.361,0.542
1026.0,-8.706,-1.756,0.623,-0.865,0.361,0.542
1030.0,-8.487,-1.819,0.599,-0.884,0.395,0.491
1034.0,-8.487,-1.819,0.599,-0.884,0.395,0.491
1037.0,-8.565,-1.844,0.496,-0.884,0.442,0.447
1041.0,-8.565,-1.844,0.496,-0.898,0.442,0.447
1045.0,-8.565,-1.844,0.496,-0.898,0.442,0.447
1049.0,-8.932,-1.848,0.398,-0.915,0.501,0.423
1053.0,-8.932,-1.848,0.398,-0.915,0.501,0.423
1057.0,-9.339,-1.884,0.407,-0.915,0.501,0.428
1061.0,-9.339,-1.884,0.407,-0.937,0.566,0.428
1065.0,-9.339,-1.884,0.407,-0.937,0.566,0.428
1069.0,-9.37,-1.999,0.552,-0.962,0.616,0.455
1073.0,-9.37,-1.999,0.552,-0.962,0.616,0.455
1077.0,-9.081,-2.116,0.724,-0.962,0.616,0.455
1080.0,-9.081,-2.116,0.724,-0.981,0.645,0.488
1084.0,-9.081,-2.116,0.724,-0.981,0.645,0.488
1088.0,-8.749,-2.252,0.866,-0.986,0.669,0.516
1092.0,-8.749,-2.252,0.866,-0.986,0.669,0.516
1096.0,-8.749,-2.342,0.959,-0.986,0.669,0.516
1100.0,-8.553,-2.342,0.959,-0.971,0.7,0.531
1104.0,-8.553,-2.342,0.959,-0.971,0.7,0.531
1108.0,-8.622,-2.385,0.972,-0.941,0.747,0.543
1112.0,-8.622,-2.385,0.972,-0.941,0.747,0.543
1116.0,-8.622,-2.385,1.05,-0.941,0.747,0.543
1119.0,-9.022,-2.396,1.05,-0.904,0.813,0.568
1123.0,-9.022,-2.396,1.05,-0.904,0.813,0.568
1127.0,-9.641,-2.423,1.197,-0.863,0.889,0.611
1131.0,-9.641,-2.423,1.197,-0.863,0.889,0.611
1135.0,-9.641,-2.423,1.197,-0.863,0.889,0.611
1139.0,-10.309,-2.448,1.627,-0.82,0.954,0.669
1143.0,-10.309,-2.448,1.627,-0.82,0.954,0.669
1147.0,-10.789,-2.469,2.25,-0.766,0.965,0.733
1151.0,-10.789,-2.469,2.25,-0.766,0.965,0.733
1155.0,-10.789,-2.469,3.01,-0.766,0.965,0.733
1159.0,-10.947,-2.429,3.01,-0.695,0.894,0.785
1163.0,-10.947,-2.429,3.01,-0.695,0.894,0.785
1167.0,-10.954,-2.265,3.586,-0.611,0.731,0.815
1171.0,-10.954,-2.265,3.586,-0.611,0.731,0.815
1175.0,-10.954,-2.057,3.606,-0.611,0.731,0.815
1179.0,-10.533,-2.057,3.606,-0.537,0.519,0.823
1183.0,-10.533,-2.057,3.606,-0.537,0.519,0.823
1187.0,-10.254,-1.694,3.056,-0.499,0.377,0.809
1191.0,-10.254,-1.694,3.056,-0.499,0.377,0.809
1195.0,-9.991,-1.275,2.843,-0.499,0.377,0.809
1199.0,-9.991,-1.275,2.843,-0.531,0.315,0.797
1203.0,-9.991,-1.275,2.843,-0.531,0.315,0.797
1207.0,-9.728,-0.952,2.785,-0.635,0.331,0.795
1211.0,-9.728,-0.952,2.785,-0.635,0.331,0.795
1214.0,-9.728,-0.766,3.05,-0.635,0.331,0.795
1218.0,-9.254,-0.766,3.05,-0.793,0.379,0.803
1222.0,-9.254,-0.766,3.05,-0.793,0.379,0.803
1226.0,-8.721,-0.688,3.491,-0.971,0.41,0.793
1230.0,-8.721,-0.688,3.491,-0.971,0.41,0.793
1234.0,-8.721,-0.688,3.87,-0.971,0.41,0.793
1238.0,-8.246,-0.699,3.87,-1.14,0.394,0.735
1242.0,-8.246,-0.699,3.87,-1.14,0.394,0.735
1246.0,-8.043,-0.632,4.019,-1.288,0.339,0.603
1250.0,-8.043,-0.632,4.019,-1.288,0.339,0.603
1253.0,-8.043,-0.632,4.019,-1.288,0.339,0.603
1257.0,-8.127,-0.522,4.017,-1.431,0.277,0.413
1261.0,-8.127,-0.522,4.017,-1.431,0.277,0.413
1265.0,-8.508,-0.36,4.043,-1.579,0.225,0.196
1269.0,-8.508,-0.36,4.043,-1.579,0.225,0.196
1273.0,-8.508,-0.36,4.043,-1.579,0.225,0.196
1277.0,-9.065,-0.246,4.158,-1.731,0.18,-0.015
1281.0,-9.065,-0.246,4.158,-1.731,0.18,-0.015
1285.0,-9.543,-0.277,4.241,-1.869,0.127,-0.198
1289.0,-9.543,-0.277,4.241,-1.869,0.127,-0.198
1293.0,-9.543,-0.277,4.241,-1.869,0.127,-0.198
1297.0,-9.912,-0.43,4.315,-1.974,0.064,-0.353
1301.0,-9.912,-0.43,4.315,-1.974,0.064,-0.353
1305.0,-10.385,-0.675,4.458,-2.035,-0.01,-0.49
1309.0,-10.385,-0.675,4.458,-2.035,-0.01,-0.49
1313.0,-10.385,-0.914,4.546,-2.035,-0.01,-0.49
1317.0,-10.902,-0.914,4.546,-2.043,-0.096,-0.616
1322.0,-10.902,-0.914,4.546,-2.043,-0.096,-0.616
1326.0,-11.168,-1.167,4.6,-2.004,-0.196,-0.733
1330.0,-11.168,-1.167,4.6,-2.004,-0.196,-0.733
1334.0,-11.128,-1.369,4.629,-1.922,-0.307,-0.845
1338.0,-11.128,-1.369,4.629,-1.922,-0.307,-0.845
1342.0,-11.128,-1.369,4.629,-1.922,-0.307,-0.845
1347.0,-10.88,-1.549,4.58,-1.806,-0.415,-0.957
1351.0,-10.88,-1.549,4.58,-1.806,-0.415,-0.957
1355.0,-10.543,-1.64,4.445,-1.669,-0.509,-1.066
1359.0,-10.543,-1.64,4.445,-1.669,-0.509,-1.066
1363.0,-10.299,-1.76,4.284,-1.669,-0.576,-1.165
1367.0,-10.299,-1.76,4.284,-1.527,-0.576,-1.165
1372.0,-10.299,-1.76,4.284,-1.527,-0.576,-1.165
1376.0,-10.286,-1.88,4.169,-1.371,-0.612,-1.256
1380.0,-10.286,-1.88,4.169,-1.371,-0.612,-1.256
1384.0,-10.347,-2.005,4.048,-1.203,-0.633,-1.327
1388.0,-10.347,-2.005,4.048,-1.203,-0.633,-1.327
1392.0,-10.33,-2.119,3.912,-1.203,-0.633,-1.327
1397.0,-10.33,-2.119,3.912,-1.026,-0.654,-1.378
1401.0,-10.33,-2.119,3.912,-1.026,-0.654,-1.378
1405.0,-10.394,-2.207,3.794,-0.84,-0.672,-1.421
1409.0,-10.394,-2.207,3.794,-0.84,-0.672,-1.421
1413.0,-10.793,-2.279,3.78,-0.643,-0.674,-1.458
1417.0,-10.793,-2.279,3.78,-0.643,-0.674,-1.458
1422.0,-10.793,-2.279,3.824,-0.643,-0.674,-1.458
1426.0,-11.446,-2.324,3.824,-0.432,-0.665,-1.478
1430.0,-11.446,-2.324,3.824,-0.432,-0.665,-1.478
1434.0,-12.024,-2.347,3.84,-0.212,-0.666,-1.472
1438.0,-12.024,-2.347,3.84,-0.212,-0.666,-1.472
1442.0,-12.267,-2.268,3.887,0.009,-0.695,-1.439
1446.0,-12.267,-2.268,3.887,0.009,-0.695,-1.439
1451.0,-12.267,-2.268,3.887,0.009,-0.695,-1.439
1455.0,-11.989,-2.149,3.836,0.217,-0.754,-1.397
1459.0,-11.989,-2.149,3.836,0.217,-0.754,-1.397
1463.0,-11.297,-1.96,3.712,0.403,-0.828,-1.371
1467.0,-11.297,-1.96,3.712,0.403,-0.828,-1.371
1471.0,-11.297,-1.96,3.486,0.403,-0.828,-1.371
1475.0,-10.401,-1.785,3.486,0.563,-0.889,-1.374
1479.0,-10.401,-1.785,3.486,0.563,-0.889,-1.374
1483.0,-9.593,-1.613,3.281,0.7,-0.919,-1.407
1487.0,-9.593,-1.613,3.281,0.7,-0.919,-1.407
1491.0,-9.089,-1.389,3.137,0.7,-0.919,-1.407
1495.0,-9.089,-1.389,3.137,0.82,-0.915,-1.452
1499.0,-9.089,-1.389,3.137,0.82,-0.915,-1.452
1503.0,-8.783,-1.236,2.981,0.92,-0.891,-1.484
1507.0,-8.783,-1.236,2.981,0.92,-0.891,-1.484
1511.0,-8.572,-1.124,2.83,0.92,-0.891,-1.496
1515.0,-8.572,-1.124,2.83,1.004,-0.856,-1.496
1519.0,-8.572,-1.124,2.83,1.004,-0.856,-1.496
1523.0,-8.449,-1.038,2.8,1.078,-0.811,-1.484
1527.0,-8.449,-1.038,2.8,1.078,-0.811,-1.484
1531.0,-8.343,-1.004,2.785,1.142,-0.77,-1.454
1535.0,-8.343,-1.004,2.785,1.142,-0.77,-1.454
1539.0,-8.343,-1.004,2.785,1.142,-0.77,-1.454
1543.0,-8.253,-1.039,2.695,1.2,-0.733,-1.41
1547.0,-8.253,-1.039,2.695,1.2,-0.733,-1.41
1551.0,-8.241,-1.085,2.559,1.253,-0.689,-1.362
1555.0,-8.241,-1.085,2.559,1.253,-0.689,-1.362
1559.0,-8.241,-1.085,2.559,1.253,-0.689,-1.362
1563.0,-8.377,-1.13,2.497,1.298,-0.628,-1.304
1567.0,-8.377,-1.13,2.497,1.298,-0.628,-1.304
1571.0,-8.536,-1.187,2.496,1.337,-0.557,-1.23
1575.0,-8.536,-1.187,2.496,1.337,-0.557,-1.23
1579.0,-8.536,-1.187,2.496,1.337,-0.557,-1.23
1583.0,-8.662,-1.25,2.492,1.372,-0.486,-1.142
1587.0,-8.662,-1.25,2.492,1.372,-0.486,-1.142
1591.0,-8.845,-1.306,2.498,1.403,-0.408,-1.046
1595.0,-8.845,-1.306,2.498,1.403,-0.408,-1.046
1599.0,-8.845,-1.306,2.498,1.403,-0.408,-1.046
1603.0,-9.003,-1.334,2.564,1.43,-0.328,-0.946
1607.0,-9.003,-1.334,2.564,1.43,-0.328,-0.946
1611.0,-9.015,-1.357,2.755,1.46,-0.259,-0.842
1615.0,-9.015,-1.357,2.755,1.46,-0.259,-0.842
1619.0,-9.015,-1.357,2.856,1.46,-0.259,-0.842
1623.0,-8.788,-1.364,2.856,1.493,-0.217,-0.736
1627.0,-8.788,-1.364,2.856,1.493,-0.217,-0.736
1631.0,-8.431,-1.348,2.855,1.525,-0.197,-0.644
1635.0,-8.431,-1.348,2.855,1.525,-0.197,-0.644
1639.0,-8.431,-1.314,2.744,1.525,-0.197,-0.644
1643.0,-8.059,-1.314,2.744,1.556,-0.174,-0.574
1647.0,-8.059,-1.314,2.744,1.556,-0.174,-0.574
1651.0,-7.747,-1.246,2.425,1.582,-0.131,-0.521
1655.0,-7.747,-1.246,2.425,1.582,-0.131,-0.521
1659.0,-7.718,-1.193,1.987,1.582,-0.131,-0.521
1663.0,-7.718,-1.193,1.987,1.598,-0.042,-0.469
1667.0,-7.718,-1.193,1.987,1.598,-0.042,-0.469
1671.0,-8.184,-1.145,1.749,1.595,0.118,-0.397
1675.0,-8.184,-1.145,1.749,1.595,0.118,-0.397
1679.0,-8.86,-1.177,1.816,1.595,0.118,-0.397
1683.0,-8.86,-1.177,1.816,1.583,0.32,-0.278
1686.0,-8.86,-1.177,1.816,1.583,0.32,-0.278
1690.0,-9.422,-1.248,2.163,1.572,0.511,-0.106
1694.0,-9.422,-1.248,2.163,1.572,0.511,-0.106
1698.0,-9.422,-1.368,2.632,1.572,0.511,-0.106
1702.0,-9.641,-1.368,2.632,1.57,0.639,0.098
1706.0,-9.641,-1.368,2.632,1.57,0.639,0.098
1710.0,-9.31,-1.503,2.989,1.579,0.681,0.294
1714.0,-9.31,-1.503,2.989,1.579,0.681,0.294
1717.0,-9.31,-1.503,2.989,1.579,0.681,0.294
1721.0,-8.563,-1.597,3.039,1.599,0.655,0.436
1725.0,-8.563,-1.597,3.039,1.599,0.655,0.436
1729.0,-7.828,-1.576,2.843,1.625,0.615,0.494
1733.0,-7.828,-1.576,2.843,1.625,0.615,0.494
1736.0,-7.828,-1.576,2.843,1.625,0.615,0.494
1740.0,-7.277,-1.476,2.631,1.655,0.6,0.477
1744.0,-7.277,-1.476,2.631,1.655,0.6,0.477
1748.0,-6.857,-1.304,2.386,1.655,0.6,0.418
1752.0,-6.857,-1.304,2.386,1.684,0.607,0.418
1756.0,-6.857,-1.304,2.386,1.684,0.607,0.418
1759.0,-6.512,-1.09,2.147,1.701,0.627,0.353
1763.0,-6.512,-1.09,2.147,1.701,0.627,0.353
1767.0,-6.512,-1.09,2.007,1.701,0.627,0.353
1771.0,-6.299,-0.881,2.007,1.704,0.659,0.296
1775.0,-6.299,-0.881,2.007,1.704,0.659,0.296
1778.0,-6.167,-0.731,1.804,1.696,0.699,0.248
1782.0,-6.167,-0.731,1.804,1.696,0.699,0.248
1786.0,-6.167,-0.731,1.804,1.696,0.699,0.248
1790.0,-6.255,-0.637,1.69,1.677,0.754,0.209
1794.0,-6.255,-0.637,1.69,1.677,0.754,0.209
1798.0,-6.496,-0.595,1.609,1.677,0.82,0.181
1801.0,-6.496,-0.595,1.609,1.651,0.82,0.181
1805.0,-6.496,-0.595,1.609,1.651,0.82,0.181
1809.0,-6.794,-0.608,1.62,1.62,0.885,0.165
1813.0,-6.794,-0.608,1.62,1.62,0.885,0.165
1817.0,-6.794,-0.659,1.764,1.62,0.885,0.165
1821.0,-7.118,-0.659,1.764,1.585,0.935,0.157
1824.0,-7.118,-0.659,1.764,1.585,0.935,0.157
1828.0,-7.494,-0.721,1.918,1.552,0.957,0.144
1832.0,-7.494,-0.721,1.918,1.552,0.957,0.144
1836.0,-7.494,-0.721,1.918,1.552,0.957,0.144
1840.0,-7.985,-0.723,2.004,1.514,0.946,0.116
1843.0,-7.985,-0.723,2.004,1.514,0.946,0.116
1847.0,-8.617,-0.672,2.056,1.468,0.914,0.074
1851.0,-8.617,-0.672,2.056,1.468,0.914,0.074
1855.0,-8.617,-0.672,2.056,1.468,0.914,0.074
1859.0,-9.273,-0.569,2.185,1.416,0.858,0.028
1863.0,-9.273,-0.569,2.185,1.416,0.858,0.028
1866.0,-9.748,-0.461,2.196,1.416,0.858,-0.001
1870.0,-9.748,-0.461,2.196,1.355,0.766,-0.001
1874.0,-9.748,-0.461,2.196,1.355,0.766,-0.001
1878.0,-10.047,-0.38,2.015,1.277,0.655,-0.018
1882.0,-10.047,-0.38,2.015,1.277,0.655,-0.018
1886.0,-10.272,-0.264,1.782,1.277,0.655,-0.018
1890.0,-10.272,-0.264,1.782,1.173,0.56,-0.031
1894.0,-10.272,-0.264,1.782,1.173,0.56,-0.031
1898.0,-10.528,-0.109,1.598,1.036,0.495,-0.04
1902.0,-10.528,-0.109,1.598,1.036,0.495,-0.04
1906.0,-10.732,0.004,1.433,1.036,0.456,-0.044
1910.0,-10.732,0.004,1.433,0.867,0.456,-0.044
1914.0,-10.732,0.004,1.433,0.867,0.456,-0.044
1918.0,-10.877,0.106,1.363,0.668,0.441,-0.043
1922.0,-10.877,0.106,1.363,0.668,0.441,-0.043
1926.0,-10.986,0.23,1.436,0.668,0.441,-0.043
1929.0,-10.986,0.23,1.436,0.447,0.441,-0.046
1933.0,-10.986,0.23,1.436,0.447,0.441,-0.046
1937.0,-10.979,0.328,1.611,0.214,0.439,-0.059
1941.0,-10.979,0.328,1.611,0.214,0.439,-0.059
1945.0,-10.895,0.443,1.791,0.214,0.439,-0.059
1949.0,-10.895,0.443,1.791,-0.024,0.427,-0.091
1953.0,-10.895,0.443,1.791,-0.024,0.427,-0.091
1957.0,-10.784,0.546,1.978,-0.261,0.415,-0.142
1961.0,-10.784,0.546,1.978,-0.261,0.415,-0.142
1965.0,-10.472,0.611,2.153,-0.261,0.415,-0.142
1969.0,-10.472,0.611,2.153,-0.494,0.403,-0.207
1973.0,-10.472,0.611,2.153,-0.494,0.403,-0.207
1977.0,-9.989,0.595,2.307,-0.719,0.401,-0.284
1981.0,-9.989,0.595,2.307,-0.719,0.401,-0.284
1985.0,-9.835,0.547,2.532,-0.719,0.401,-0.284
1989.0,-9.835,0.547,2.532,-0.926,0.431,-0.372
1993.0,-9.835,0.547,2.532,-0.926,0.431,-0.372
1996.0,-9.937,0.443,2.898,-1.095,0.493,-0.455
2000.0,-9.937,0.443,2.898,-1.095,0.493,-0.455
2004.0,-9.937,0.351,3.515,-1.095,0.493,-0.455
2008.0,-10.043,0.351,3.515,-1.209,0.548,-0.518
2012.0,-10.043,0.351,3.515,-1.209,0.548,-0.518
2016.0,-10.081,0.313,4.264,-1.255,0.552,-0.552
2020.0,-10.081,0.313,4.264,-1.255,0.552,-0.552
2024.0,-9.735,0.31,4.84,-1.255,0.552,-0.552
2028.0,-9.735,0.31,4.84,-1.235,0.512,-0.568
2032.0,-9.735,0.31,4.84,-1.235,0.512,-0.568
2036.0,-9.203,0.496,5.352,-1.168,0.491,-0.604
2040.0,-9.203,0.496,5.352,-1.168,0.491,-0.604
2044.0,-9.203,0.852,6.03,-1.168,0.491,-0.604
2048.0,-9.088,0.852,6.03,-1.08,0.516,-0.661
2051.0,-9.088,0.852,6.03,-1.08,0.516,-0.661
2055.0,-9.616,1.073,6.575,-0.992,0.518,-0.682
2059.0,-9.616,1.073,6.575,-0.992,0.518,-0.682
2063.0,-9.616,1.073,6.674,-0.992,0.518,-0.682
2067.0,-10.377,0.839,6.674,-0.9,0.424,-0.616
2071.0,-10.377,0.839,6.674,-0.9,0.424,-0.616
2075.0,-10.458,0.176,6.645,-0.755,0.235,-0.469
2079.0,-10.458,0.176,6.645,-0.755,0.235,-0.469
2083.0,-10.458,0.176,6.479,-0.755,0.235,-0.469
2087.0,-9.755,-0.614,6.479,-0.521,0.047,-0.32
2091.0,-9.755,-0.614,6.479,-0.521,0.047,-0.32
2095.0,-8.799,-1.26,6.416,-0.204,-0.073,-0.215
2099.0,-8.799,-1.26,6.416,-0.204,-0.073,-0.215
2103.0,-8.014,-1.663,6.488,-0.204,-0.073,-0.215
2107.0,-8.014,-1.663,6.488,0.173,-0.101,-0.148
2111.0,-8.014,-1.663,6.488,0.173,-0.101,-0.148
2115.0,-7.746,-1.771,6.739,0.572,-0.046,-0.102
2119.0,-7.746,-1.771,6.739,0.572,-0.046,-0.102
2123.0,-8.283,-1.692,7.057,0.572,0.023,-0.049
2127.0,-8.283,-1.692,7.057,0.952,0.023,-0.049
2131.0,-8.283,-1.692,7.057,0.952,0.023,-0.049
2135.0,-9.274,-1.466,7.329,1.289,0.021,0.034
2139.0,-9.274,-1.466,7.329,1.289,0.021,0.034
2143.0,-10.21,-1.155,7.316,1.289,0.021,0.034
2147.0,-10.21,-1.155,7.316,1.568,-0.068,0.132
2151.0,-10.21,-1.155,7.316,1.568,-0.068,0.132
2155.0,-10.825,-0.696,7.21,1.777,-0.193,0.22
2159.0,-10.825,-0.696,7.21,1.777,-0.193,0.22
2163.0,-11.015,-0.202,6.988,1.777,-0.193,0.292
2167.0,-11.015,-0.202,6.988,1.907,-0.322,0.292
2171.0,-11.015,-0.202,6.988,1.907,-0.322,0.292
2174.0,-10.951,0.343,6.703,1.953,-0.448,0.345
2178.0,-10.951,0.343,6.703,1.953,-0.448,0.345
2182.0,-10.866,0.803,6.261,1.953,-0.448,0.373
2186.0,-10.866,0.803,6.261,1.912,-0.565,0.373
2190.0,-10.866,0.803,6.261,1.912,-0.565,0.373
2194.0,-10.953,1.223,5.752,1.784,-0.656,0.37
2198.0,-10.953,1.223,5.752,1.784,-0.656,0.37
2202.0,-11.228,1.677,5.419,1.784,-0.656,0.37
2206.0,-11.228,1.677,5.419,1.572,-0.722,0.348
2210.0,-11.228,1.677,5.419,1.572,-0.722,0.348
2214.0,-11.436,1.997,5.156,1.286,-0.786,0.332
2217.0,-11.436,1.997,5.156,1.286,-0.786,0.332
2221.0,-11.436,2.104,4.916,1.286,-0.786,0.332
2225.0,-11.545,2.104,4.916,0.938,-0.861,0.32
2229.0,-11.545,2.104,4.916,0.938,-0.861,0.32
2233.0,-11.64,2.062,4.708,0.549,-0.944,0.3
2237.0,-11.64,2.062,4.708,0.549,-0.944,0.3
2241.0,-11.64,2.062,4.417,0.549,-0.944,0.3
2245.0,-11.786,1.92,4.417,0.141,-1.025,0.261
2249.0,-11.786,1.92,4.417,0.141,-1.025,0.261
2253.0,-12.035,1.727,3.986,-0.275,-1.1,0.197
2257.0,-12.035,1.727,3.986,-0.275,-1.1,0.197
2261.0,-12.035,1.727,3.644,-0.275,-1.1,0.197
2265.0,-12.283,1.648,3.644,-0.692,-1.162,0.109
2269.0,-12.283,1.648,3.644,-0.692,-1.162,0.109
2273.0,-12.132,1.528,3.347,-1.1,-1.236,0.016
2277.0,-12.132,1.528,3.347,-1.1,-1.236,0.016
2281.0,-12.132,1.298,3.024,-1.1,-1.236,0.016
2285.0,-11.56,1.298,3.024,-1.485,-1.334,-0.077
2289.0,-11.56,1.298,3.024,-1.485,-1.334,-0.077
2293.0,-11.072,1.032,2.624,-1.831,-1.432,-0.183
2297.0,-11.072,1.032,2.624,-1.831,-1.432,-0.183
2301.0,-10.878,0.824,2.224,-1.831,-1.508,-0.306
2305.0,-10.878,0.824,2.224,-2.13,-1.508,-0.306
2309.0,-10.878,0.824,2.224,-2.13,-1.508,-0.306
2313.0,-10.869,0.675,1.861,-2.39,-1.564,-0.429
2317.0,-10.869,0.675,1.861,-2.39,-1.564,-0.429
2321.0,-10.826,0.556,1.546,-2.622,-1.609,-0.547
2325.0,-10.826,0.556,1.546,-2.622,-1.609,-0.547
2329.0,-10.826,0.556,1.546,-2.622,-1.609,-0.547
2334.0,-10.718,0.43,1.296,-2.834,-1.639,-0.663
2338.0,-10.718,0.43,1.296,-2.834,-1.639,-0.663
2342.0,-10.549,0.309,1.213,-3.021,-1.651,-0.781
2346.0,-10.549,0.309,1.213,-3.021,-1.651,-0.781
2350.0,-10.37,0.167,1.247,-3.021,-1.651,-0.781
2354.0,-10.37,0.167,1.247,-3.175,-1.657,-0.898
2358.0,-10.37,0.167,1.247,-3.175,-1.657,-0.898
2362.0,-10.185,0.025,1.406,-3.289,-1.658,-1.009
2366.0,-10.185,0.025,1.406,-3.289,-1.658,-1.009
2370.0,-9.928,-0.159,1.575,-3.36,-1.657,-1.106
2374.0,-9.928,-0.159,1.575,-3.36,-1.657,-1.106
2378.0,-9.928,-0.159,1.575,-3.36,-1.657,-1.106
2382.0,-9.678,-0.371,1.629,-3.391,-1.647,-1.187
2387.0,-9.678,-0.371,1.629,-3.391,-1.647,-1.187
2391.0,-9.534,-0.581,1.701,-3.389,-1.614,-1.25
2395.0,-9.534,-0.581,1.701,-3.389,-1.614,-1.25
2399.0,-9.534,-0.581,1.701,-3.389,-1.614,-1.25
2403.0,-9.465,-0.776,1.783,-3.358,-1.559,-1.289
2407.0,-9.465,-0.776,1.783,-3.358,-1.559,-1.289
2411.0,-9.404,-0.937,1.902,-3.296,-1.492,-1.299
2415.0,-9.404,-0.937,1.902,-3.296,-1.492,-1.299
2419.0,-9.309,-0.997,2.217,-3.296,-1.492,-1.28
2423.0,-9.309,-0.997,2.217,-3.211,-1.427,-1.28
2427.0,-9.309,-0.997,2.217,-3.211,-1.427,-1.28
2431.0,-9.042,-1.15,2.499,-3.1,-1.37,-1.231
2436.0,-9.042,-1.15,2.499,-3.1,-1.37,-1.231
2440.0,-8.68,-1.226,2.725,-2.959,-1.313,-1.156
2444.0,-8.68,-1.226,2.725,-2.959,-1.313,-1.156
2448.0,-8.68,-1.226,2.725,-2.959,-1.313,-1.156
2452.0,-8.233,-1.315,2.955,-2.799,-1.234,-1.069
2456.0,-8.233,-1.315,2.955,-2.799,-1.234,-1.069
2460.0,-7.511,-1.446,3.242,-2.622,-1.127,-0.981
2464.0,-7.511,-1.446,3.242,-2.622,-1.127,-0.981
2468.0,-7.511,-1.628,3.766,-2.622,-1.127,-0.981
2472.0,-6.647,-1.628,3.766,-2.422,-0.983,-0.893
2476.0,-6.647,-1.628,3.766,-2.422,-0.983,-0.893
2480.0,-6.095,-1.86,4.399,-2.179,-0.801,-0.798
2484.0,-6.095,-1.86,4.399,-2.179,-0.801,-0.798
2489.0,-5.995,-2.139,5.132,-2.179,-0.598,-0.672
2493.0,-5.995,-2.139,5.132,-1.883,-0.598,-0.672
2497.0,-5.995,-2.139,5.132,-1.883,-0.598,-0.672
2501.0,-6.242,-2.417,6.012,-1.522,-0.411,-0.489
2505.0,-6.242,-2.417,6.012,-1.522,-0.411,-0.489
2509.0,-6.642,-2.709,6.758,-1.102,-0.289,-0.247
2513.0,-6.642,-2.709,6.758,-1.102,-0.289,-0.247
2517.0,-6.642,-2.709,6.758,-1.102,-0.289,-0.247
2521.0,-7.055,-3.007,7.063,-0.65,-0.235,0.023
2525.0,-7.055,-3.007,7.063,-0.65,-0.235,0.023
2529.0,-7.647,-3.174,6.93,-0.193,-0.218,0.284
2533.0,-7.647,-3.174,6.93,-0.193,-0.218,0.284
2537.0,-7.647,-3.174,6.773,-0.193,-0.218,0.284
2541.0,-8.397,-3.234,6.773,0.243,-0.202,0.531
2545.0,-8.397,-3.234,6.773,0.243,-0.202,0.531
2549.0,-8.964,-3.138,6.668,0.647,-0.197,0.763
2553.0,-8.964,-3.138,6.668,0.647,-0.197,0.763
2557.0,-8.964,-3.138,6.412,0.647,-0.197,0.763
2561.0,-9.176,-2.878,6.412,1.007,-0.225,0.978
2565.0,-9.176,-2.878,6.412,1.007,-0.225,0.978
2569.0,-9.208,-2.45,6.142,1.315,-0.262,1.155
2572.0,-9.208,-2.45,6.142,1.315,-0.262,1.155
2576.0,-9.208,-2.45,6.142,1.315,-0.262,1.155
2580.0,-9.143,-1.843,5.979,1.572,-0.291,1.291
2584.0,-9.143,-1.843,5.979,1.572,-0.291,1.291
2588.0,-8.901,-1.217,5.728,1.779,-0.327,1.393
2592.0,-8.901,-1.217,5.728,1.779,-0.327,1.393
2596.0,-8.901,-1.217,5.728,1.779,-0.327,1.393
2600.0,-8.652,-0.616,5.375,1.928,-0.364,1.461
2604.0,-8.652,-0.616,5.375,1.928,-0.364,1.461
2608.0,-8.515,0.016,5.16,2.01,-0.384,1.485
2611.0,-8.515,0.016,5.16,2.01,-0.384,1.485
2615.0,-8.515,0.016,5.16,2.01,-0.384,1.485
2619.0,-8.617,0.641,4.965,2.021,-0.384,1.47
2623.0,-8.617,0.641,4.965,2.021,-0.384,1.47
2627.0,-9.142,1.183,4.779,2.021,-0.368,1.438
2630.0,-9.142,1.183,4.779,1.953,-0.368,1.438
2634.0,-9.142,1.183,4.779,1.953,-0.368,1.438
2638.0,-9.903,1.71,4.841,1.807,-0.343,1.403
2642.0,-9.903,1.71,4.841,1.807,-0.343,1.403
2646.0,-9.903,1.71,5.066,1.807,-0.343,1.403
2650.0,-10.379,2.111,5.066,1.597,-0.339,1.368
2653.0,-10.379,2.111,5.066,1.597,-0.339,1.368
2657.0,-10.815,2.347,5.233,1.338,-0.364,1.32
2661.0,-10.815,2.347,5.233,1.338,-0.364,1.32
2665.0,-10.815,2.347,5.233,1.338,-0.364,1.32
2669.0,-11.475,2.576,5.445,1.05,-0.401,1.248
2673.0,-11.475,2.576,5.445,1.05,-0.401,1.248
2677.0,-12.112,2.853,5.729,0.753,-0.453,1.158
2681.0,-12.112,2.853,5.729,0.753,-0.453,1.158
2685.0,-12.112,2.853,5.729,0.753,-0.453,1.158
2689.0,-12.365,3.126,5.881,0.453,-0.54,1.072
2693.0,-12.365,3.126,5.881,0.453,-0.54,1.072
2696.0,-12.321,3.31,5.836,0.144,-0.653,0.999
2700.0,-12.321,3.31,5.836,0.144,-0.653,0.999
2704.0,-12.321,3.31,5.836,0.144,-0.653,0.999
2708.0,-12.0,3.567,5.834,-0.168,-0.77,0.933
2712.0,-12.0,3.567,5.834,-0.168,-0.77,0.933
2716.0,-11.432,3.62,5.576,-0.479,-0.897,0.876
2720.0,-11.432,3.62,5.576,-0.479,-0.897,0.876
2724.0,-11.432,3.62,5.576,-0.479,-0.897,0.876
2728.0,-11.042,3.568,5.02,-0.79,-1.009,0.816
2732.0,-11.042,3.568,5.02,-0.79,-1.009,0.816
2736.0,-10.831,3.546,4.688,-1.096,-1.081,0.755
2740.0,-10.831,3.546,4.688,-1.096,-1.081,0.755
2744.0,-10.831,3.546,4.688,-1.096,-1.081,0.755
2748.0,-10.573,3.502,4.694,-1.385,-1.144,0.701
2752.0,-10.573,3.502,4.694,-1.385,-1.144,0.701
2756.0,-10.266,3.375,4.771,-1.645,-1.243,0.664
2760.0,-10.266,3.375,4.771,-1.645,-1.243,0.664
2764.0,-10.266,3.375,4.571,-1.645,-1.243,0.664
2768.0,-9.991,3.094,4.571,-1.868,-1.373,0.634
2772.0,-9.991,3.094,4.571,-1.868,-1.373,0.634
2776.0,-9.904,2.844,4.277,-2.064,-1.49,0.593
2780.0,-9.904,2.844,4.277,-2.064,-1.49,0.593
2784.0,-9.904,2.844,4.277,-2.064,-1.49,0.593
2788.0,-10.032,2.622,4.146,-2.24,-1.565,0.548
2792.0,-10.032,2.622,4.146,-2.24,-1.565,0.548
2796.0,-10.262,2.431,4.274,-2.397,-1.608,0.52
2800.0,-10.262,2.431,4.274,-2.397,-1.608,0.52
2804.0,-10.262,2.431,4.571,-2.397,-1.608,0.52
2808.0,-10.429,2.244,4.571,-2.521,-1.643,0.519
2812.0,-10.429,2.244,4.571,-2.521,-1.643,0.519
2816.0,-10.667,2.09,4.858,-2.604,-1.684,0.548
2820.0,-10.667,2.09,4.858,-2.604,-1.684,0.548
2824.0,-10.667,1.915,4.95,-2.604,-1.684,0.548
2828.0,-10.94,1.915,4.95,-2.652,-1.73,0.614
2832.0,-10.94,1.915,4.95,-2.652,-1.73,0.614
2836.0,-11.223,1.748,4.884,-2.675,-1.765,0.72
2840.0,-11.223,1.748,4.884,-2.675,-1.765,0.72
2843.0,-11.371,1.545,4.734,-2.675,-1.765,0.72
2847.0,-11.371,1.545,4.734,-2.689,-1.779,0.867
2851.0,-11.371,1.545,4.734,-2.689,-1.779,0.867
2855.0,-11.393,1.402,4.755,-2.696,-1.774,1.045
2859.0,-11.393,1.402,4.755,-2.696,-1.774,1.045
2863.0,-11.198,1.319,4.909,-2.696,-1.774,1.238
2867.0,-11.198,1.319,4.909,-2.688,-1.775,1.238
2871.0,-11.198,1.319,4.909,-2.688,-1.775,1.238
2875.0,-10.908,1.258,4.948,-2.653,-1.797,1.418
2879.0,-10.908,1.258,4.948,-2.653,-1.797,1.418
2883.0,-10.792,1.207,4.579,-2.653,-1.827,1.558
2887.0,-10.792,1.207,4.579,-2.589,-1.827,1.558
2891.0,-10.792,1.207,4.579,-2.589,-1.827,1.558
2895.0,-10.84,1.257,4.103,-2.514,-1.843,1.663
2899.0,-10.84,1.257,4.103,-2.514,-1.843,1.663
2903.0,-10.857,1.42,3.852,-2.451,-1.851,1.76
2907.0,-10.857,1.42,3.852,-2.451,-1.851,1.76
2911.0,-10.857,1.42,3.852,-2.451,-1.851,1.76
2915.0,-10.792,1.517,3.724,-2.404,-1.862,1.873
2919.0,-10.792,1.517,3.724,-2.404,-1.862,1.873
2923.0,-10.807,1.485,3.447,-2.375,-1.865,2.0
2927.0,-10.807,1.485,3.447,-2.375,-1.865,2.0
2931.0,-10.807,1.485,3.447,-2.375,-1.865,2.0
2935.0,-11.076,1.389,3.078,-2.37,-1.833,2.13
2939.0,-11.076,1.389,3.078,-2.37,-1.833,2.13
2943.0,-11.626,1.252,2.725,-2.394,-1.757,2.254
2947.0,-11.626,1.252,2.725,-2.394,-1.757,2.254
2951.0,-11.626,1.252,2.725,-2.394,-1.757,2.254
2955.0,-12.306,1.058,2.459,-2.453,-1.658,2.371
2959.0,-12.306,1.058,2.459,-2.453,-1.658,2.371
2963.0,-12.914,0.874,2.255,-2.541,-1.554,2.474
2967.0,-12.914,0.874,2.255,-2.541,-1.554,2.474
2971.0,-12.914,0.874,2.255,-2.541,-1.554,2.474
2975.0,-13.39,0.663,2.119,-2.649,-1.453,2.563
2979.0,-13.39,0.663,2.119,-2.649,-1.453,2.563
2983.0,-13.754,0.448,1.966,-2.764,-1.357,2.637
2987.0,-13.754,0.448,1.966,-2.764,-1.357,2.637
2991.0,-13.754,0.448,1.82,-2.764,-1.357,2.637
2995.0,-14.064,0.22,1.82,-2.877,-1.256,2.701
2999.0,-14.064,0.22,1.82,-2.877,-1.256,2.701
