deltaTime,Acc_X,Acc_Y,Acc_Z,Gyro_X,Gyro_Y,Gyro_Z
0.0,-4.289,-1.64,2.737,1.342,-0.24,-0.999
3.0,-4.289,-1.64,2.737,1.342,-0.24,-0.999
6.0,-4.289,-1.64,2.737,1.342,-0.24,-0.999
9.0,-5.065,-1.644,2.701,1.265,-0.233,-0.981
12.0,-5.065,-1.644,2.701,1.265,-0.233,-0.981
15.0,-5.065,-1.644,2.701,1.265,-0.233,-0.981
18.0,-6.135,-1.563,2.782,1.265,-0.233,-0.981
21.0,-6.135,-1.563,2.782,1.173,-0.194,-0.944
24.0,-6.135,-1.563,2.782,1.173,-0.194,-0.944
27.0,-6.135,-1.563,2.782,1.173,-0.194,-0.944
30.0,-7.667,-1.756,2.906,1.064,-0.128,-0.883
33.0,-7.667,-1.756,2.906,1.064,-0.128,-0.883
37.0,-7.667,-1.756,2.906,1.064,-0.128,-0.883
41.0,-9.626,-2.006,2.962,0.959,-0.029,-0.793
44.0,-9.626,-2.006,2.962,0.959,-0.029,-0.793
48.0,-11.911,-2.129,3.156,0.844,0.103,-0.679
52.0,-11.911,-2.129,3.156,0.844,0.103,-0.679
56.0,-11.911,-2.129,3.156,0.844,0.103,-0.679
60.0,-14.356,-2.115,3.59,0.702,0.262,-0.528
64.0,-14.356,-2.115,3.59,0.702,0.262,-0.528
67.0,-16.659,-2.01,4.136,0.702,0.262,-0.528
71.0,-16.659,-2.01,4.136,0.501,0.427,-0.328
75.0,-16.659,-2.01,4.136,0.501,0.427,-0.328
79.0,-18.805,-2.053,4.804,0.229,0.574,-0.09
83.0,-18.805,-2.053,4.804,0.229,0.574,-0.09
86.0,-18.805,-2.053,4.804,0.229,0.574,-0.09
90.0,-19.6,-2.422,5.454,-0.081,0.676,0.172
94.0,-19.6,-2.422,5.454,-0.081,0.676,0.172
98.0,-19.6,-2.998,5.811,-0.355,0.719,0.436
102.0,-19.6,-2.998,5.811,-0.355,0.719,0.436
106.0,-19.6,-2.998,5.811,-0.355,0.719,0.436
110.0,-19.6,-3.626,5.754,-0.542,0.699,0.661
113.0,-19.6,-3.626,5.754,-0.542,0.699,0.661
117.0,-19.6,-4.048,5.399,-0.631,0.658,0.831
121.0,-19.6,-4.048,5.399,-0.631,0.658,0.831
125.0,-19.6,-4.048,5.399,-0.631,0.658,0.831
129.0,-19.6,-3.958,4.635,-0.636,0.627,0.947
133.0,-19.6,-3.958,4.635,-0.636,0.627,0.947
137.0,-19.6,-3.45,3.478,-0.616,0.639,1.004
141.0,-19.6,-3.45,3.478,-0.616,0.639,1.004
145.0,-19.6,-3.45,3.478,-0.616,0.639,1.004
149.0,-19.6,-2.356,2.492,-0.626,0.702,0.992
153.0,-19.6,-2.356,2.492,-0.626,0.702,0.992
156.0,-19.292,-1.516,2.161,-0.626,0.792,0.913
160.0,-19.292,-1.516,2.161,-0.734,0.792,0.913
164.0,-19.292,-1.516,2.161,-0.734,0.792,0.913
168.0,-18.166,-0.686,2.422,-0.932,0.886,0.762
172.0,-18.166,-0.686,2.422,-0.932,0.886,0.762
176.0,-16.592,-0.394,2.69,-0.932,0.886,0.608
180.0,-16.592,-0.394,2.69,-1.188,0.897,0.608
184.0,-16.592,-0.394,2.69,-1.188,0.897,0.608
188.0,-14.311,0.115,3.046,-1.449,0.789,0.482
191.0,-14.311,0.115,3.046,-1.449,0.789,0.482
195.0,-14.311,0.265,3.299,-1.449,0.789,0.482
199.0,-12.437,0.265,3.299,-1.705,0.636,0.325
203.0,-12.437,0.265,3.299,-1.705,0.636,0.325
207.0,-11.37,0.283,3.219,-1.895,0.483,0.194
211.0,-11.37,0.283,3.219,-1.895,0.483,0.194
214.0,-11.37,0.283,3.219,-1.895,0.483,0.194
218.0,-10.732,0.251,2.811,-1.996,0.32,0.13
222.0,-10.732,0.251,2.811,-1.996,0.32,0.13
226.0,-9.684,0.33,2.18,-2.018,0.14,0.138
230.0,-9.684,0.33,2.18,-2.018,0.14,0.138
233.0,-9.684,0.33,2.18,-2.018,0.14,0.138
237.0,-8.42,-0.037,1.638,-1.994,-0.003,0.184
241.0,-8.42,-0.037,1.638,-1.994,-0.003,0.184
245.0,-7.577,-0.638,1.177,-1.994,-0.003,0.184
249.0,-7.577,-0.638,1.177,-1.896,-0.075,0.251
253.0,-7.577,-0.638,1.177,-1.896,-0.075,0.251
257.0,-7.51,-1.208,0.65,-1.714,-0.077,0.31
261.0,-7.51,-1.208,0.65,-1.714,-0.077,0.31
264.0,-7.51,-1.557,0.144,-1.714,-0.077,0.31
268.0,-8.361,-1.557,0.144,-1.469,-0.019,0.346
272.0,-8.361,-1.557,0.144,-1.469,-0.019,0.346
276.0,-9.65,-1.622,-0.144,-1.202,0.064,0.376
280.0,-9.65,-1.622,-0.144,-1.202,0.064,0.376
284.0,-9.65,-1.622,-0.09,-1.202,0.064,0.376
288.0,-10.78,-1.405,-0.09,-0.961,0.124,0.418
292.0,-10.78,-1.405,-0.09,-0.961,0.124,0.418
296.0,-11.166,-0.955,-0.097,-0.774,0.13,0.488
300.0,-11.166,-0.955,-0.097,-0.774,0.13,0.488
304.0,-11.166,-0.955,-0.005,-0.774,0.13,0.488
308.0,-10.39,-0.57,-0.005,-0.653,0.099,0.577
312.0,-10.39,-0.57,-0.005,-0.653,0.099,0.577
316.0,-9.578,-0.143,0.313,-0.577,0.074,0.657
320.0,-9.578,-0.143,0.313,-0.577,0.074,0.657
323.0,-9.578,-0.143,0.391,-0.577,0.074,0.657
327.0,-9.035,0.264,0.391,-0.52,0.064,0.729
331.0,-9.035,0.264,0.391,-0.52,0.064,0.729
335.0,-8.453,0.589,0.321,-0.481,0.065,0.815
338.0,-8.453,0.589,0.321,-0.481,0.065,0.815
342.0,-8.453,0.589,0.321,-0.481,0.065,0.815
346.0,-7.676,0.757,0.269,-0.478,0.07,0.912
350.0,-7.676,0.757,0.269,-0.478,0.07,0.912
353.0,-6.91,0.837,0.24,-0.478,0.07,0.912
357.0,-6.91,0.837,0.24,-0.514,0.085,0.998
361.0,-6.91,0.837,0.24,-0.514,0.085,0.998
365.0,-6.181,0.843,0.222,-0.584,0.12,1.053
368.0,-6.181,0.843,0.222,-0.584,0.12,1.053
372.0,-6.181,0.843,0.222,-0.584,0.12,1.053
376.0,-5.523,0.835,0.257,-0.677,0.173,1.072
380.0,-5.523,0.835,0.257,-0.677,0.173,1.072
383.0,-4.945,0.878,0.342,-0.677,0.173,1.057
387.0,-4.945,0.878,0.342,-0.782,0.233,1.057
391.0,-4.945,0.878,0.342,-0.782,0.233,1.057
394.0,-4.456,0.856,0.48,-0.889,0.281,1.019
398.0,-4.456,0.856,0.48,-0.889,0.281,1.019
402.0,-4.456,0.856,0.48,-0.889,0.281,1.019
406.0,-4.05,0.804,0.596,-0.99,0.305,0.961
409.0,-4.05,0.804,0.596,-0.99,0.305,0.961
413.0,-3.683,0.645,0.648,-0.99,0.311,0.892
417.0,-3.683,0.645,0.648,-1.074,0.311,0.892
421.0,-3.683,0.645,0.648,-1.074,0.311,0.892
424.0,-3.346,0.502,0.761,-1.127,0.305,0.81
428.0,-3.346,0.502,0.761,-1.127,0.305,0.81
432.0,-3.346,0.502,0.761,-1.127,0.305,0.81
435.0,-3.06,0.407,0.961,-1.146,0.295,0.722
439.0,-3.06,0.407,0.961,-1.146,0.295,0.722
443.0,-2.859,0.415,1.243,-1.133,0.274,0.638
447.0,-2.859,0.415,1.243,-1.133,0.274,0.638
450.0,-2.859,0.415,1.243,-1.133,0.274,0.638
454.0,-2.694,0.541,1.551,-1.095,0.234,0.569
458.0,-2.694,0.541,1.551,-1.095,0.234,0.569
462.0,-2.694,0.541,1.786,-1.095,0.234,0.569
465.0,-2.524,0.684,1.786,-1.044,0.172,0.526
469.0,-2.524,0.684,1.786,-1.044,0.172,0.526
473.0,-2.298,0.787,1.902,-0.988,0.097,0.506
477.0,-2.298,0.787,1.902,-0.988,0.097,0.506
480.0,-2.298,0.787,1.902,-0.988,0.097,0.506
484.0,-2.039,0.901,1.923,-0.936,0.021,0.502
488.0,-2.039,0.901,1.923,-0.936,0.021,0.502
491.0,-2.039,0.973,1.94,-0.936,0.021,0.502
495.0,-1.769,0.973,1.94,-0.898,-0.044,0.511
499.0,-1.769,0.973,1.94,-0.898,-0.044,0.511
503.0,-1.544,0.98,1.939,-0.875,-0.105,0.526
507.0,-1.544,0.98,1.939,-0.875,-0.105,0.526
510.0,-1.544,0.98,1.939,-0.875,-0.105,0.526
514.0,-1.382,0.968,1.944,-0.865,-0.171,0.54
518.0,-1.382,0.968,1.944,-0.865,-0.171,0.54
522.0,-1.261,0.943,1.884,-0.872,-0.245,0.547
526.0,-1.261,0.943,1.884,-0.872,-0.245,0.547
530.0,-1.261,0.943,1.884,-0.872,-0.245,0.547
533.0,-1.206,0.905,1.774,-0.894,-0.32,0.545
537.0,-1.206,0.905,1.774,-0.894,-0.32,0.545
541.0,-1.228,0.86,1.695,-0.894,-0.32,0.545
545.0,-1.228,0.86,1.695,-0.935,-0.385,0.533
549.0,-1.228,0.86,1.695,-0.935,-0.385,0.533
553.0,-1.296,0.815,1.687,-0.989,-0.435,0.51
556.0,-1.296,0.815,1.687,-0.989,-0.435,0.51
560.0,-1.296,0.815,1.687,-0.989,-0.435,0.51
564.0,-1.473,0.771,1.74,-1.052,-0.458,0.477
568.0,-1.473,0.771,1.74,-1.052,-0.458,0.477
572.0,-1.969,0.716,1.877,-1.119,-0.429,0.433
575.0,-1.969,0.716,1.877,-1.119,-0.429,0.433
579.0,-1.969,0.716,1.877,-1.119,-0.429,0.433
583.0,-3.008,0.695,2.22,-1.186,-0.333,0.389
587.0,-3.008,0.695,2.22,-1.186,-0.333,0.389
591.0,-4.697,0.75,2.983,-1.186,-0.333,0.361
595.0,-4.697,0.75,2.983,-1.244,-0.18,0.361
598.0,-4.697,0.75,2.983,-1.244,-0.18,0.361
602.0,-7.098,0.776,4.126,-1.28,-0.012,0.366
606.0,-7.098,0.776,4.126,-1.28,-0.012,0.366
610.0,-7.098,0.776,5.368,-1.28,-0.012,0.366
614.0,-10.271,0.614,5.368,-1.279,0.116,0.401
617.0,-10.271,0.614,5.368,-1.279,0.116,0.401
621.0,-13.848,0.331,6.301,-1.234,0.167,0.444
625.0,-13.848,0.331,6.301,-1.234,0.167,0.444
629.0,-13.848,0.331,6.301,-1.234,0.167,0.444
633.0,-16.556,0.351,7.066,-1.162,0.124,0.468
637.0,-16.556,0.351,7.066,-1.162,0.124,0.468
640.0,-16.678,0.692,7.514,-1.107,-0.027,0.484
644.0,-16.678,0.692,7.514,-1.107,-0.027,0.484
648.0,-16.678,0.692,7.514,-1.107,-0.027,0.484
652.0,-15.11,0.894,7.368,-1.085,-0.212,0.468
656.0,-15.11,0.894,7.368,-1.085,-0.212,0.468
660.0,-13.767,1.112,7.016,-1.085,-0.29,0.37
664.0,-13.767,1.112,7.016,-1.066,-0.29,0.37
668.0,-13.767,1.112,7.016,-1.066,-0.29,0.37
672.0,-13.098,1.48,6.743,-1.031,-0.205,0.201
676.0,-13.098,1.48,6.743,-1.031,-0.205,0.201
679.0,-13.211,1.802,6.839,-1.031,-0.205,0.031
683.0,-13.211,1.802,6.839,-0.995,0.003,0.031
687.0,-13.211,1.802,6.839,-0.995,0.003,0.031
691.0,-14.584,1.897,7.351,-0.962,0.25,-0.094
695.0,-14.584,1.897,7.351,-0.962,0.25,-0.094
699.0,-14.584,1.863,8.004,-0.962,0.25,-0.094
703.0,-16.441,1.863,8.004,-0.913,0.463,-0.155
707.0,-16.441,1.863,8.004,-0.913,0.463,-0.155
710.0,-17.335,1.64,8.68,-0.828,0.593,-0.149
714.0,-17.335,1.64,8.68,-0.828,0.593,-0.149
718.0,-17.335,1.64,9.041,-0.828,0.593,-0.149
722.0,-17.532,1.092,9.041,-0.697,0.627,-0.102
726.0,-17.532,1.092,9.041,-0.697,0.627,-0.102
730.0,-17.999,0.535,8.873,-0.519,0.614,-0.07
734.0,-17.999,0.535,8.873,-0.519,0.614,-0.07
738.0,-17.999,0.535,8.873,-0.519,0.614,-0.07
742.0,-18.897,0.219,8.399,-0.314,0.606,-0.094
746.0,-18.897,0.219,8.399,-0.314,0.606,-0.094
750.0,-19.041,0.366,7.707,-0.115,0.598,-0.163
753.0,-19.041,0.366,7.707,-0.115,0.598,-0.163
757.0,-19.041,0.366,7.707,-0.115,0.598,-0.163
761.0,-17.798,0.784,7.21,0.054,0.554,-0.246
765.0,-17.798,0.784,7.21,0.054,0.554,-0.246
769.0,-16.4,1.128,6.374,0.195,0.446,-0.332
773.0,-16.4,1.128,6.374,0.195,0.446,-0.332
777.0,-16.4,1.128,6.374,0.195,0.446,-0.332
780.0,-15.343,1.562,5.201,0.305,0.31,-0.412
784.0,-15.343,1.562,5.201,0.305,0.31,-0.412
788.0,-14.299,1.741,3.905,0.305,0.31,-0.473
792.0,-14.299,1.741,3.905,0.36,0.176,-0.473
796.0,-14.299,1.741,3.905,0.36,0.176,-0.473
799.0,-13.412,1.954,2.822,0.342,0.066,-0.532
803.0,-13.412,1.954,2.822,0.342,0.066,-0.532
807.0,-13.412,1.954,2.088,0.342,0.066,-0.532
811.0,-12.733,2.107,2.088,0.264,-0.004,-0.579
815.0,-12.733,2.107,2.088,0.264,-0.004,-0.579
819.0,-12.062,2.115,1.875,0.15,-0.034,-0.619
823.0,-12.062,2.115,1.875,0.15,-0.034,-0.619
827.0,-12.062,2.115,1.875,0.15,-0.034,-0.619
830.0,-11.292,2.03,2.118,0.032,-0.055,-0.659
834.0,-11.292,2.03,2.118,0.032,-0.055,-0.659
838.0,-10.675,1.751,2.191,-0.077,-0.109,-0.692
842.0,-10.675,1.751,2.191,-0.077,-0.109,-0.692
846.0,-10.675,1.751,2.191,-0.077,-0.109,-0.692
850.0,-10.579,1.341,1.777,-0.189,-0.186,-0.714
854.0,-10.579,1.341,1.777,-0.189,-0.186,-0.714
858.0,-11.064,0.996,1.079,-0.332,-0.243,-0.717
862.0,-11.064,0.996,1.079,-0.332,-0.243,-0.717
866.0,-11.064,0.996,1.079,-0.332,-0.243,-0.717
870.0,-11.737,0.687,0.538,-0.523,-0.249,-0.693
874.0,-11.737,0.687,0.538,-0.523,-0.249,-0.693
878.0,-12.214,0.395,0.436,-0.754,-0.213,-0.626
882.0,-12.214,0.395,0.436,-0.754,-0.213,-0.626
886.0,-12.214,0.395,0.681,-0.754,-0.213,-0.626
890.0,-12.518,0.026,0.681,-0.995,-0.159,-0.507
894.0,-12.518,0.026,0.681,-0.995,-0.159,-0.507
898.0,-12.738,-0.448,0.988,-1.212,-0.103,-0.339
902.0,-12.738,-0.448,0.988,-1.212,-0.103,-0.339
906.0,-12.863,-0.964,1.225,-1.212,-0.103,-0.339
910.0,-12.863,-0.964,1.225,-1.38,-0.067,-0.141
914.0,-12.863,-0.964,1.225,-1.38,-0.067,-0.141
919.0,-12.921,-1.533,1.399,-1.486,-0.063,0.064
923.0,-12.921,-1.533,1.399,-1.486,-0.063,0.064
927.0,-12.852,-2.058,1.432,-1.519,-0.095,0.252
931.0,-12.852,-2.058,1.432,-1.519,-0.095,0.252
935.0,-12.852,-2.058,1.432,-1.519,-0.095,0.252
939.0,-12.669,-2.429,1.301,-1.486,-0.155,0.404
943.0,-12.669,-2.429,1.301,-1.486,-0.155,0.404
947.0,-12.389,-2.624,1.076,-1.395,-0.227,0.514
951.0,-12.389,-2.624,1.076,-1.395,-0.227,0.514
955.0,-12.389,-2.624,1.076,-1.395,-0.227,0.514
958.0,-11.93,-2.791,0.772,-1.254,-0.292,0.58
962.0,-11.93,-2.791,0.772,-1.254,-0.292,0.58
966.0,-11.22,-2.807,0.546,-1.073,-0.341,0.599
970.0,-11.22,-2.807,0.546,-1.073,-0.341,0.599
974.0,-11.22,-2.807,0.546,-1.073,-0.341,0.599
978.0,-10.276,-2.699,0.428,-0.874,-0.371,0.571
982.0,-10.276,-2.699,0.428,-0.874,-0.371,0.571
986.0,-9.212,-2.524,0.429,-0.674,-0.379,0.495
990.0,-9.212,-2.524,0.429,-0.674,-0.379,0.495
994.0,-9.212,-2.524,0.429,-0.674,-0.379,0.495
998.0,-8.103,-2.405,0.483,-0.476,-0.364,0.368
1002.0,-8.103,-2.405,0.483,-0.476,-0.364,0.368
1006.0,-6.995,-2.213,0.682,-0.268,-0.331,0.188
1010.0,-6.995,-2.213,0.682,-0.268,-0.331,0.188
1014.0,-6.995,-2.213,0.682,-0.268,-0.331,0.188
1018.0,-6.029,-2.28,0.966,-0.015,-0.29,-0.024
1022.0,-6.029,-2.28,0.966,-0.015,-0.29,-0.024
1026.0,-5.329,-2.392,1.325,0.316,-0.251,-0.237
1030.0,-5.329,-2.392,1.325,0.316,-0.251,-0.237
1034.0,-5.329,-2.392,1.655,0.316,-0.251,-0.237
1038.0,-4.903,-2.477,1.655,0.715,-0.222,-0.399
1042.0,-4.903,-2.477,1.655,0.715,-0.222,-0.399
1046.0,-4.705,-2.376,1.852,1.146,-0.198,-0.478
1050.0,-4.705,-2.376,1.852,1.146,-0.198,-0.478
1054.0,-4.705,-2.076,1.924,1.146,-0.198,-0.478
1058.0,-4.631,-2.076,1.924,1.568,-0.178,-0.471
1062.0,-4.631,-2.076,1.924,1.568,-0.178,-0.471
1066.0,-4.568,-1.695,1.833,1.918,-0.173,-0.391
1070.0,-4.568,-1.695,1.833,1.918,-0.173,-0.391
1074.0,-4.329,-1.404,1.576,1.918,-0.173,-0.391
1078.0,-4.329,-1.404,1.576,2.148,-0.179,-0.269
1082.0,-4.329,-1.404,1.576,2.148,-0.179,-0.269
1086.0,-3.967,-1.121,1.326,2.234,-0.18,-0.147
1090.0,-3.967,-1.121,1.326,2.234,-0.18,-0.147
1094.0,-3.422,-0.911,1.126,2.234,-0.18,-0.048
1098.0,-3.422,-0.911,1.126,2.183,-0.172,-0.048
1102.0,-3.422,-0.911,1.126,2.183,-0.172,-0.048
1106.0,-2.771,-0.827,0.992,2.021,-0.156,0.007
1110.0,-2.771,-0.827,0.992,2.021,-0.156,0.007
1114.0,-2.159,-0.827,0.939,2.021,-0.13,0.002
1118.0,-2.159,-0.827,0.939,1.786,-0.13,0.002
1122.0,-2.159,-0.827,0.939,1.786,-0.13,0.002
1126.0,-1.711,-0.801,0.917,1.509,-0.098,-0.061
1130.0,-1.711,-0.801,0.917,1.509,-0.098,-0.061
1134.0,-1.454,-0.723,0.905,1.509,-0.098,-0.168
1138.0,-1.454,-0.723,0.905,1.22,-0.064,-0.168
1142.0,-1.454,-0.723,0.905,1.22,-0.064,-0.168
1146.0,-1.44,-0.633,0.906,0.937,-0.034,-0.297
1150.0,-1.44,-0.633,0.906,0.937,-0.034,-0.297
1154.0,-1.648,-0.553,0.964,0.686,-0.015,-0.425
1158.0,-1.648,-0.553,0.964,0.686,-0.015,-0.425
1162.0,-1.648,-0.553,0.964,0.686,-0.015,-0.425
1166.0,-1.905,-0.479,1.01,0.483,-0.016,-0.538
1170.0,-1.905,-0.479,1.01,0.483,-0.016,-0.538
1174.0,-2.13,-0.552,0.989,0.339,-0.029,-0.626
1178.0,-2.13,-0.552,0.989,0.339,-0.029,-0.626
1181.0,-2.13,-0.552,0.989,0.339,-0.029,-0.626
1185.0,-2.31,-0.616,0.94,0.258,-0.035,-0.698
1189.0,-2.31,-0.616,0.94,0.258,-0.035,-0.698
1193.0,-2.526,-0.722,0.939,0.234,-0.025,-0.761
1197.0,-2.526,-0.722,0.939,0.234,-0.025,-0.761
1201.0,-2.526,-0.722,0.939,0.234,-0.025,-0.761
1205.0,-2.811,-0.797,1.037,0.264,-0.003,-0.812
1209.0,-2.811,-0.797,1.037,0.264,-0.003,-0.812
1213.0,-3.208,-0.683,1.202,0.337,0.016,-0.847
1217.0,-3.208,-0.683,1.202,0.337,0.016,-0.847
1221.0,-3.208,-0.683,1.202,0.337,0.016,-0.847
1225.0,-3.665,-0.598,1.283,0.43,0.02,-0.863
1229.0,-3.665,-0.598,1.283,0.43,0.02,-0.863
1233.0,-4.207,-0.544,1.322,0.519,0.023,-0.863
1237.0,-4.207,-0.544,1.322,0.519,0.023,-0.863
1241.0,-4.207,-0.544,1.322,0.519,0.023,-0.863
1245.0,-4.906,-0.553,1.393,0.588,0.036,-0.85
1249.0,-4.906,-0.553,1.393,0.588,0.036,-0.85
1253.0,-5.898,-0.595,1.534,0.629,0.064,-0.823
1256.0,-5.898,-0.595,1.534,0.629,0.064,-0.823
1260.0,-5.898,-0.595,1.534,0.629,0.064,-0.823
1264.0,-7.234,-0.711,1.76,0.631,0.108,-0.78
1268.0,-7.234,-0.711,1.76,0.631,0.108,-0.78
1272.0,-9.109,-0.99,1.982,0.591,0.168,-0.725
1276.0,-9.109,-0.99,1.982,0.591,0.168,-0.725
1280.0,-9.109,-0.99,1.982,0.591,0.168,-0.725
1284.0,-11.669,-1.337,2.201,0.513,0.246,-0.66
1288.0,-11.669,-1.337,2.201,0.513,0.246,-0.66
1292.0,-14.614,-1.531,2.404,0.403,0.327,-0.57
1296.0,-14.614,-1.531,2.404,0.403,0.327,-0.57
1300.0,-14.614,-1.531,2.404,0.403,0.327,-0.57
1304.0,-16.792,-1.473,2.744,0.256,0.384,-0.422
1308.0,-16.792,-1.473,2.744,0.256,0.384,-0.422
1312.0,-17.362,-1.542,3.114,0.08,0.394,-0.185
1316.0,-17.362,-1.542,3.114,0.08,0.394,-0.185
1320.0,-17.362,-1.542,3.114,0.08,0.394,-0.185
1324.0,-17.014,-1.841,3.337,-0.09,0.374,0.095
1328.0,-17.014,-1.841,3.337,-0.09,0.374,0.095
1332.0,-16.705,-2.224,3.259,-0.205,0.365,0.34
1336.0,-16.705,-2.224,3.259,-0.205,0.365,0.34
1340.0,-16.705,-2.224,3.259,-0.205,0.365,0.34
1344.0,-16.94,-2.425,3.022,-0.249,0.395,0.533
1348.0,-16.94,-2.425,3.022,-0.249,0.395,0.533
1352.0,-17.61,-2.468,2.768,-0.247,0.456,0.694
1356.0,-17.61,-2.468,2.768,-0.247,0.456,0.694
1360.0,-17.61,-2.468,2.768,-0.247,0.456,0.694
1364.0,-18.509,-2.395,2.657,-0.232,0.528,0.85
1368.0,-18.509,-2.395,2.657,-0.232,0.528,0.85
1372.0,-19.356,-2.366,2.59,-0.221,0.587,1.003
1376.0,-19.356,-2.366,2.59,-0.221,0.587,1.003
1380.0,-19.356,-2.366,2.59,-0.221,0.587,1.003
1384.0,-19.6,-2.378,2.558,-0.217,0.63,1.136
1388.0,-19.6,-2.378,2.558,-0.217,0.63,1.136
1392.0,-19.6,-2.344,2.487,-0.213,0.659,1.223
1396.0,-19.6,-2.344,2.487,-0.213,0.659,1.223
1400.0,-19.6,-2.319,2.395,-0.213,0.659,1.223
1404.0,-19.6,-2.319,2.395,-0.209,0.675,1.258
1408.0,-19.6,-2.319,2.395,-0.209,0.675,1.258
1412.0,-19.591,-2.258,2.205,-0.206,0.676,1.245
1416.0,-19.591,-2.258,2.205,-0.206,0.676,1.245
1420.0,-19.111,-2.121,1.879,-0.206,0.676,1.245
1424.0,-19.111,-2.121,1.879,-0.207,0.671,1.196
1428.0,-19.111,-2.121,1.879,-0.207,0.671,1.196
1431.0,-18.438,-1.951,1.6,-0.211,0.685,1.125
1435.0,-18.438,-1.951,1.6,-0.211,0.685,1.125
1439.0,-17.653,-1.832,1.478,-0.211,0.685,1.056
1443.0,-17.653,-1.832,1.478,-0.209,0.725,1.056
1447.0,-17.653,-1.832,1.478,-0.209,0.725,1.056
1451.0,-16.648,-1.743,1.551,-0.199,0.775,1.004
1455.0,-16.648,-1.743,1.551,-0.199,0.775,1.004
1459.0,-15.745,-1.633,1.787,-0.199,0.806,0.971
1463.0,-15.745,-1.633,1.787,-0.178,0.806,0.971
1467.0,-15.745,-1.633,1.787,-0.178,0.806,0.971
1471.0,-15.179,-1.419,2.069,-0.146,0.786,0.951
1475.0,-15.179,-1.419,2.069,-0.146,0.786,0.951
1479.0,-14.652,-1.208,2.106,-0.115,0.698,0.927
1483.0,-14.652,-1.208,2.106,-0.115,0.698,0.927
1487.0,-14.652,-1.208,2.106,-0.115,0.698,0.927
1491.0,-14.069,-1.03,1.852,-0.096,0.561,0.88
1495.0,-14.069,-1.03,1.852,-0.096,0.561,0.88
1499.0,-13.333,-0.859,1.549,-0.096,0.411,0.797
1503.0,-13.333,-0.859,1.549,-0.096,0.411,0.797
1507.0,-13.333,-0.859,1.549,-0.096,0.411,0.797
1511.0,-12.434,-0.69,1.257,-0.109,0.264,0.678
1515.0,-12.434,-0.69,1.257,-0.109,0.264,0.678
1519.0,-11.71,-0.483,0.837,-0.13,0.125,0.524
1523.0,-11.71,-0.483,0.837,-0.13,0.125,0.524
1527.0,-11.71,-0.483,0.837,-0.13,0.125,0.524
1531.0,-11.593,-0.238,0.25,-0.151,0.018,0.348
1535.0,-11.593,-0.238,0.25,-0.151,0.018,0.348
1539.0,-12.081,0.022,-0.354,-0.169,-0.03,0.175
1543.0,-12.081,0.022,-0.354,-0.169,-0.03,0.175
1547.0,-12.081,0.022,-0.712,-0.169,-0.03,0.175
1552.0,-12.797,0.284,-0.712,-0.192,-0.028,0.03
1556.0,-12.797,0.284,-0.712,-0.192,-0.028,0.03
1560.0,-13.223,0.464,-0.748,-0.224,-0.004,-0.073
1564.0,-13.223,0.464,-0.748,-0.224,-0.004,-0.073
1568.0,-13.131,0.48,-0.592,-0.224,0.014,-0.138
1572.0,-13.131,0.48,-0.592,-0.261,0.014,-0.138
1576.0,-13.131,0.48,-0.592,-0.261,0.014,-0.138
1580.0,-12.531,0.466,-0.374,-0.292,0.019,-0.187
1584.0,-12.531,0.466,-0.374,-0.292,0.019,-0.187
1588.0,-11.621,0.578,-0.162,-0.303,0.008,-0.231
1593.0,-11.621,0.578,-0.162,-0.303,0.008,-0.231
1597.0,-11.621,0.578,-0.162,-0.303,0.008,-0.231
1601.0,-10.525,0.738,-0.129,-0.285,-0.028,-0.27
1605.0,-10.525,0.738,-0.129,-0.285,-0.028,-0.27
1609.0,-9.459,1.036,-0.158,-0.233,-0.099,-0.305
1613.0,-9.459,1.036,-0.158,-0.233,-0.099,-0.305
1617.0,-8.556,1.467,-0.403,-0.233,-0.099,-0.333
1621.0,-8.556,1.467,-0.403,-0.16,-0.198,-0.333
1625.0,-8.556,1.467,-0.403,-0.16,-0.198,-0.333
1629.0,-7.647,2.026,-0.979,-0.084,-0.294,-0.341
1633.0,-7.647,2.026,-0.979,-0.084,-0.294,-0.341
1638.0,-6.692,2.669,-1.615,-0.027,-0.355,-0.312
1642.0,-6.692,2.669,-1.615,-0.027,-0.355,-0.312
1646.0,-6.692,2.669,-1.615,-0.027,-0.355,-0.312
1650.0,-5.75,3.288,-2.045,-0.004,-0.371,-0.235
1654.0,-5.75,3.288,-2.045,-0.004,-0.371,-0.235
1658.0,-4.933,3.793,-2.422,-0.012,-0.36,-0.111
1662.0,-4.933,3.793,-2.422,-0.012,-0.36,-0.111
1666.0,-4.933,4.184,-2.851,-0.012,-0.36,-0.111
1670.0,-4.159,4.184,-2.851,-0.065,-0.334,0.057
1674.0,-4.159,4.184,-2.851,-0.065,-0.334,0.057
1678.0,-3.384,4.464,-3.246,-0.162,-0.29,0.262
1682.0,-3.384,4.464,-3.246,-0.162,-0.29,0.262
1686.0,-2.636,4.654,-3.641,-0.162,-0.29,0.262
1690.0,-2.636,4.654,-3.641,-0.312,-0.22,0.484
1694.0,-2.636,4.654,-3.641,-0.312,-0.22,0.484
1698.0,-1.756,4.778,-3.711,-0.529,-0.12,0.716
1702.0,-1.756,4.778,-3.711,-0.529,-0.12,0.716
1706.0,-0.719,4.412,-3.538,-0.529,-0.004,0.937
1710.0,-0.719,4.412,-3.538,-0.809,-0.004,0.937
1714.0,-0.719,4.412,-3.538,-0.809,-0.004,0.937
1718.0,-0.042,4.579,-3.199,-1.194,0.125,1.078
1722.0,-0.042,4.579,-3.199,-1.194,0.125,1.078
1726.0,0.031,4.915,-2.669,-1.194,0.241,1.16
1730.0,0.031,4.915,-2.669,-1.681,0.241,1.16
1734.0,0.031,4.915,-2.669,-1.681,0.241,1.16
1737.0,-0.179,4.924,-2.256,-2.281,0.308,1.221
1741.0,-0.179,4.924,-2.256,-2.281,0.308,1.221
1745.0,-0.656,4.561,-1.979,-2.281,0.308,1.221
1749.0,-0.656,4.561,-1.979,-2.951,0.328,1.267
1753.0,-0.656,4.561,-1.979,-2.951,0.328,1.267
1757.0,-1.36,3.958,-1.93,-3.604,0.333,1.324
1761.0,-1.36,3.958,-1.93,-3.604,0.333,1.324
1765.0,-1.36,3.958,-1.842,-3.604,0.333,1.324
1769.0,-2.092,3.204,-1.842,-4.174,0.346,1.395
1773.0,-2.092,3.204,-1.842,-4.174,0.346,1.395
1776.0,-2.731,2.3,-1.581,-4.611,0.349,1.456
1780.0,-2.731,2.3,-1.581,-4.611,0.349,1.456
1784.0,-2.731,2.3,-1.581,-4.611,0.349,1.456
1788.0,-2.961,1.448,-1.367,-4.9,0.331,1.478
1792.0,-2.961,1.448,-1.367,-4.9,0.331,1.478
1796.0,-3.2,1.286,-1.152,-5.005,0.29,1.442
1800.0,-3.2,1.286,-1.152,-5.005,0.29,1.442
1804.0,-3.2,1.286,-1.152,-5.005,0.29,1.442
1808.0,-3.435,1.174,-0.933,-5.013,0.217,1.394
1812.0,-3.435,1.174,-0.933,-5.013,0.217,1.394
1816.0,-3.596,0.695,-0.699,-5.013,0.145,1.34
1819.0,-3.596,0.695,-0.699,-5.013,0.145,1.34
1823.0,-3.596,0.695,-0.699,-5.013,0.145,1.34
1827.0,-3.647,0.272,-0.367,-5.013,0.088,1.273
1831.0,-3.647,0.272,-0.367,-5.013,0.088,1.273
1835.0,-3.791,-0.077,-0.03,-5.01,0.032,1.192
1839.0,-3.791,-0.077,-0.03,-5.01,0.032,1.192
1843.0,-3.791,-0.077,-0.03,-5.01,0.032,1.192
1847.0,-4.155,-0.428,0.304,-4.915,-0.005,1.116
1851.0,-4.155,-0.428,0.304,-4.915,-0.005,1.116
1855.0,-4.869,-0.843,0.681,-4.685,0.004,1.048
1859.0,-4.869,-0.843,0.681,-4.685,0.004,1.048
1863.0,-4.869,-0.843,0.681,-4.685,0.004,1.048
1867.0,-5.91,-1.277,1.223,-4.423,0.061,0.969
1871.0,-5.91,-1.277,1.223,-4.423,0.061,0.969
1875.0,-7.208,-1.778,1.951,-4.146,0.133,0.865
1878.0,-7.208,-1.778,1.951,-4.146,0.133,0.865
1882.0,-7.208,-1.778,1.951,-4.146,0.133,0.865
1886.0,-8.429,-2.3,2.835,-3.863,0.189,0.715
1890.0,-8.429,-2.3,2.835,-3.863,0.189,0.715
1894.0,-10.1,-2.279,3.943,-3.574,0.2,0.506
1898.0,-10.1,-2.279,3.943,-3.574,0.2,0.506
1902.0,-10.1,-2.279,3.943,-3.574,0.2,0.506
1906.0,-11.828,-2.422,4.266,-3.269,0.153,0.316
1910.0,-11.828,-2.422,4.266,-3.269,0.153,0.316
1914.0,-13.266,-2.551,4.225,-2.963,0.116,0.169
1918.0,-13.266,-2.551,4.225,-2.963,0.116,0.169
1922.0,-13.266,-2.551,4.225,-2.963,0.116,0.169
1926.0,-14.091,-2.538,4.165,-2.651,0.131,0.076
1930.0,-14.091,-2.538,4.165,-2.651,0.131,0.076
1934.0,-14.264,-2.57,4.346,-2.329,0.188,0.056
1938.0,-14.264,-2.57,4.346,-2.329,0.188,0.056
1942.0,-14.264,-2.57,4.346,-2.329,0.188,0.056
1946.0,-14.224,-2.643,4.579,-1.998,0.287,0.095
1950.0,-14.224,-2.643,4.579,-1.998,0.287,0.095
1954.0,-14.438,-2.799,4.747,-1.656,0.432,0.171
1958.0,-14.438,-2.799,4.747,-1.656,0.432,0.171
1962.0,-14.438,-2.799,4.747,-1.656,0.432,0.171
1966.0,-15.135,-3.008,4.876,-1.315,0.628,0.267
1970.0,-15.135,-3.008,4.876,-1.315,0.628,0.267
1974.0,-16.134,-3.182,5.256,-0.981,0.861,0.376
1978.0,-16.134,-3.182,5.256,-0.981,0.861,0.376
1982.0,-16.134,-3.182,5.917,-0.981,0.861,0.376
1986.0,-16.822,-3.33,5.917,-0.657,1.082,0.505
1990.0,-16.822,-3.33,5.917,-0.657,1.082,0.505
1994.0,-17.002,-3.357,6.75,-0.341,1.246,0.638
1998.0,-17.002,-3.357,6.75,-0.341,1.246,0.638
2002.0,-16.712,-3.154,7.251,-0.341,1.246,0.638
2006.0,-16.712,-3.154,7.251,-0.038,1.347,0.764
2010.0,-16.712,-3.154,7.251,-0.038,1.347,0.764
2014.0,-16.402,-2.901,7.301,0.241,1.43,0.881
2018.0,-16.402,-2.901,7.301,0.241,1.43,0.881
2022.0,-16.243,-2.687,7.162,0.241,1.43,0.881
2026.0,-16.243,-2.687,7.162,0.495,1.536,0.984
2029.0,-16.243,-2.687,7.162,0.495,1.536,0.984
2033.0,-15.857,-2.661,6.998,0.739,1.642,1.069
2037.0,-15.857,-2.661,6.998,0.739,1.642,1.069
2041.0,-15.857,-2.663,7.036,0.739,1.642,1.069
2045.0,-15.357,-2.663,7.036,0.981,1.709,1.11
2049.0,-15.357,-2.663,7.036,0.981,1.709,1.11
2053.0,-14.97,-2.581,7.009,1.229,1.698,1.094
2057.0,-14.97,-2.581,7.009,1.229,1.698,1.094
2061.0,-14.97,-2.581,6.625,1.229,1.698,1.094
2065.0,-14.947,-2.328,6.625,1.467,1.607,1.016
2069.0,-14.947,-2.328,6.625,1.467,1.607,1.016
2072.0,-15.044,-1.837,5.998,1.67,1.472,0.9
2076.0,-15.044,-1.837,5.998,1.67,1.472,0.9
2080.0,-15.044,-1.837,5.998,1.67,1.472,0.9
2084.0,-14.8,-1.298,5.231,1.821,1.326,0.79
2088.0,-14.8,-1.298,5.231,1.821,1.326,0.79
2092.0,-14.037,-0.933,4.964,1.916,1.203,0.705
2096.0,-14.037,-0.933,4.964,1.916,1.203,0.705
2100.0,-14.037,-0.933,4.964,1.916,1.203,0.705
2104.0,-12.756,-0.517,5.267,1.949,1.061,0.62
2108.0,-12.756,-0.517,5.267,1.949,1.061,0.62
2112.0,-11.122,-0.197,5.511,1.917,0.85,0.509
2115.0,-11.122,-0.197,5.511,1.917,0.85,0.509
2119.0,-11.122,-0.197,5.511,1.917,0.85,0.509
2123.0,-9.58,0.051,5.242,1.836,0.601,0.344
2127.0,-9.58,0.051,5.242,1.836,0.601,0.344
2131.0,-8.316,0.232,4.659,1.836,0.38,0.129
2134.0,-8.316,0.232,4.659,1.713,0.38,0.129
2138.0,-8.316,0.232,4.659,1.713,0.38,0.129
2142.0,-7.495,0.4,4.269,1.545,0.218,-0.092
2146.0,-7.495,0.4,4.269,1.545,0.218,-0.092
2150.0,-7.495,0.4,4.192,1.545,0.218,-0.092
2153.0,-7.202,0.431,4.192,1.333,0.104,-0.272
2157.0,-7.202,0.431,4.192,1.333,0.104,-0.272
2161.0,-7.568,0.304,4.227,1.088,-0.006,-0.386
2165.0,-7.568,0.304,4.227,1.088,-0.006,-0.386
2169.0,-7.568,0.304,4.227,1.088,-0.006,-0.386
2173.0,-8.564,-0.096,4.084,0.834,-0.139,-0.45
2177.0,-8.564,-0.096,4.084,0.834,-0.139,-0.45
2181.0,-9.809,-0.739,3.694,0.6,-0.307,-0.502
2185.0,-9.809,-0.739,3.694,0.6,-0.307,-0.502
2189.0,-9.809,-0.739,3.694,0.6,-0.307,-0.502
2193.0,-11.002,-1.457,3.213,0.403,-0.494,-0.569
2197.0,-11.002,-1.457,3.213,0.403,-0.494,-0.569
2201.0,-11.972,-2.13,2.74,0.253,-0.685,-0.661
2205.0,-11.972,-2.13,2.74,0.253,-0.685,-0.661
2209.0,-11.972,-2.719,2.289,0.253,-0.685,-0.661
2213.0,-12.552,-2.719,2.289,0.156,-0.876,-0.78
2217.0,-12.552,-2.719,2.289,0.156,-0.876,-0.78
2221.0,-12.72,-3.092,1.902,0.11,-1.054,-0.928
2225.0,-12.72,-3.092,1.902,0.11,-1.054,-0.928
2229.0,-12.674,-3.216,1.58,0.11,-1.198,-1.106
2233.0,-12.674,-3.216,1.58,0.103,-1.198,-1.106
2238.0,-12.674,-3.216,1.58,0.103,-1.198,-1.106
2242.0,-12.519,-3.226,1.247,0.127,-1.298,-1.303
2246.0,-12.519,-3.226,1.247,0.127,-1.298,-1.303
2250.0,-12.294,-3.275,1.082,0.168,-1.359,-1.511
2254.0,-12.294,-3.275,1.082,0.168,-1.359,-1.511
2258.0,-12.294,-3.275,1.082,0.168,-1.359,-1.511
2262.0,-12.084,-3.332,1.027,0.219,-1.392,-1.733
2266.0,-12.084,-3.332,1.027,0.219,-1.392,-1.733
2270.0,-11.873,-3.384,1.01,0.283,-1.41,-1.961
2274.0,-11.873,-3.384,1.01,0.283,-1.41,-1.961
2278.0,-11.798,-3.162,0.96,0.283,-1.41,-1.961
2282.0,-11.798,-3.162,0.96,0.363,-1.408,-2.171
2287.0,-11.798,-3.162,0.96,0.363,-1.408,-2.171
2291.0,-11.713,-3.105,0.963,0.458,-1.378,-2.315
2295.0,-11.713,-3.105,0.963,0.458,-1.378,-2.315
2299.0,-11.533,-3.111,0.924,0.569,-1.333,-2.384
2303.0,-11.533,-3.111,0.924,0.569,-1.333,-2.384
2307.0,-11.533,-3.111,0.924,0.569,-1.333,-2.384
2311.0,-11.212,-3.145,0.824,0.674,-1.301,-2.4
2315.0,-11.212,-3.145,0.824,0.674,-1.301,-2.4
2319.0,-10.813,-3.35,0.677,0.766,-1.278,-2.391
2323.0,-10.813,-3.35,0.677,0.766,-1.278,-2.391
2327.0,-10.813,-3.35,0.483,0.766,-1.278,-2.391
2331.0,-10.329,-3.672,0.483,0.855,-1.26,-2.373
2335.0,-10.329,-3.672,0.483,0.855,-1.26,-2.373
2340.0,-9.796,-4.024,0.25,0.954,-1.244,-2.357
2344.0,-9.796,-4.024,0.25,0.954,-1.244,-2.357
2348.0,-9.235,-4.239,0.005,0.954,-1.244,-2.348
2352.0,-9.235,-4.239,0.005,1.072,-1.233,-2.348
2356.0,-9.235,-4.239,0.005,1.072,-1.233,-2.348
2360.0,-8.675,-4.318,-0.272,1.211,-1.222,-2.352
2364.0,-8.675,-4.318,-0.272,1.211,-1.222,-2.352
2368.0,-8.18,-4.287,-0.502,1.37,-1.205,-2.366
2372.0,-8.18,-4.287,-0.502,1.37,-1.205,-2.366
2376.0,-8.18,-4.287,-0.502,1.37,-1.205,-2.366
2380.0,-7.786,-4.16,-0.72,1.545,-1.187,-2.381
2384.0,-7.786,-4.16,-0.72,1.545,-1.187,-2.381
2388.0,-7.452,-3.982,-0.918,1.727,-1.166,-2.387
2392.0,-7.452,-3.982,-0.918,1.727,-1.166,-2.387
2396.0,-7.452,-3.982,-0.918,1.727,-1.166,-2.387
2400.0,-7.226,-3.748,-1.111,1.905,-1.14,-2.382
2404.0,-7.226,-3.748,-1.111,1.905,-1.14,-2.382
2408.0,-7.046,-3.533,-1.276,2.065,-1.109,-2.367
2413.0,-7.046,-3.533,-1.276,2.065,-1.109,-2.367
2417.0,-6.894,-3.331,-1.445,2.065,-1.109,-2.342
2421.0,-6.894,-3.331,-1.445,2.196,-1.073,-2.342
2425.0,-6.894,-3.331,-1.445,2.196,-1.073,-2.342
2429.0,-6.722,-3.102,-1.642,2.289,-1.034,-2.306
2433.0,-6.722,-3.102,-1.642,2.289,-1.034,-2.306
2437.0,-6.489,-2.828,-1.775,2.337,-0.992,-2.262
2441.0,-6.489,-2.828,-1.775,2.337,-0.992,-2.262
2445.0,-6.489,-2.828,-1.775,2.337,-0.992,-2.262
2449.0,-6.217,-2.579,-1.846,2.344,-0.941,-2.211
2453.0,-6.217,-2.579,-1.846,2.344,-0.941,-2.211
2457.0,-5.922,-2.413,-1.84,2.317,-0.886,-2.146
2462.0,-5.922,-2.413,-1.84,2.317,-0.886,-2.146
2466.0,-5.922,-2.413,-1.762,2.317,-0.886,-2.146
2470.0,-5.649,-2.247,-1.762,2.263,-0.83,-2.074
2474.0,-5.649,-2.247,-1.762,2.263,-0.83,-2.074
2478.0,-5.426,-2.083,-1.631,2.189,-0.774,-1.992
2482.0,-5.426,-2.083,-1.631,2.189,-0.774,-1.992
2486.0,-5.298,-1.964,-1.516,2.189,-0.724,-1.904
2490.0,-5.298,-1.964,-1.516,2.104,-0.724,-1.904
2494.0,-5.298,-1.964,-1.516,2.104,-0.724,-1.904
2498.0,-5.277,-1.892,-1.426,2.011,-0.678,-1.811
2502.0,-5.277,-1.892,-1.426,2.011,-0.678,-1.811
2506.0,-5.276,-1.874,-1.334,1.916,-0.629,-1.714
2510.0,-5.276,-1.874,-1.334,1.916,-0.629,-1.714
2515.0,-5.276,-1.874,-1.334,1.916,-0.629,-1.714
2519.0,-5.34,-1.912,-1.245,1.824,-0.578,-1.612
2523.0,-5.34,-1.912,-1.245,1.824,-0.578,-1.612
2527.0,-5.451,-1.975,-1.228,1.739,-0.53,-1.512
2531.0,-5.451,-1.975,-1.228,1.739,-0.53,-1.512
2535.0,-5.706,-2.006,-1.257,1.739,-0.53,-1.512
2539.0,-5.706,-2.006,-1.257,1.653,-0.484,-1.418
2543.0,-5.706,-2.006,-1.257,1.653,-0.484,-1.418
2547.0,-6.218,-1.939,-1.189,1.552,-0.424,-1.329
2551.0,-6.218,-1.939,-1.189,1.552,-0.424,-1.329
2555.0,-7.047,-1.872,-0.945,1.425,-0.348,-1.237
2559.0,-7.047,-1.872,-0.945,1.425,-0.348,-1.237
2564.0,-7.047,-1.872,-0.945,1.425,-0.348,-1.237
2568.0,-8.054,-1.898,-0.645,1.275,-0.271,-1.128
2572.0,-8.054,-1.898,-0.645,1.275,-0.271,-1.128
2576.0,-9.17,-2.034,-0.488,1.108,-0.206,-0.999
2580.0,-9.17,-2.034,-0.488,1.108,-0.206,-0.999
2584.0,-9.17,-2.034,-0.448,1.108,-0.206,-0.999
2588.0,-10.35,-2.241,-0.448,0.94,-0.144,-0.853
2592.0,-10.35,-2.241,-0.448,0.94,-0.144,-0.853
2596.0,-11.757,-2.48,-0.406,0.782,-0.071,-0.689
2600.0,-11.757,-2.48,-0.406,0.782,-0.071,-0.689
2605.0,-13.547,-2.811,-0.252,0.644,0.021,-0.505
2609.0,-13.547,-2.811,-0.252,0.644,0.021,-0.505
2613.0,-13.547,-2.811,-0.252,0.644,0.021,-0.505
2617.0,-15.497,-3.156,0.087,0.534,0.118,-0.31
2621.0,-15.497,-3.156,0.087,0.534,0.118,-0.31
2625.0,-17.023,-3.389,0.662,0.467,0.186,-0.119
2629.0,-17.023,-3.389,0.662,0.467,0.186,-0.119
2633.0,-17.023,-3.389,0.662,0.467,0.186,-0.119
2637.0,-17.522,-3.466,1.164,0.453,0.193,0.048
2641.0,-17.522,-3.466,1.164,0.453,0.193,0.048
2645.0,-17.205,-3.374,1.336,0.495,0.145,0.164
2649.0,-17.205,-3.374,1.336,0.495,0.145,0.164
2652.0,-17.205,-3.374,1.336,0.495,0.145,0.164
2656.0,-16.985,-3.109,1.196,0.582,0.097,0.218
2660.0,-16.985,-3.109,1.196,0.582,0.097,0.218
2664.0,-17.079,-2.795,0.9,0.69,0.097,0.235
2668.0,-17.079,-2.795,0.9,0.69,0.097,0.235
2672.0,-17.079,-2.795,0.9,0.69,0.097,0.235
2676.0,-17.229,-2.487,0.704,0.791,0.154,0.26
2680.0,-17.229,-2.487,0.704,0.791,0.154,0.26
2684.0,-17.192,-2.241,0.864,0.858,0.247,0.312
2688.0,-17.192,-2.241,0.864,0.858,0.247,0.312
2692.0,-17.192,-2.241,0.864,0.858,0.247,0.312
2695.0,-16.899,-2.075,1.385,0.88,0.352,0.378
2699.0,-16.899,-2.075,1.385,0.88,0.352,0.378
2703.0,-16.19,-1.845,2.013,0.869,0.434,0.439
2707.0,-16.19,-1.845,2.013,0.869,0.434,0.439
2711.0,-16.19,-1.845,2.013,0.869,0.434,0.439
2715.0,-15.132,-1.473,2.603,0.831,0.468,0.477
2719.0,-15.132,-1.473,2.603,0.831,0.468,0.477
2723.0,-13.905,-0.988,2.726,0.831,0.468,0.494
2727.0,-13.905,-0.988,2.726,0.77,0.456,0.494
2731.0,-13.905,-0.988,2.726,0.77,0.456,0.494
2735.0,-12.836,-0.462,2.446,0.683,0.439,0.493
2738.0,-12.836,-0.462,2.446,0.683,0.439,0.493
2742.0,-12.159,-0.018,2.065,0.683,0.439,0.493
2746.0,-12.159,-0.018,2.065,0.567,0.461,0.481
2750.0,-12.159,-0.018,2.065,0.567,0.461,0.481
2754.0,-11.98,0.338,1.737,0.421,0.527,0.467
2758.0,-11.98,0.338,1.737,0.421,0.527,0.467
2762.0,-11.98,0.338,1.485,0.421,0.527,0.467
2766.0,-12.444,0.592,1.485,0.249,0.619,0.461
2769.0,-12.444,0.592,1.485,0.249,0.619,0.461
2773.0,-13.12,0.709,1.274,0.066,0.71,0.475
2777.0,-13.12,0.709,1.274,0.066,0.71,0.475
2781.0,-13.12,0.709,1.274,0.066,0.71,0.475
2785.0,-13.459,0.706,1.198,-0.109,0.766,0.517
2789.0,-13.459,0.706,1.198,-0.109,0.766,0.517
2792.0,-13.214,0.606,1.108,-0.264,0.763,0.575
2796.0,-13.214,0.606,1.108,-0.264,0.763,0.575
2800.0,-13.214,0.606,1.108,-0.264,0.763,0.575
2804.0,-12.89,0.596,0.886,-0.398,0.724,0.631
2808.0,-12.89,0.596,0.886,-0.398,0.724,0.631
2812.0,-13.102,0.735,0.505,-0.517,0.698,0.677
2816.0,-13.102,0.735,0.505,-0.517,0.698,0.677
2820.0,-13.102,0.735,0.505,-0.517,0.698,0.677
2824.0,-13.648,0.811,0.075,-0.635,0.71,0.734
2828.0,-13.648,0.811,0.075,-0.635,0.71,0.734
2831.0,-14.035,0.797,-0.168,-0.635,0.755,0.823
2835.0,-14.035,0.797,-0.168,-0.76,0.755,0.823
2839.0,-14.035,0.797,-0.168,-0.76,0.755,0.823
2843.0,-14.023,0.711,-0.13,-0.891,0.816,0.957
2847.0,-14.023,0.711,-0.13,-0.891,0.816,0.957
2851.0,-13.526,0.561,0.113,-1.023,0.881,1.123
2855.0,-13.526,0.561,0.113,-1.023,0.881,1.123
2859.0,-13.526,0.561,0.113,-1.023,0.881,1.123
2863.0,-12.855,0.398,0.431,-1.144,0.939,1.296
2867.0,-12.855,0.398,0.431,-1.144,0.939,1.296
2871.0,-12.275,0.279,0.673,-1.144,0.991,1.445
2875.0,-12.275,0.279,0.673,-1.251,0.991,1.445
2879.0,-12.275,0.279,0.673,-1.251,0.991,1.445
2883.0,-11.685,0.16,0.8,-1.343,1.032,1.556
2887.0,-11.685,0.16,0.8,-1.343,1.032,1.556
2891.0,-11.033,0.109,0.919,-1.343,1.032,1.633
2894.0,-11.033,0.109,0.919,-1.417,1.063,1.633
2898.0,-11.033,0.109,0.919,-1.417,1.063,1.633
2902.0,-10.347,0.085,0.974,-1.472,1.087,1.687
2906.0,-10.347,0.085,0.974,-1.472,1.087,1.687
2910.0,-9.628,0.094,1.065,-1.472,1.087,1.687
2914.0,-9.628,0.094,1.065,-1.51,1.106,1.73
2918.0,-9.628,0.094,1.065,-1.51,1.106,1.73
2921.0,-8.914,0.098,1.166,-1.536,1.117,1.767
2925.0,-8.914,0.098,1.166,-1.536,1.117,1.767
2929.0,-8.914,0.098,1.166,-1.536,1.117,1.767
2933.0,-8.064,0.042,1.244,-1.549,1.122,1.802
2937.0,-8.064,0.042,1.244,-1.549,1.122,1.802
2941.0,-7.293,0.033,1.292,-1.554,1.117,1.817
2944.0,-7.293,0.033,1.292,-1.554,1.117,1.817
2948.0,-7.293,0.033,1.292,-1.554,1.117,1.817
2952.0,-6.724,0.013,1.327,-1.558,1.103,1.825
2956.0,-6.724,0.013,1.327,-1.558,1.103,1.825
2960.0,-6.239,-0.026,1.344,-1.558,1.103,1.842
2964.0,-6.239,-0.026,1.344,-1.556,1.079,1.842
2968.0,-6.239,-0.026,1.344,-1.556,1.079,1.842
2971.0,-5.788,-0.882,1.519,-1.543,1.047,1.852
2975.0,-5.788,-0.882,1.519,-1.543,1.047,1.852
2979.0,-5.795,-0.888,1.981,-1.543,1.047,1.852
2983.0,-5.795,-0.888,1.981,-1.459,0.999,1.818
2987.0,-5.795,-0.888,1.981,-1.459,0.999,1.818
2991.0,-5.101,-0.625,1.502,-1.374,0.871,1.781
2995.0,-5.101,-0.625,1.502,-1.374,0.871,1.781
2999.0,-5.101,-0.062,1.211,-1.374,0.871,1.781
