deltaTime,Acc_X,Acc_Y,Acc_Z,Gyro_X,Gyro_Y,Gyro_Z
0.0,-7.364,-1.341,4.23,-1.193,-0.869,0.015
3.0,-7.364,-1.341,4.23,-1.274,-0.893,0.015
6.0,-7.364,-1.341,4.23,-1.274,-0.893,0.015
9.0,-7.364,-1.341,4.23,-1.274,-0.893,0.015
12.0,-7.819,-1.33,4.332,-1.376,-0.91,-0.043
15.0,-7.819,-1.33,4.332,-1.376,-0.91,-0.043
18.0,-7.819,-1.33,4.332,-1.376,-0.91,-0.043
21.0,-8.197,-1.284,4.437,-1.489,-0.915,-0.097
24.0,-8.197,-1.284,4.437,-1.489,-0.915,-0.097
27.0,-8.197,-1.284,4.437,-1.489,-0.915,-0.097
30.0,-8.703,-1.4,4.533,-1.604,-0.904,-0.134
33.0,-8.703,-1.4,4.533,-1.604,-0.904,-0.134
37.0,-8.703,-1.4,4.533,-1.604,-0.904,-0.134
41.0,-9.029,-1.411,4.521,-1.692,-0.88,-0.137
45.0,-9.029,-1.411,4.521,-1.692,-0.88,-0.137
49.0,-9.266,-1.403,4.462,-1.692,-0.88,-0.116
53.0,-9.266,-1.403,4.462,-1.776,-0.831,-0.116
57.0,-9.266,-1.403,4.462,-1.776,-0.831,-0.116
61.0,-9.653,-1.604,4.467,-1.871,-0.75,-0.07
65.0,-9.653,-1.604,4.467,-1.871,-0.75,-0.07
69.0,-9.997,-1.889,4.586,-1.871,-0.75,-0.07
73.0,-9.997,-1.889,4.586,-1.967,-0.643,0.003
76.0,-9.997,-1.889,4.586,-1.967,-0.643,0.003
80.0,-10.292,-2.072,5.011,-2.073,-0.511,0.09
84.0,-10.292,-2.072,5.011,-2.073,-0.511,0.09
88.0,-10.292,-2.072,5.654,-2.073,-0.511,0.09
92.0,-10.707,-2.576,5.654,-2.197,-0.37,0.183
96.0,-10.707,-2.576,5.654,-2.197,-0.37,0.183
100.0,-11.09,-3.392,6.339,-2.275,-0.25,0.279
104.0,-11.09,-3.392,6.339,-2.275,-0.25,0.279
108.0,-11.09,-3.392,6.955,-2.275,-0.25,0.279
112.0,-11.186,-4.094,6.955,-2.25,-0.159,0.361
116.0,-11.186,-4.094,6.955,-2.25,-0.159,0.361
120.0,-10.866,-4.547,7.311,-2.141,-0.096,0.404
124.0,-10.866,-4.547,7.311,-2.141,-0.096,0.404
128.0,-10.866,-5.021,7.391,-2.141,-0.096,0.404
132.0,-10.506,-5.021,7.391,-1.965,-0.041,0.406
136.0,-10.506,-5.021,7.391,-1.965,-0.041,0.406
140.0,-10.175,-5.514,7.143,-1.704,0.028,0.389
144.0,-10.175,-5.514,7.143,-1.704,0.028,0.389
147.0,-10.175,-5.723,6.899,-1.704,0.028,0.389
151.0,-9.882,-5.723,6.899,-1.357,0.103,0.367
155.0,-9.882,-5.723,6.899,-1.357,0.103,0.367
159.0,-10.11,-5.855,6.779,-0.971,0.201,0.351
163.0,-10.11,-5.855,6.779,-0.971,0.201,0.351
167.0,-10.11,-5.855,6.779,-0.971,0.201,0.351
171.0,-10.519,-5.837,6.62,-0.568,0.275,0.362
175.0,-10.519,-5.837,6.62,-0.568,0.275,0.362
179.0,-10.885,-5.768,6.242,-0.176,0.343,0.393
182.0,-10.885,-5.768,6.242,-0.176,0.343,0.393
186.0,-10.885,-5.768,6.242,-0.176,0.343,0.393
190.0,-11.11,-5.608,5.844,0.177,0.429,0.445
194.0,-11.11,-5.608,5.844,0.177,0.429,0.445
198.0,-11.148,-5.283,5.554,0.465,0.539,0.498
202.0,-11.148,-5.283,5.554,0.465,0.539,0.498
205.0,-11.148,-5.283,5.554,0.465,0.539,0.498
209.0,-11.221,-4.882,5.27,0.664,0.658,0.551
213.0,-11.221,-4.882,5.27,0.664,0.658,0.551
217.0,-11.542,-4.515,4.909,0.664,0.658,0.621
221.0,-11.542,-4.515,4.909,0.759,0.787,0.621
225.0,-11.542,-4.515,4.909,0.759,0.787,0.621
228.0,-11.942,-4.268,4.562,0.757,0.929,0.704
232.0,-11.942,-4.268,4.562,0.757,0.929,0.704
236.0,-11.942,-4.268,4.447,0.757,0.929,0.704
240.0,-12.38,-4.166,4.447,0.673,1.065,0.804
244.0,-12.38,-4.166,4.447,0.673,1.065,0.804
248.0,-12.656,-4.164,4.634,0.536,1.142,0.922
251.0,-12.656,-4.164,4.634,0.536,1.142,0.922
255.0,-12.656,-4.164,4.634,0.536,1.142,0.922
259.0,-12.587,-4.299,5.03,0.389,1.136,1.039
263.0,-12.587,-4.299,5.03,0.389,1.136,1.039
267.0,-11.959,-4.384,5.311,0.279,1.038,1.113
270.0,-11.959,-4.384,5.311,0.279,1.038,1.113
274.0,-11.959,-4.384,5.311,0.279,1.038,1.113
278.0,-10.949,-4.334,5.185,0.224,0.881,1.116
282.0,-10.949,-4.334,5.185,0.224,0.881,1.116
286.0,-10.129,-4.186,4.649,0.224,0.881,1.116
290.0,-10.129,-4.186,4.649,0.217,0.726,1.063
293.0,-10.129,-4.186,4.649,0.217,0.726,1.063
297.0,-9.805,-3.997,3.867,0.237,0.617,0.986
301.0,-9.805,-3.997,3.867,0.237,0.617,0.986
305.0,-9.805,-3.997,3.867,0.237,0.617,0.986
308.0,-10.017,-3.608,3.031,0.257,0.552,0.917
312.0,-10.017,-3.608,3.031,0.257,0.552,0.917
316.0,-10.489,-3.328,2.447,0.246,0.519,0.876
320.0,-10.489,-3.328,2.447,0.246,0.519,0.876
324.0,-10.489,-3.328,2.447,0.246,0.519,0.876
327.0,-11.24,-3.348,2.111,0.227,0.505,0.88
331.0,-11.24,-3.348,2.111,0.227,0.505,0.88
335.0,-11.999,-3.478,1.956,0.227,0.505,0.88
339.0,-11.999,-3.478,1.956,0.238,0.484,0.92
343.0,-11.999,-3.478,1.956,0.238,0.484,0.92
347.0,-12.532,-3.701,1.922,0.287,0.435,0.968
350.0,-12.532,-3.701,1.922,0.287,0.435,0.968
354.0,-12.532,-3.701,1.922,0.287,0.435,0.968
358.0,-12.775,-3.9,1.939,0.371,0.347,0.997
362.0,-12.775,-3.9,1.939,0.371,0.347,0.997
366.0,-12.718,-4.022,1.931,0.48,0.227,0.992
369.0,-12.718,-4.022,1.931,0.48,0.227,0.992
373.0,-12.718,-4.022,1.931,0.48,0.227,0.992
377.0,-12.434,-4.006,1.829,0.601,0.095,0.963
381.0,-12.434,-4.006,1.829,0.601,0.095,0.963
385.0,-12.182,-4.072,1.769,0.601,0.095,0.92
389.0,-12.182,-4.072,1.769,0.72,-0.026,0.92
392.0,-12.182,-4.072,1.769,0.72,-0.026,0.92
396.0,-11.903,-4.112,1.716,0.829,-0.137,0.876
400.0,-11.903,-4.112,1.716,0.829,-0.137,0.876
404.0,-11.453,-3.98,1.58,0.829,-0.137,0.876
408.0,-11.453,-3.98,1.58,0.927,-0.234,0.835
412.0,-11.453,-3.98,1.58,0.927,-0.234,0.835
416.0,-10.83,-3.769,1.439,1.002,-0.303,0.8
420.0,-10.83,-3.769,1.439,1.002,-0.303,0.8
424.0,-10.83,-3.769,1.309,1.002,-0.303,0.8
428.0,-10.149,-3.577,1.309,1.043,-0.34,0.767
432.0,-10.149,-3.577,1.309,1.043,-0.34,0.767
435.0,-9.475,-3.395,1.234,1.044,-0.344,0.727
439.0,-9.475,-3.395,1.234,1.044,-0.344,0.727
443.0,-9.475,-3.395,1.234,1.044,-0.344,0.727
447.0,-8.82,-3.303,1.238,1.011,-0.317,0.671
451.0,-8.82,-3.303,1.238,1.011,-0.317,0.671
455.0,-8.195,-3.309,1.378,0.95,-0.265,0.589
458.0,-8.195,-3.309,1.378,0.95,-0.265,0.589
462.0,-8.195,-3.309,1.378,0.95,-0.265,0.589
466.0,-7.647,-3.324,1.565,0.877,-0.199,0.482
470.0,-7.647,-3.324,1.565,0.877,-0.199,0.482
474.0,-7.221,-3.342,1.82,0.877,-0.199,0.356
477.0,-7.221,-3.342,1.82,0.813,-0.134,0.356
481.0,-7.221,-3.342,1.82,0.813,-0.134,0.356
485.0,-6.975,-3.381,2.106,0.773,-0.085,0.222
489.0,-6.975,-3.381,2.106,0.773,-0.085,0.222
493.0,-6.975,-3.381,2.305,0.773,-0.085,0.222
497.0,-6.845,-3.36,2.305,0.762,-0.058,0.093
500.0,-6.845,-3.36,2.305,0.762,-0.058,0.093
504.0,-6.683,-3.267,2.359,0.77,-0.048,-0.021
508.0,-6.683,-3.267,2.359,0.77,-0.048,-0.021
512.0,-6.683,-3.267,2.359,0.77,-0.048,-0.021
516.0,-6.475,-3.109,2.323,0.78,-0.042,-0.114
520.0,-6.475,-3.109,2.323,0.78,-0.042,-0.114
524.0,-6.26,-2.937,2.197,0.775,-0.024,-0.184
528.0,-6.26,-2.937,2.197,0.775,-0.024,-0.184
532.0,-6.26,-2.937,2.197,0.775,-0.024,-0.184
535.0,-6.035,-2.798,2.036,0.74,0.006,-0.244
539.0,-6.035,-2.798,2.036,0.74,0.006,-0.244
543.0,-5.798,-2.673,1.917,0.67,0.043,-0.305
547.0,-5.798,-2.673,1.917,0.67,0.043,-0.305
551.0,-5.798,-2.673,1.917,0.67,0.043,-0.305
555.0,-5.582,-2.599,1.808,0.586,0.08,-0.369
558.0,-5.582,-2.599,1.808,0.586,0.08,-0.369
562.0,-5.442,-2.567,1.691,0.586,0.08,-0.369
566.0,-5.442,-2.567,1.691,0.495,0.121,-0.429
570.0,-5.442,-2.567,1.691,0.495,0.121,-0.429
574.0,-5.414,-2.582,1.584,0.404,0.171,-0.483
577.0,-5.414,-2.582,1.584,0.404,0.171,-0.483
581.0,-5.414,-2.582,1.584,0.404,0.171,-0.483
585.0,-5.466,-2.633,1.494,0.321,0.231,-0.524
589.0,-5.466,-2.633,1.494,0.321,0.231,-0.524
593.0,-5.576,-2.71,1.429,0.253,0.296,-0.55
597.0,-5.576,-2.71,1.429,0.253,0.296,-0.55
600.0,-5.576,-2.71,1.429,0.253,0.296,-0.55
604.0,-5.751,-2.801,1.381,0.208,0.359,-0.565
608.0,-5.751,-2.801,1.381,0.208,0.359,-0.565
612.0,-5.961,-2.907,1.322,0.208,0.359,-0.568
616.0,-5.961,-2.907,1.322,0.191,0.418,-0.568
619.0,-5.961,-2.907,1.322,0.191,0.418,-0.568
623.0,-6.166,-2.996,1.291,0.21,0.471,-0.559
627.0,-6.166,-2.996,1.291,0.21,0.471,-0.559
631.0,-6.166,-2.996,1.274,0.21,0.471,-0.559
635.0,-6.305,-3.07,1.274,0.261,0.516,-0.532
639.0,-6.305,-3.07,1.274,0.261,0.516,-0.532
642.0,-6.379,-3.122,1.263,0.341,0.552,-0.488
646.0,-6.379,-3.122,1.263,0.341,0.552,-0.488
650.0,-6.379,-3.122,1.263,0.341,0.552,-0.488
654.0,-6.469,-3.152,1.26,0.443,0.583,-0.424
658.0,-6.469,-3.152,1.26,0.443,0.583,-0.424
661.0,-6.558,-3.179,1.235,0.564,0.611,-0.342
665.0,-6.558,-3.179,1.235,0.564,0.611,-0.342
669.0,-6.558,-3.179,1.235,0.564,0.611,-0.342
673.0,-6.656,-3.206,1.228,0.697,0.637,-0.242
677.0,-6.656,-3.206,1.228,0.697,0.637,-0.242
681.0,-6.728,-3.251,1.245,0.697,0.637,-0.242
684.0,-6.728,-3.251,1.245,0.839,0.658,-0.124
688.0,-6.728,-3.251,1.245,0.839,0.658,-0.124
692.0,-6.781,-3.271,1.233,0.986,0.671,0.005
696.0,-6.781,-3.271,1.233,0.986,0.671,0.005
700.0,-6.781,-3.271,1.233,0.986,0.671,0.005
703.0,-6.827,-3.287,1.218,1.135,0.677,0.141
707.0,-6.827,-3.287,1.218,1.135,0.677,0.141
711.0,-6.868,-3.273,1.188,1.135,0.68,0.281
714.0,-6.868,-3.273,1.188,1.282,0.68,0.281
718.0,-6.868,-3.273,1.188,1.282,0.68,0.281
722.0,-6.967,-3.26,1.143,1.422,0.68,0.427
726.0,-6.967,-3.26,1.143,1.422,0.68,0.427
729.0,-6.967,-3.26,1.143,1.422,0.68,0.427
733.0,-7.181,-3.229,1.109,1.553,0.681,0.576
737.0,-7.181,-3.229,1.109,1.553,0.681,0.576
741.0,-7.488,-3.176,1.07,1.67,0.681,0.733
744.0,-7.488,-3.176,1.07,1.67,0.681,0.733
748.0,-7.488,-3.176,1.07,1.67,0.681,0.733
752.0,-7.892,-3.136,1.016,1.768,0.678,0.895
755.0,-7.892,-3.136,1.016,1.768,0.678,0.895
759.0,-7.892,-3.136,1.009,1.768,0.678,0.895
763.0,-8.385,-3.099,1.009,1.849,0.671,1.057
767.0,-8.385,-3.099,1.009,1.849,0.671,1.057
770.0,-8.998,-3.081,1.017,1.916,0.653,1.213
774.0,-8.998,-3.081,1.017,1.916,0.653,1.213
778.0,-8.998,-3.081,1.017,1.916,0.653,1.213
782.0,-9.668,-3.063,1.036,1.971,0.627,1.356
785.0,-9.668,-3.063,1.036,1.971,0.627,1.356
789.0,-9.668,-3.0,1.074,1.971,0.627,1.356
793.0,-10.418,-3.0,1.074,2.017,0.588,1.476
797.0,-10.418,-3.0,1.074,2.017,0.588,1.476
800.0,-11.286,-2.889,1.068,2.053,0.533,1.574
804.0,-11.286,-2.889,1.068,2.053,0.533,1.574
808.0,-11.286,-2.889,1.068,2.053,0.533,1.574
812.0,-12.187,-2.722,0.925,2.073,0.464,1.643
816.0,-12.187,-2.722,0.925,2.073,0.464,1.643
820.0,-13.021,-2.459,0.672,2.07,0.388,1.684
823.0,-13.021,-2.459,0.672,2.07,0.388,1.684
827.0,-13.021,-2.459,0.672,2.07,0.388,1.684
831.0,-13.499,-2.091,0.357,2.032,0.314,1.703
835.0,-13.499,-2.091,0.357,2.032,0.314,1.703
839.0,-13.507,-1.676,0.089,2.032,0.314,1.703
842.0,-13.507,-1.676,0.089,1.949,0.247,1.7
846.0,-13.507,-1.676,0.089,1.949,0.247,1.7
850.0,-13.412,-1.278,-0.09,1.821,0.204,1.67
854.0,-13.412,-1.278,-0.09,1.821,0.204,1.67
858.0,-13.412,-1.278,-0.22,1.821,0.204,1.67
862.0,-13.666,-0.939,-0.22,1.654,0.201,1.605
866.0,-13.666,-0.939,-0.22,1.654,0.201,1.605
870.0,-14.505,-0.67,-0.3,1.457,0.237,1.516
874.0,-14.505,-0.67,-0.3,1.457,0.237,1.516
877.0,-14.505,-0.67,-0.3,1.457,0.237,1.516
881.0,-15.785,-0.482,-0.212,1.239,0.29,1.418
885.0,-15.785,-0.482,-0.212,1.239,0.29,1.418
889.0,-17.19,-0.319,0.038,1.007,0.325,1.324
893.0,-17.19,-0.319,0.038,1.007,0.325,1.324
897.0,-17.19,-0.319,0.038,1.007,0.325,1.324
901.0,-18.141,-0.172,0.357,0.759,0.31,1.234
904.0,-18.141,-0.172,0.357,0.759,0.31,1.234
908.0,-17.996,-0.105,0.66,0.497,0.229,1.139
912.0,-17.996,-0.105,0.66,0.497,0.229,1.139
916.0,-17.996,-0.105,0.66,0.497,0.229,1.139
920.0,-16.756,-0.051,0.811,0.229,0.093,1.011
924.0,-16.756,-0.051,0.811,0.229,0.093,1.011
927.0,-15.038,0.051,0.769,0.229,0.093,1.011
931.0,-15.038,0.051,0.769,-0.039,-0.06,0.832
935.0,-15.038,0.051,0.769,-0.039,-0.06,0.832
939.0,-13.335,0.152,0.616,-0.299,-0.201,0.601
943.0,-13.335,0.152,0.616,-0.299,-0.201,0.601
947.0,-13.335,0.152,0.397,-0.299,-0.201,0.601
951.0,-11.85,0.264,0.397,-0.55,-0.314,0.333
955.0,-11.85,0.264,0.397,-0.55,-0.314,0.333
958.0,-10.679,0.376,0.145,-0.792,-0.397,0.048
962.0,-10.679,0.376,0.145,-0.792,-0.397,0.048
966.0,-10.679,0.376,0.145,-0.792,-0.397,0.048
970.0,-9.836,0.474,-0.069,-1.024,-0.446,-0.231
974.0,-9.836,0.474,-0.069,-1.024,-0.446,-0.231
978.0,-9.373,0.55,-0.22,-1.246,-0.456,-0.481
982.0,-9.373,0.55,-0.22,-1.246,-0.456,-0.481
986.0,-9.373,0.55,-0.22,-1.246,-0.456,-0.481
990.0,-9.361,0.524,-0.298,-1.454,-0.43,-0.684
994.0,-9.361,0.524,-0.298,-1.454,-0.43,-0.684
998.0,-9.768,0.412,-0.288,-1.644,-0.375,-0.833
1002.0,-9.768,0.412,-0.288,-1.644,-0.375,-0.833
1006.0,-9.768,0.236,-0.162,-1.644,-0.375,-0.833
1010.0,-10.386,0.236,-0.162,-1.814,-0.31,-0.93
1014.0,-10.386,0.236,-0.162,-1.814,-0.31,-0.93
1019.0,-10.927,-0.024,0.086,-1.96,-0.26,-0.974
1023.0,-10.927,-0.024,0.086,-1.96,-0.26,-0.974
1027.0,-11.269,-0.382,0.372,-2.082,-0.243,-0.977
1031.0,-11.269,-0.382,0.372,-2.082,-0.243,-0.977
1035.0,-11.269,-0.382,0.372,-2.082,-0.243,-0.977
1039.0,-11.262,-0.786,0.671,-2.175,-0.265,-0.955
1044.0,-11.262,-0.786,0.671,-2.175,-0.265,-0.955
1048.0,-10.937,-1.179,0.897,-2.232,-0.324,-0.928
1052.0,-10.937,-1.179,0.897,-2.232,-0.324,-0.928
1056.0,-10.469,-1.524,0.956,-2.232,-0.409,-0.917
1060.0,-10.469,-1.524,0.956,-2.248,-0.409,-0.917
1064.0,-10.469,-1.524,0.956,-2.248,-0.409,-0.917
1069.0,-10.131,-1.738,0.828,-2.225,-0.5,-0.937
1073.0,-10.131,-1.738,0.828,-2.225,-0.5,-0.937
1077.0,-10.107,-1.769,0.531,-2.175,-0.581,-0.977
1081.0,-10.107,-1.769,0.531,-2.175,-0.581,-0.977
1085.0,-10.107,-1.657,0.172,-2.175,-0.581,-0.977
1089.0,-10.377,-1.657,0.172,-2.114,-0.638,-1.018
1094.0,-10.377,-1.657,0.172,-2.114,-0.638,-1.018
1098.0,-10.802,-1.457,-0.139,-2.057,-0.669,-1.032
1102.0,-10.802,-1.457,-0.139,-2.057,-0.669,-1.032
1106.0,-11.094,-1.289,-0.296,-2.009,-0.677,-1.004
1111.0,-11.094,-1.289,-0.296,-2.009,-0.677,-1.004
1115.0,-11.094,-1.229,-0.264,-2.009,-0.677,-1.004
1119.0,-11.103,-1.229,-0.264,-1.963,-0.671,-0.937
1123.0,-11.103,-1.229,-0.264,-1.963,-0.671,-0.937
1128.0,-10.825,-1.253,-0.064,-1.909,-0.659,-0.858
1132.0,-10.825,-1.253,-0.064,-1.909,-0.659,-0.858
1136.0,-10.274,-1.325,0.209,-1.837,-0.647,-0.79
1140.0,-10.274,-1.325,0.209,-1.837,-0.647,-0.79
1144.0,-10.274,-1.333,0.482,-1.837,-0.647,-0.79
1149.0,-9.683,-1.333,0.482,-1.75,-0.636,-0.75
1153.0,-9.683,-1.333,0.482,-1.75,-0.636,-0.75
1157.0,-9.178,-1.276,0.761,-1.655,-0.625,-0.735
1161.0,-9.178,-1.276,0.761,-1.655,-0.625,-0.735
1165.0,-8.823,-1.098,1.1,-1.558,-0.623,-0.733
1169.0,-8.823,-1.098,1.1,-1.558,-0.623,-0.733
1173.0,-8.823,-1.098,1.1,-1.558,-0.623,-0.733
1177.0,-8.586,-0.921,1.512,-1.466,-0.638,-0.726
1181.0,-8.586,-0.921,1.512,-1.466,-0.638,-0.726
1185.0,-8.357,-0.623,1.977,-1.38,-0.682,-0.701
1189.0,-8.357,-0.623,1.977,-1.38,-0.682,-0.701
1193.0,-8.357,-0.623,1.977,-1.38,-0.682,-0.701
1198.0,-8.297,-0.421,2.323,-1.305,-0.76,-0.654
1202.0,-8.297,-0.421,2.323,-1.305,-0.76,-0.654
1206.0,-8.149,-0.276,2.502,-1.231,-0.855,-0.576
1210.0,-8.149,-0.276,2.502,-1.231,-0.855,-0.576
1214.0,-7.835,-0.149,2.567,-1.231,-0.855,-0.576
1218.0,-7.835,-0.149,2.567,-1.161,-0.958,-0.479
1222.0,-7.835,-0.149,2.567,-1.161,-0.958,-0.479
1226.0,-7.352,-0.057,2.424,-1.099,-1.053,-0.375
1230.0,-7.352,-0.057,2.424,-1.099,-1.053,-0.375
1234.0,-6.727,0.016,2.23,-1.053,-1.111,-0.274
1238.0,-6.727,0.016,2.23,-1.053,-1.111,-0.274
1242.0,-6.727,0.016,2.23,-1.053,-1.111,-0.274
1246.0,-6.041,0.114,2.042,-1.028,-1.125,-0.183
1250.0,-6.041,0.114,2.042,-1.028,-1.125,-0.183
1254.0,-5.37,0.236,1.906,-1.029,-1.095,-0.097
1258.0,-5.37,0.236,1.906,-1.029,-1.095,-0.097
1262.0,-5.37,0.236,1.906,-1.029,-1.095,-0.097
1266.0,-4.799,0.329,1.828,-1.054,-1.025,-0.014
1270.0,-4.799,0.329,1.828,-1.054,-1.025,-0.014
1274.0,-4.345,0.408,1.86,-1.1,-0.924,0.066
1278.0,-4.345,0.408,1.86,-1.1,-0.924,0.066
1282.0,-4.345,0.408,1.86,-1.1,-0.924,0.066
1286.0,-3.98,0.44,1.929,-1.16,-0.808,0.147
1290.0,-3.98,0.44,1.929,-1.16,-0.808,0.147
1294.0,-3.704,0.474,2.053,-1.228,-0.69,0.228
1298.0,-3.704,0.474,2.053,-1.228,-0.69,0.228
1301.0,-3.704,0.474,2.053,-1.228,-0.69,0.228
1305.0,-3.447,0.51,2.179,-1.309,-0.58,0.31
1309.0,-3.447,0.51,2.179,-1.309,-0.58,0.31
1313.0,-3.18,0.488,2.261,-1.396,-0.486,0.387
1317.0,-3.18,0.488,2.261,-1.396,-0.486,0.387
1321.0,-3.18,0.488,2.261,-1.396,-0.486,0.387
1325.0,-2.961,0.439,2.334,-1.487,-0.405,0.457
1329.0,-2.961,0.439,2.334,-1.487,-0.405,0.457
1333.0,-2.818,0.365,2.342,-1.584,-0.331,0.52
1337.0,-2.818,0.365,2.342,-1.584,-0.331,0.52
1341.0,-2.818,0.365,2.342,-1.584,-0.331,0.52
1344.0,-2.782,0.287,2.325,-1.681,-0.26,0.575
1348.0,-2.782,0.287,2.325,-1.681,-0.26,0.575
1352.0,-2.867,0.202,2.271,-1.681,-0.179,0.626
1356.0,-2.867,0.202,2.271,-1.778,-0.179,0.626
1360.0,-2.867,0.202,2.271,-1.778,-0.179,0.626
1364.0,-3.056,0.072,2.222,-1.869,-0.09,0.681
1368.0,-3.056,0.072,2.222,-1.869,-0.09,0.681
1372.0,-3.351,-0.066,2.121,-1.869,-0.09,0.741
1376.0,-3.351,-0.066,2.121,-1.951,0.01,0.741
1380.0,-3.351,-0.066,2.121,-1.951,0.01,0.741
1384.0,-3.735,-0.205,2.011,-2.025,0.126,0.808
1388.0,-3.735,-0.205,2.011,-2.025,0.126,0.808
1391.0,-4.165,-0.44,1.892,-2.025,0.126,0.808
1395.0,-4.165,-0.44,1.892,-2.091,0.255,0.875
1399.0,-4.165,-0.44,1.892,-2.091,0.255,0.875
1403.0,-4.725,-0.408,1.962,-2.162,0.393,0.935
1407.0,-4.725,-0.408,1.962,-2.162,0.393,0.935
1411.0,-4.725,-0.529,1.992,-2.162,0.393,0.935
1415.0,-5.282,-0.529,1.992,-2.212,0.525,1.001
1419.0,-5.282,-0.529,1.992,-2.212,0.525,1.001
1423.0,-6.09,-0.645,2.209,-2.243,0.652,1.063
1427.0,-6.09,-0.645,2.209,-2.243,0.652,1.063
1430.0,-6.09,-0.645,2.433,-2.243,0.652,1.063
1434.0,-7.044,-0.735,2.433,-2.241,0.757,1.123
1438.0,-7.044,-0.735,2.433,-2.241,0.757,1.123
1442.0,-8.242,-0.84,2.54,-2.205,0.838,1.174
1446.0,-8.242,-0.84,2.54,-2.205,0.838,1.174
1450.0,-8.242,-0.84,2.54,-2.205,0.838,1.174
1454.0,-9.473,-0.974,2.533,-2.138,0.901,1.217
1458.0,-9.473,-0.974,2.533,-2.138,0.901,1.217
1462.0,-10.557,-1.091,2.429,-2.047,0.949,1.25
1466.0,-10.557,-1.091,2.429,-2.047,0.949,1.25
1470.0,-10.557,-1.091,2.429,-2.047,0.949,1.25
1474.0,-11.374,-1.05,2.38,-1.942,0.986,1.282
1478.0,-11.374,-1.05,2.38,-1.942,0.986,1.282
1482.0,-11.861,-1.015,2.312,-1.829,1.013,1.33
1486.0,-11.861,-1.015,2.312,-1.829,1.013,1.33
1490.0,-11.861,-1.015,2.225,-1.829,1.013,1.33
1494.0,-12.138,-0.979,2.225,-1.716,1.047,1.4
1498.0,-12.138,-0.979,2.225,-1.716,1.047,1.4
1502.0,-12.41,-0.935,2.123,-1.603,1.105,1.49
1506.0,-12.41,-0.935,2.123,-1.603,1.105,1.49
1510.0,-12.41,-0.941,2.036,-1.603,1.105,1.49
1514.0,-12.689,-0.941,2.036,-1.493,1.196,1.6
1518.0,-12.689,-0.941,2.036,-1.493,1.196,1.6
1522.0,-13.052,-1.004,1.945,-1.394,1.319,1.722
1526.0,-13.052,-1.004,1.945,-1.394,1.319,1.722
1530.0,-13.503,-1.071,1.992,-1.394,1.319,1.722
1534.0,-13.503,-1.071,1.992,-1.31,1.468,1.847
1538.0,-13.503,-1.071,1.992,-1.31,1.468,1.847
1542.0,-13.975,-1.171,2.24,-1.236,1.624,1.974
1546.0,-13.975,-1.171,2.24,-1.236,1.624,1.974
1550.0,-14.286,-1.303,2.585,-1.236,1.624,2.103
1554.0,-14.286,-1.303,2.585,-1.163,1.762,2.103
1558.0,-14.286,-1.303,2.585,-1.163,1.762,2.103
1562.0,-14.335,-1.4,3.01,-1.086,1.867,2.226
1566.0,-14.335,-1.4,3.01,-1.086,1.867,2.226
1570.0,-14.259,-1.434,3.364,-1.086,1.94,2.326
1574.0,-14.259,-1.434,3.364,-1.013,1.94,2.326
1578.0,-14.259,-1.434,3.364,-1.013,1.94,2.326
1582.0,-14.425,-1.265,3.702,-0.96,2.003,2.394
1586.0,-14.425,-1.265,3.702,-0.96,2.003,2.394
1590.0,-15.017,-0.779,4.113,-0.956,2.078,2.435
1594.0,-15.017,-0.779,4.113,-0.956,2.078,2.435
1597.0,-15.017,-0.779,4.113,-0.956,2.078,2.435
1601.0,-16.065,-0.427,4.375,-1.023,2.152,2.461
1605.0,-16.065,-0.427,4.375,-1.023,2.152,2.461
1609.0,-17.515,-0.479,4.397,-1.132,2.181,2.497
1613.0,-17.515,-0.479,4.397,-1.132,2.181,2.497
1617.0,-17.515,-0.479,4.397,-1.132,2.181,2.497
1621.0,-18.885,-0.707,4.453,-1.223,2.137,2.557
1625.0,-18.885,-0.707,4.453,-1.223,2.137,2.557
1629.0,-19.583,-1.181,4.641,-1.261,2.027,2.635
1633.0,-19.583,-1.181,4.641,-1.261,2.027,2.635
1637.0,-19.583,-1.181,4.641,-1.261,2.027,2.635
1641.0,-19.6,-2.049,4.689,-1.208,1.835,2.711
1645.0,-19.6,-2.049,4.689,-1.208,1.835,2.711
1649.0,-19.021,-2.784,4.831,-1.03,1.57,2.728
1653.0,-19.021,-2.784,4.831,-1.03,1.57,2.728
1657.0,-19.021,-2.784,4.831,-1.03,1.57,2.728
1661.0,-17.093,-3.399,4.816,-0.724,1.253,2.639
1665.0,-17.093,-3.399,4.816,-0.724,1.253,2.639
1669.0,-14.611,-3.717,4.579,-0.318,0.905,2.424
1673.0,-14.611,-3.717,4.579,-0.318,0.905,2.424
1677.0,-14.611,-3.717,4.015,-0.318,0.905,2.424
1681.0,-12.123,-3.726,4.015,0.143,0.567,2.106
1685.0,-12.123,-3.726,4.015,0.143,0.567,2.106
1689.0,-9.986,-3.464,3.386,0.605,0.309,1.712
1693.0,-9.986,-3.464,3.386,0.605,0.309,1.712
1697.0,-9.986,-3.464,3.386,0.605,0.309,1.712
1701.0,-8.783,-3.152,2.835,1.04,0.152,1.281
1704.0,-8.783,-3.152,2.835,1.04,0.152,1.281
1708.0,-8.521,-2.811,2.358,1.437,0.062,0.874
1712.0,-8.521,-2.811,2.358,1.437,0.062,0.874
1716.0,-8.521,-2.811,2.358,1.437,0.062,0.874
1720.0,-9.214,-2.547,2.017,1.795,0.005,0.522
1724.0,-9.214,-2.547,2.017,1.795,0.005,0.522
1727.0,-10.415,-2.283,1.756,1.795,0.005,0.221
1731.0,-10.415,-2.283,1.756,2.116,-0.058,0.221
1735.0,-10.415,-2.283,1.756,2.116,-0.058,0.221
1739.0,-11.769,-2.116,1.817,2.392,-0.163,-0.056
1743.0,-11.769,-2.116,1.817,2.392,-0.163,-0.056
1747.0,-12.665,-1.904,1.813,2.621,-0.34,-0.315
1751.0,-12.665,-1.904,1.813,2.621,-0.34,-0.315
1756.0,-12.665,-1.904,1.813,2.621,-0.34,-0.315
1760.0,-12.954,-1.551,1.682,2.787,-0.569,-0.554
1764.0,-12.954,-1.551,1.682,2.787,-0.569,-0.554
1768.0,-12.635,-1.158,1.459,2.872,-0.805,-0.768
1772.0,-12.635,-1.158,1.459,2.872,-0.805,-0.768
1776.0,-12.635,-1.158,1.253,2.872,-0.805,-0.768
1780.0,-11.968,-0.8,1.253,2.878,-1.024,-0.961
1784.0,-11.968,-0.8,1.253,2.878,-1.024,-0.961
1788.0,-11.294,-0.516,1.114,2.81,-1.209,-1.131
1792.0,-11.294,-0.516,1.114,2.81,-1.209,-1.131
1796.0,-10.778,-0.292,0.987,2.81,-1.209,-1.275
1800.0,-10.778,-0.292,0.987,2.681,-1.354,-1.275
1805.0,-10.778,-0.292,0.987,2.681,-1.354,-1.275
1809.0,-10.484,-0.151,0.888,2.504,-1.461,-1.389
1813.0,-10.484,-0.151,0.888,2.504,-1.461,-1.389
1817.0,-10.403,-0.093,0.795,2.293,-1.535,-1.476
1821.0,-10.403,-0.093,0.795,2.293,-1.535,-1.476
1825.0,-10.403,-0.093,0.795,2.293,-1.535,-1.476
1829.0,-10.461,-0.129,0.721,2.06,-1.585,-1.541
1833.0,-10.461,-0.129,0.721,2.06,-1.585,-1.541
1837.0,-10.598,-0.26,0.677,1.817,-1.62,-1.586
1841.0,-10.598,-0.26,0.677,1.817,-1.62,-1.586
1845.0,-10.598,-0.452,0.671,1.817,-1.62,-1.586
1849.0,-10.766,-0.452,0.671,1.577,-1.643,-1.611
1853.0,-10.766,-0.452,0.671,1.577,-1.643,-1.611
1858.0,-10.876,-0.682,0.698,1.351,-1.66,-1.618
1862.0,-10.876,-0.682,0.698,1.351,-1.66,-1.618
1866.0,-10.878,-0.921,0.74,1.351,-1.678,-1.606
1870.0,-10.878,-0.921,0.74,1.149,-1.678,-1.606
1874.0,-10.878,-0.921,0.74,1.149,-1.678,-1.606
1878.0,-10.704,-1.144,0.75,0.976,-1.703,-1.576
1882.0,-10.704,-1.144,0.75,0.976,-1.703,-1.576
1886.0,-10.37,-1.338,0.696,0.834,-1.729,-1.538
1890.0,-10.37,-1.338,0.696,0.834,-1.729,-1.538
1894.0,-10.37,-1.338,0.696,0.834,-1.729,-1.538
1898.0,-9.931,-1.48,0.603,0.72,-1.752,-1.502
1902.0,-9.931,-1.48,0.603,0.72,-1.752,-1.502
1906.0,-9.462,-1.566,0.474,0.634,-1.77,-1.471
1910.0,-9.462,-1.566,0.474,0.634,-1.77,-1.471
1914.0,-9.462,-1.566,0.327,0.634,-1.77,-1.471
1918.0,-9.014,-1.592,0.327,0.572,-1.774,-1.446
1922.0,-9.014,-1.592,0.327,0.572,-1.774,-1.446
1926.0,-8.608,-1.582,0.171,0.53,-1.764,-1.423
1930.0,-8.608,-1.582,0.171,0.53,-1.764,-1.423
1934.0,-8.294,-1.572,0.059,0.53,-1.764,-1.423
1938.0,-8.294,-1.572,0.059,0.505,-1.74,-1.397
1942.0,-8.294,-1.572,0.059,0.505,-1.74,-1.397
1946.0,-8.082,-1.56,-0.019,0.496,-1.705,-1.365
1950.0,-8.082,-1.56,-0.019,0.496,-1.705,-1.365
1954.0,-7.96,-1.592,-0.056,0.496,-1.663,-1.326
1959.0,-7.96,-1.592,-0.056,0.502,-1.663,-1.326
1963.0,-7.96,-1.592,-0.056,0.502,-1.663,-1.326
1967.0,-7.902,-1.649,-0.086,0.524,-1.617,-1.283
1971.0,-7.902,-1.649,-0.086,0.524,-1.617,-1.283
1975.0,-7.889,-1.714,-0.114,0.559,-1.568,-1.236
1979.0,-7.889,-1.714,-0.114,0.559,-1.568,-1.236
1983.0,-7.889,-1.714,-0.114,0.559,-1.568,-1.236
1987.0,-7.939,-1.825,-0.109,0.604,-1.517,-1.189
1991.0,-7.939,-1.825,-0.109,0.604,-1.517,-1.189
1995.0,-8.056,-1.973,-0.063,0.661,-1.463,-1.134
1999.0,-8.056,-1.973,-0.063,0.661,-1.463,-1.134
2003.0,-8.155,-2.117,-0.035,0.661,-1.463,-1.134
2007.0,-8.155,-2.117,-0.035,0.74,-1.403,-1.067
2012.0,-8.155,-2.117,-0.035,0.74,-1.403,-1.067
2016.0,-8.183,-2.191,-0.035,0.829,-1.353,-0.993
2020.0,-8.183,-2.191,-0.035,0.829,-1.353,-0.993
2024.0,-8.107,-2.221,-0.037,0.917,-1.31,-0.925
2028.0,-8.107,-2.221,-0.037,0.917,-1.31,-0.925
2032.0,-8.107,-2.221,-0.037,0.917,-1.31,-0.925
2036.0,-7.981,-2.257,-0.056,1.0,-1.271,-0.866
2040.0,-7.981,-2.257,-0.056,1.0,-1.271,-0.866
2044.0,-7.825,-2.262,-0.068,1.084,-1.233,-0.812
2048.0,-7.825,-2.262,-0.068,1.084,-1.233,-0.812
2052.0,-7.825,-2.262,-0.084,1.084,-1.233,-0.812
2056.0,-7.646,-2.269,-0.084,1.17,-1.196,-0.761
2061.0,-7.646,-2.269,-0.084,1.17,-1.196,-0.761
2065.0,-7.451,-2.274,-0.109,1.263,-1.159,-0.709
2069.0,-7.451,-2.274,-0.109,1.263,-1.159,-0.709
2073.0,-7.259,-2.259,-0.142,1.263,-1.159,-0.659
2077.0,-7.259,-2.259,-0.142,1.363,-1.124,-0.659
2081.0,-7.259,-2.259,-0.142,1.363,-1.124,-0.659
2085.0,-7.119,-2.258,-0.206,1.466,-1.087,-0.61
2089.0,-7.119,-2.258,-0.206,1.466,-1.087,-0.61
2093.0,-7.076,-2.255,-0.307,1.57,-1.048,-0.561
2097.0,-7.076,-2.255,-0.307,1.57,-1.048,-0.561
2101.0,-7.076,-2.255,-0.307,1.57,-1.048,-0.561
2105.0,-7.127,-2.275,-0.413,1.671,-1.002,-0.509
2109.0,-7.127,-2.275,-0.413,1.671,-1.002,-0.509
2114.0,-7.28,-2.251,-0.517,1.766,-0.954,-0.45
2118.0,-7.28,-2.251,-0.517,1.766,-0.954,-0.45
2122.0,-7.28,-2.271,-0.611,1.766,-0.954,-0.45
2126.0,-7.553,-2.271,-0.611,1.846,-0.904,-0.383
2130.0,-7.553,-2.271,-0.611,1.846,-0.904,-0.383
2134.0,-7.944,-2.325,-0.645,1.913,-0.853,-0.302
2138.0,-7.944,-2.325,-0.645,1.913,-0.853,-0.302
2142.0,-8.5,-2.403,-0.648,1.913,-0.8,-0.206
2146.0,-8.5,-2.403,-0.648,1.977,-0.8,-0.206
2150.0,-8.5,-2.403,-0.648,1.977,-0.8,-0.206
2154.0,-9.344,-2.478,-0.702,2.037,-0.743,-0.095
2158.0,-9.344,-2.478,-0.702,2.037,-0.743,-0.095
2163.0,-10.603,-2.576,-0.741,2.084,-0.676,0.035
2167.0,-10.603,-2.576,-0.741,2.084,-0.676,0.035
2171.0,-10.603,-2.576,-0.741,2.084,-0.676,0.035
2175.0,-12.37,-2.698,-0.764,2.113,-0.597,0.191
2179.0,-12.37,-2.698,-0.764,2.113,-0.597,0.191
2183.0,-14.487,-2.876,-0.772,2.122,-0.521,0.372
2187.0,-14.487,-2.876,-0.772,2.122,-0.521,0.372
2191.0,-16.524,-3.084,-0.688,2.122,-0.521,0.372
2195.0,-16.524,-3.084,-0.688,2.114,-0.464,0.567
2199.0,-16.524,-3.084,-0.688,2.114,-0.464,0.567
2203.0,-17.98,-3.251,-0.474,2.093,-0.435,0.744
2207.0,-17.98,-3.251,-0.474,2.093,-0.435,0.744
2211.0,-18.354,-3.316,-0.207,2.071,-0.447,0.867
2216.0,-18.354,-3.316,-0.207,2.071,-0.447,0.867
2220.0,-18.354,-3.316,-0.207,2.071,-0.447,0.867
2224.0,-17.872,-3.245,-0.153,2.059,-0.496,0.903
2228.0,-17.872,-3.245,-0.153,2.059,-0.496,0.903
2232.0,-17.344,-3.004,-0.339,2.057,-0.543,0.84
2236.0,-17.344,-3.004,-0.339,2.057,-0.543,0.84
2240.0,-17.344,-3.004,-0.659,2.057,-0.543,0.84
2244.0,-16.649,-2.537,-0.659,2.064,-0.564,0.688
2248.0,-16.649,-2.537,-0.659,2.064,-0.564,0.688
2252.0,-15.665,-1.965,-0.924,2.072,-0.564,0.474
2256.0,-15.665,-1.965,-0.924,2.072,-0.564,0.474
2260.0,-14.904,-1.381,-1.038,2.072,-0.564,0.213
2265.0,-14.904,-1.381,-1.038,2.075,-0.54,0.213
2269.0,-14.904,-1.381,-1.038,2.075,-0.54,0.213
2273.0,-14.77,-0.804,-1.076,2.079,-0.493,-0.076
2277.0,-14.77,-0.804,-1.076,2.079,-0.493,-0.076
2281.0,-14.805,-0.306,-1.166,2.077,-0.444,-0.352
2285.0,-14.805,-0.306,-1.166,2.077,-0.444,-0.352
2289.0,-14.805,-0.306,-1.229,2.077,-0.444,-0.352
2293.0,-14.812,0.128,-1.229,2.05,-0.398,-0.577
2298.0,-14.812,0.128,-1.229,2.05,-0.398,-0.577
2302.0,-14.93,0.424,-1.144,1.986,-0.341,-0.747
2306.0,-14.93,0.424,-1.144,1.986,-0.341,-0.747
2310.0,-14.947,0.532,-0.931,1.986,-0.268,-0.879
2314.0,-14.947,0.532,-0.931,1.882,-0.268,-0.879
2318.0,-14.947,0.532,-0.931,1.882,-0.268,-0.879
2322.0,-14.551,0.535,-0.598,1.739,-0.187,-0.986
2326.0,-14.551,0.535,-0.598,1.739,-0.187,-0.986
2330.0,-13.7,0.501,-0.114,1.557,-0.108,-1.076
2334.0,-13.7,0.501,-0.114,1.557,-0.108,-1.076
2338.0,-13.7,0.501,-0.114,1.557,-0.108,-1.076
2342.0,-12.51,0.452,0.426,1.346,-0.038,-1.157
2346.0,-12.51,0.452,0.426,1.346,-0.038,-1.157
2350.0,-11.166,0.334,0.973,1.12,0.019,-1.236
2354.0,-11.166,0.334,0.973,1.12,0.019,-1.236
2358.0,-11.166,0.334,0.973,1.12,0.019,-1.236
2362.0,-9.829,0.153,1.398,0.899,0.057,-1.326
2366.0,-9.829,0.153,1.398,0.899,0.057,-1.326
2370.0,-8.556,-0.072,1.712,0.701,0.071,-1.445
2374.0,-8.556,-0.072,1.712,0.701,0.071,-1.445
2378.0,-8.556,-0.072,1.712,0.701,0.071,-1.445
2382.0,-7.524,-0.266,1.886,0.533,0.063,-1.604
2385.0,-7.524,-0.266,1.886,0.533,0.063,-1.604
2389.0,-6.873,-0.355,1.813,0.399,0.045,-1.797
2393.0,-6.873,-0.355,1.813,0.399,0.045,-1.797
2397.0,-6.873,-0.355,1.813,0.399,0.045,-1.797
2401.0,-6.772,-0.28,1.542,0.287,0.045,-1.997
2405.0,-6.772,-0.28,1.542,0.287,0.045,-1.997
2409.0,-7.363,-0.057,1.194,0.179,0.097,-2.162
2413.0,-7.363,-0.057,1.194,0.179,0.097,-2.162
2417.0,-7.363,-0.057,1.194,0.179,0.097,-2.162
2421.0,-8.544,0.203,0.928,0.067,0.209,-2.25
2424.0,-8.544,0.203,0.928,0.067,0.209,-2.25
2428.0,-9.769,0.312,0.748,0.067,0.209,-2.239
2432.0,-9.769,0.312,0.748,-0.047,0.363,-2.239
2436.0,-9.769,0.312,0.748,-0.047,0.363,-2.239
2440.0,-10.606,0.296,0.748,-0.156,0.53,-2.134
2444.0,-10.606,0.296,0.748,-0.156,0.53,-2.134
2448.0,-10.768,0.169,1.096,-0.156,0.53,-1.953
2452.0,-10.768,0.169,1.096,-0.258,0.673,-1.953
2456.0,-10.768,0.169,1.096,-0.258,0.673,-1.953
2460.0,-10.379,-0.041,1.533,-0.342,0.773,-1.73
2464.0,-10.379,-0.041,1.533,-0.342,0.773,-1.73
2468.0,-9.723,-0.262,1.927,-0.399,0.836,-1.512
2472.0,-9.723,-0.262,1.927,-0.399,0.836,-1.512
2476.0,-9.723,-0.262,1.927,-0.399,0.836,-1.512
2480.0,-9.129,-0.37,2.364,-0.425,0.867,-1.333
2484.0,-9.129,-0.37,2.364,-0.425,0.867,-1.333
2488.0,-8.752,-0.352,2.726,-0.422,0.855,-1.206
2492.0,-8.752,-0.352,2.726,-0.422,0.855,-1.206
2496.0,-8.752,-0.352,2.726,-0.422,0.855,-1.206
2500.0,-8.499,-0.236,2.931,-0.397,0.795,-1.118
2504.0,-8.499,-0.236,2.931,-0.397,0.795,-1.118
2508.0,-8.305,0.0,2.959,-0.362,0.695,-1.052
2512.0,-8.305,0.0,2.959,-0.362,0.695,-1.052
2516.0,-8.305,0.0,2.959,-0.362,0.695,-1.052
2520.0,-8.113,0.31,2.931,-0.326,0.576,-0.981
2524.0,-8.113,0.31,2.931,-0.326,0.576,-0.981
2527.0,-7.874,0.616,2.846,-0.295,0.448,-0.886
2531.0,-7.874,0.616,2.846,-0.295,0.448,-0.886
2535.0,-7.874,0.616,2.846,-0.295,0.448,-0.886
2539.0,-7.637,0.862,2.679,-0.269,0.323,-0.769
2543.0,-7.637,0.862,2.679,-0.269,0.323,-0.769
2547.0,-7.47,1.094,2.541,-0.254,0.209,-0.635
2551.0,-7.47,1.094,2.541,-0.254,0.209,-0.635
2555.0,-7.47,1.094,2.541,-0.254,0.209,-0.635
2559.0,-7.437,1.295,2.463,-0.25,0.096,-0.486
2563.0,-7.437,1.295,2.463,-0.25,0.096,-0.486
2566.0,-7.504,1.443,2.349,-0.25,-0.021,-0.326
2570.0,-7.504,1.443,2.349,-0.261,-0.021,-0.326
2574.0,-7.504,1.443,2.349,-0.261,-0.021,-0.326
2578.0,-7.564,1.581,2.17,-0.296,-0.141,-0.153
2582.0,-7.564,1.581,2.17,-0.296,-0.141,-0.153
2586.0,-7.609,1.667,1.975,-0.362,-0.255,0.029
2590.0,-7.609,1.667,1.975,-0.362,-0.255,0.029
2594.0,-7.609,1.667,1.975,-0.362,-0.255,0.029
2598.0,-7.606,1.756,1.781,-0.467,-0.351,0.213
2602.0,-7.606,1.756,1.781,-0.467,-0.351,0.213
2606.0,-7.529,1.841,1.679,-0.467,-0.42,0.397
2610.0,-7.529,1.841,1.679,-0.617,-0.42,0.397
2614.0,-7.529,1.841,1.679,-0.617,-0.42,0.397
2618.0,-7.387,1.906,1.644,-0.816,-0.466,0.572
2622.0,-7.387,1.906,1.644,-0.816,-0.466,0.572
2626.0,-7.248,1.948,1.659,-0.816,-0.466,0.739
2629.0,-7.248,1.948,1.659,-1.06,-0.49,0.739
2633.0,-7.248,1.948,1.659,-1.06,-0.49,0.739
2637.0,-7.138,1.95,1.686,-1.342,-0.499,0.893
2641.0,-7.138,1.95,1.686,-1.342,-0.499,0.893
2645.0,-7.038,1.889,1.707,-1.342,-0.499,0.893
2649.0,-7.038,1.889,1.707,-1.651,-0.495,1.033
2653.0,-7.038,1.889,1.707,-1.651,-0.495,1.033
2657.0,-6.926,1.812,1.725,-1.979,-0.476,1.159
2661.0,-6.926,1.812,1.725,-1.979,-0.476,1.159
2665.0,-6.926,1.812,1.746,-1.979,-0.476,1.159
2668.0,-6.901,1.702,1.746,-2.314,-0.443,1.264
2672.0,-6.901,1.702,1.746,-2.314,-0.443,1.264
2676.0,-6.893,1.551,1.759,-2.646,-0.403,1.364
2680.0,-6.893,1.551,1.759,-2.646,-0.403,1.364
2684.0,-6.893,1.551,1.759,-2.646,-0.403,1.364
2688.0,-6.836,1.378,1.765,-2.968,-0.359,1.457
2692.0,-6.836,1.378,1.765,-2.968,-0.359,1.457
2696.0,-6.798,1.188,1.758,-3.279,-0.309,1.544
2700.0,-6.798,1.188,1.758,-3.279,-0.309,1.544
2704.0,-6.798,1.188,1.758,-3.279,-0.309,1.544
2708.0,-6.943,0.824,1.993,-3.572,-0.251,1.628
2711.0,-6.943,0.824,1.993,-3.572,-0.251,1.628
2715.0,-6.818,0.498,2.078,-3.893,-0.203,1.697
2719.0,-6.818,0.498,2.078,-3.893,-0.203,1.697
2723.0,-6.818,0.498,2.078,-3.893,-0.203,1.697
2727.0,-7.155,0.501,1.781,-4.201,-0.165,1.763
2731.0,-7.155,0.501,1.781,-4.201,-0.165,1.763
2735.0,-7.153,0.143,1.786,-4.439,-0.117,1.851
2739.0,-7.153,0.143,1.786,-4.439,-0.117,1.851
2743.0,-7.153,0.143,1.786,-4.439,-0.117,1.851
2747.0,-7.046,-0.285,1.479,-4.663,-0.08,1.924
2751.0,-7.046,-0.285,1.479,-4.663,-0.08,1.924
2755.0,-7.219,-0.275,1.601,-4.885,-0.035,1.958
2759.0,-7.219,-0.275,1.601,-4.885,-0.035,1.958
2763.0,-7.219,-0.275,1.601,-4.885,-0.035,1.958
2767.0,-7.122,-0.602,1.533,-4.984,-0.008,2.017
2771.0,-7.122,-0.602,1.533,-4.984,-0.008,2.017
2775.0,-7.012,-0.863,1.607,-5.011,0.015,2.055
2778.0,-7.012,-0.863,1.607,-5.011,0.015,2.055
2782.0,-7.012,-0.863,1.607,-5.011,0.015,2.055
2786.0,-6.73,-1.143,1.538,-5.013,0.027,2.061
2790.0,-6.73,-1.143,1.538,-5.013,0.027,2.061
2794.0,-6.555,-1.312,1.46,-5.013,0.047,2.029
2798.0,-6.555,-1.312,1.46,-5.013,0.047,2.029
2802.0,-6.555,-1.312,1.46,-5.013,0.047,2.029
2806.0,-6.599,-1.407,1.367,-5.013,0.086,1.976
2810.0,-6.599,-1.407,1.367,-5.013,0.086,1.976
2814.0,-6.744,-1.434,1.328,-5.013,0.143,1.932
2818.0,-6.744,-1.434,1.328,-5.013,0.143,1.932
2821.0,-6.744,-1.434,1.328,-5.013,0.143,1.932
2825.0,-6.913,-1.423,1.39,-5.002,0.206,1.903
2829.0,-6.913,-1.423,1.39,-5.002,0.206,1.903
2833.0,-7.105,-1.5,1.455,-5.002,0.266,1.891
2837.0,-7.105,-1.5,1.455,-4.94,0.266,1.891
2841.0,-7.105,-1.5,1.455,-4.94,0.266,1.891
2845.0,-7.414,-1.577,1.554,-4.838,0.325,1.888
2849.0,-7.414,-1.577,1.554,-4.838,0.325,1.888
2853.0,-7.753,-1.665,1.576,-4.838,0.325,1.891
2857.0,-7.753,-1.665,1.576,-4.723,0.379,1.891
2861.0,-7.753,-1.665,1.576,-4.723,0.379,1.891
2864.0,-8.09,-1.851,1.474,-4.6,0.43,1.902
2868.0,-8.09,-1.851,1.474,-4.6,0.43,1.902
2872.0,-8.593,-2.138,1.382,-4.6,0.43,1.902
2876.0,-8.593,-2.138,1.382,-4.467,0.498,1.919
2880.0,-8.593,-2.138,1.382,-4.467,0.498,1.919
2884.0,-9.327,-2.505,1.318,-4.322,0.589,1.943
2888.0,-9.327,-2.505,1.318,-4.322,0.589,1.943
2892.0,-9.327,-2.942,1.285,-4.322,0.589,1.943
2896.0,-10.237,-2.942,1.285,-4.153,0.694,1.983
2900.0,-10.237,-2.942,1.285,-4.153,0.694,1.983
2904.0,-11.275,-3.444,1.402,-3.954,0.803,2.045
2908.0,-11.275,-3.444,1.402,-3.954,0.803,2.045
2912.0,-12.419,-3.954,1.739,-3.954,0.803,2.045
2916.0,-12.419,-3.954,1.739,-3.714,0.897,2.121
2920.0,-12.419,-3.954,1.739,-3.714,0.897,2.121
2924.0,-13.431,-4.451,2.157,-3.42,0.955,2.197
2928.0,-13.431,-4.451,2.157,-3.42,0.955,2.197
2932.0,-14.206,-4.896,2.501,-3.42,0.955,2.261
2936.0,-14.206,-4.896,2.501,-3.073,0.969,2.261
2940.0,-14.206,-4.896,2.501,-3.073,0.969,2.261
2944.0,-14.817,-5.228,2.711,-2.679,0.969,2.299
2948.0,-14.817,-5.228,2.711,-2.679,0.969,2.299
2952.0,-15.367,-5.369,2.992,-2.679,0.984,2.305
2956.0,-15.367,-5.369,2.992,-2.247,0.984,2.305
2960.0,-15.367,-5.369,2.992,-2.247,0.984,2.305
2964.0,-15.718,-5.358,3.248,-1.791,1.008,2.279
2968.0,-15.718,-5.358,3.248,-1.791,1.008,2.279
2972.0,-15.522,-5.216,3.419,-1.334,1.021,2.22
2976.0,-15.522,-5.216,3.419,-1.334,1.021,2.22
2980.0,-15.522,-5.216,3.419,-1.334,1.021,2.22
2984.0,-14.935,-4.961,3.667,-0.896,1.028,2.118
2988.0,-14.935,-4.961,3.667,-0.896,1.028,2.118
2991.0,-14.115,-4.661,4.019,-0.489,1.037,1.964
2995.0,-14.115,-4.661,4.019,-0.489,1.037,1.964
2999.0,-14.115,-4.661,4.019,-0.489,1.037,1.964
