deltaTime,Acc_X,Acc_Y,Acc_Z,Gyro_X,Gyro_Y,Gyro_Z
0.0,-10.295,-3.154,1.567,-0.372,-0.064,-0.051
3.0,-10.162,-3.072,1.896,-0.426,-0.012,-0.069
6.0,-10.162,-3.072,1.896,-0.426,-0.012,-0.069
9.0,-10.162,-3.072,1.896,-0.426,-0.012,-0.069
12.0,-9.677,-3.472,2.228,-0.484,-0.002,-0.108
15.0,-9.677,-3.472,2.228,-0.484,-0.002,-0.108
18.0,-9.677,-3.472,2.228,-0.484,-0.002,-0.108
21.0,-9.016,-3.802,2.508,-0.484,-0.002,-0.108
24.0,-9.016,-3.802,2.508,-0.458,-0.025,-0.163
27.0,-9.016,-3.802,2.508,-0.458,-0.025,-0.163
31.0,-9.016,-3.802,2.491,-0.458,-0.025,-0.163
34.0,-8.329,-3.833,2.491,-0.344,-0.071,-0.239
38.0,-8.329,-3.833,2.491,-0.344,-0.071,-0.239
42.0,-7.802,-3.352,2.269,-0.21,-0.115,-0.333
46.0,-7.802,-3.352,2.269,-0.21,-0.115,-0.333
50.0,-7.802,-3.352,2.269,-0.21,-0.115,-0.333
54.0,-7.887,-2.879,2.154,-0.139,-0.13,-0.425
58.0,-7.887,-2.879,2.154,-0.139,-0.13,-0.425
62.0,-8.084,-2.733,1.908,-0.126,-0.133,-0.468
66.0,-8.084,-2.733,1.908,-0.126,-0.133,-0.468
70.0,-8.084,-2.733,1.908,-0.126,-0.133,-0.468
74.0,-8.418,-2.691,1.927,-0.137,-0.128,-0.448
77.0,-8.418,-2.691,1.927,-0.137,-0.128,-0.448
81.0,-8.381,-2.806,2.113,-0.146,-0.177,-0.409
85.0,-8.381,-2.806,2.113,-0.146,-0.177,-0.409
89.0,-8.381,-2.806,2.113,-0.146,-0.177,-0.409
93.0,-8.217,-2.701,1.963,-0.177,-0.175,-0.372
97.0,-8.217,-2.701,1.963,-0.177,-0.175,-0.372
101.0,-8.219,-2.594,1.946,-0.252,-0.185,-0.355
105.0,-8.219,-2.594,1.946,-0.252,-0.185,-0.355
109.0,-8.219,-2.594,1.946,-0.252,-0.185,-0.355
113.0,-8.548,-2.608,2.198,-0.349,-0.192,-0.336
117.0,-8.548,-2.608,2.198,-0.349,-0.192,-0.336
121.0,-8.772,-2.434,2.474,-0.424,-0.212,-0.317
125.0,-8.772,-2.434,2.474,-0.424,-0.212,-0.317
129.0,-8.772,-2.434,2.474,-0.424,-0.212,-0.317
133.0,-8.629,-2.118,2.238,-0.488,-0.227,-0.298
137.0,-8.629,-2.118,2.238,-0.488,-0.227,-0.298
141.0,-9.081,-1.829,2.259,-0.59,-0.171,-0.259
145.0,-9.081,-1.829,2.259,-0.59,-0.171,-0.259
149.0,-9.081,-1.829,2.259,-0.59,-0.171,-0.259
153.0,-9.833,-1.808,2.64,-0.717,-0.087,-0.196
157.0,-9.833,-1.808,2.64,-0.717,-0.087,-0.196
161.0,-10.039,-1.96,3.013,-0.814,-0.016,-0.113
165.0,-10.039,-1.96,3.013,-0.814,-0.016,-0.113
169.0,-10.039,-2.289,3.497,-0.814,-0.016,-0.113
173.0,-10.564,-2.289,3.497,-0.866,0.074,0.009
177.0,-10.564,-2.289,3.497,-0.866,0.074,0.009
181.0,-10.942,-2.478,3.945,-0.872,0.11,0.112
185.0,-10.942,-2.478,3.945,-0.872,0.11,0.112
189.0,-10.942,-2.565,4.304,-0.872,0.11,0.112
193.0,-10.74,-2.565,4.304,-0.865,0.079,0.184
196.0,-10.74,-2.565,4.304,-0.865,0.079,0.184
200.0,-10.78,-2.582,4.381,-0.866,0.026,0.237
204.0,-10.78,-2.582,4.381,-0.866,0.026,0.237
208.0,-10.78,-2.582,4.513,-0.866,0.026,0.237
212.0,-10.373,-2.752,4.513,-0.878,-0.057,0.273
216.0,-10.373,-2.752,4.513,-0.878,-0.057,0.273
220.0,-9.713,-3.109,4.479,-0.858,-0.134,0.305
224.0,-9.713,-3.109,4.479,-0.858,-0.134,0.305
228.0,-9.713,-3.109,4.358,-0.858,-0.134,0.305
232.0,-9.293,-3.439,4.358,-0.759,-0.211,0.314
236.0,-9.293,-3.439,4.358,-0.759,-0.211,0.314
240.0,-8.815,-3.451,4.105,-0.599,-0.294,0.311
244.0,-8.815,-3.451,4.105,-0.599,-0.294,0.311
247.0,-8.815,-3.451,4.105,-0.599,-0.294,0.311
251.0,-8.391,-3.351,3.683,-0.426,-0.365,0.306
255.0,-8.391,-3.351,3.683,-0.426,-0.365,0.306
259.0,-8.607,-2.642,3.337,-0.297,-0.393,0.27
263.0,-8.607,-2.642,3.337,-0.297,-0.393,0.27
267.0,-8.607,-2.642,3.337,-0.297,-0.393,0.27
271.0,-8.526,-2.381,3.125,-0.293,-0.402,0.196
275.0,-8.526,-2.381,3.125,-0.293,-0.402,0.196
279.0,-8.457,-2.398,2.995,-0.324,-0.418,0.21
283.0,-8.457,-2.398,2.995,-0.324,-0.418,0.21
286.0,-8.457,-2.398,2.995,-0.324,-0.418,0.21
290.0,-8.554,-2.4,2.923,-0.349,-0.422,0.242
294.0,-8.554,-2.4,2.923,-0.349,-0.422,0.242
298.0,-8.898,-2.483,2.917,-0.367,-0.421,0.273
302.0,-8.898,-2.483,2.917,-0.367,-0.421,0.273
306.0,-8.898,-2.483,2.917,-0.367,-0.421,0.273
310.0,-9.408,-2.482,3.072,-0.383,-0.448,0.304
314.0,-9.408,-2.482,3.072,-0.383,-0.448,0.304
318.0,-9.48,-2.589,2.974,-0.398,-0.517,0.345
322.0,-9.48,-2.589,2.974,-0.398,-0.517,0.345
326.0,-9.48,-2.589,2.974,-0.398,-0.517,0.345
329.0,-9.792,-2.493,2.809,-0.411,-0.584,0.398
333.0,-9.792,-2.493,2.809,-0.411,-0.584,0.398
337.0,-10.102,-2.322,2.763,-0.411,-0.639,0.445
341.0,-10.102,-2.322,2.763,-0.451,-0.639,0.445
345.0,-10.102,-2.322,2.763,-0.451,-0.639,0.445
349.0,-10.068,-2.347,2.502,-0.519,-0.694,0.503
353.0,-10.068,-2.347,2.502,-0.519,-0.694,0.503
357.0,-10.161,-2.345,2.289,-0.597,-0.73,0.577
361.0,-10.161,-2.345,2.289,-0.597,-0.73,0.577
365.0,-10.161,-2.345,2.289,-0.597,-0.73,0.577
369.0,-10.354,-2.337,2.128,-0.679,-0.747,0.652
373.0,-10.354,-2.337,2.128,-0.679,-0.747,0.652
377.0,-10.644,-2.352,1.953,-0.769,-0.756,0.723
381.0,-10.644,-2.352,1.953,-0.769,-0.756,0.723
385.0,-10.644,-2.352,1.953,-0.769,-0.756,0.723
389.0,-10.895,-2.346,1.781,-0.869,-0.751,0.794
393.0,-10.895,-2.346,1.781,-0.869,-0.751,0.794
397.0,-11.696,-2.427,1.711,-0.979,-0.74,0.855
401.0,-11.696,-2.427,1.711,-0.979,-0.74,0.855
405.0,-11.696,-2.427,1.711,-0.979,-0.74,0.855
409.0,-12.279,-2.411,1.679,-1.095,-0.754,0.887
413.0,-12.279,-2.411,1.679,-1.095,-0.754,0.887
417.0,-12.35,-2.329,1.646,-1.218,-0.786,0.907
421.0,-12.35,-2.329,1.646,-1.218,-0.786,0.907
425.0,-12.35,-2.329,1.646,-1.218,-0.786,0.907
429.0,-11.972,-2.243,1.658,-1.347,-0.825,0.917
433.0,-11.972,-2.243,1.658,-1.347,-0.825,0.917
437.0,-11.231,-2.108,1.576,-1.468,-0.874,0.903
441.0,-11.231,-2.108,1.576,-1.468,-0.874,0.903
445.0,-11.231,-2.108,1.394,-1.468,-0.874,0.903
449.0,-10.735,-1.993,1.394,-1.579,-0.908,0.861
453.0,-10.735,-1.993,1.394,-1.579,-0.908,0.861
457.0,-10.247,-1.863,1.217,-1.677,-0.918,0.792
461.0,-10.247,-1.863,1.217,-1.677,-0.918,0.792
465.0,-10.247,-1.769,1.165,-1.677,-0.918,0.792
469.0,-9.727,-1.769,1.165,-1.766,-0.921,0.711
473.0,-9.727,-1.769,1.165,-1.766,-0.921,0.711
477.0,-9.252,-1.694,1.069,-1.841,-0.918,0.627
481.0,-9.252,-1.694,1.069,-1.841,-0.918,0.627
485.0,-9.252,-1.694,1.058,-1.841,-0.918,0.627
489.0,-8.934,-1.662,1.058,-1.9,-0.905,0.542
492.0,-8.934,-1.662,1.058,-1.9,-0.905,0.542
496.0,-8.664,-1.656,1.032,-1.938,-0.884,0.462
500.0,-8.664,-1.656,1.032,-1.938,-0.884,0.462
504.0,-8.664,-1.656,1.032,-1.938,-0.884,0.462
508.0,-8.52,-1.721,1.009,-1.959,-0.859,0.394
512.0,-8.52,-1.721,1.009,-1.959,-0.859,0.394
516.0,-8.772,-1.828,0.902,-1.968,-0.816,0.344
520.0,-8.772,-1.828,0.902,-1.968,-0.816,0.344
524.0,-8.772,-1.828,0.902,-1.968,-0.816,0.344
528.0,-9.263,-2.012,0.867,-1.967,-0.746,0.323
532.0,-9.263,-2.012,0.867,-1.967,-0.746,0.323
535.0,-9.564,-2.21,0.988,-1.955,-0.672,0.337
539.0,-9.564,-2.21,0.988,-1.955,-0.672,0.337
543.0,-9.564,-2.21,0.988,-1.955,-0.672,0.337
547.0,-9.604,-2.375,1.123,-1.93,-0.62,0.379
551.0,-9.604,-2.375,1.123,-1.93,-0.62,0.379
555.0,-9.643,-2.582,1.257,-1.893,-0.58,0.436
559.0,-9.643,-2.582,1.257,-1.893,-0.58,0.436
563.0,-9.643,-2.582,1.257,-1.893,-0.58,0.436
567.0,-9.578,-2.878,1.391,-1.843,-0.551,0.486
571.0,-9.578,-2.878,1.391,-1.843,-0.551,0.486
574.0,-9.463,-3.058,1.463,-1.787,-0.537,0.515
578.0,-9.463,-3.058,1.463,-1.787,-0.537,0.515
582.0,-9.463,-3.058,1.463,-1.787,-0.537,0.515
586.0,-9.314,-3.034,1.473,-1.73,-0.526,0.523
590.0,-9.314,-3.034,1.473,-1.73,-0.526,0.523
594.0,-9.191,-2.913,1.458,-1.677,-0.505,0.521
598.0,-9.191,-2.913,1.458,-1.677,-0.505,0.521
602.0,-9.191,-2.913,1.458,-1.677,-0.505,0.521
606.0,-8.929,-2.783,1.445,-1.627,-0.477,0.525
610.0,-8.929,-2.783,1.445,-1.627,-0.477,0.525
614.0,-8.612,-2.768,1.487,-1.627,-0.477,0.545
617.0,-8.612,-2.768,1.487,-1.577,-0.446,0.545
621.0,-8.612,-2.768,1.487,-1.577,-0.446,0.545
625.0,-8.62,-2.952,1.519,-1.529,-0.402,0.58
629.0,-8.62,-2.952,1.519,-1.529,-0.402,0.58
633.0,-8.746,-3.188,1.535,-1.529,-0.402,0.58
637.0,-8.746,-3.188,1.535,-1.48,-0.349,0.618
641.0,-8.746,-3.188,1.535,-1.48,-0.349,0.618
645.0,-8.959,-3.376,1.519,-1.435,-0.294,0.657
649.0,-8.959,-3.376,1.519,-1.435,-0.294,0.657
653.0,-8.959,-3.504,1.545,-1.435,-0.294,0.657
657.0,-9.168,-3.504,1.545,-1.396,-0.241,0.697
660.0,-9.168,-3.504,1.545,-1.396,-0.241,0.697
664.0,-9.315,-3.594,1.588,-1.368,-0.196,0.74
668.0,-9.315,-3.594,1.588,-1.368,-0.196,0.74
672.0,-9.315,-3.594,1.675,-1.368,-0.196,0.74
676.0,-9.233,-3.682,1.675,-1.352,-0.156,0.791
680.0,-9.233,-3.682,1.675,-1.352,-0.156,0.791
684.0,-8.818,-3.736,1.822,-1.34,-0.128,0.838
688.0,-8.818,-3.736,1.822,-1.34,-0.128,0.838
692.0,-8.818,-3.736,1.822,-1.34,-0.128,0.838
696.0,-8.289,-3.711,1.933,-1.325,-0.116,0.862
699.0,-8.289,-3.711,1.933,-1.325,-0.116,0.862
703.0,-7.841,-3.628,1.91,-1.3,-0.109,0.855
707.0,-7.841,-3.628,1.91,-1.3,-0.109,0.855
711.0,-7.841,-3.628,1.91,-1.3,-0.109,0.855
715.0,-7.515,-3.537,1.797,-1.265,-0.096,0.829
719.0,-7.515,-3.537,1.797,-1.265,-0.096,0.829
723.0,-7.42,-3.445,1.679,-1.223,-0.067,0.811
727.0,-7.42,-3.445,1.679,-1.223,-0.067,0.811
731.0,-7.42,-3.445,1.679,-1.223,-0.067,0.811
735.0,-7.509,-3.427,1.552,-1.177,-0.018,0.822
739.0,-7.509,-3.427,1.552,-1.177,-0.018,0.822
742.0,-7.814,-3.519,1.476,-1.127,0.044,0.873
746.0,-7.814,-3.519,1.476,-1.127,0.044,0.873
750.0,-7.814,-3.519,1.476,-1.127,0.044,0.873
754.0,-8.311,-3.677,1.491,-1.078,0.12,0.954
758.0,-8.311,-3.677,1.491,-1.078,0.12,0.954
762.0,-8.773,-3.915,1.513,-1.078,0.12,1.057
765.0,-8.773,-3.915,1.513,-1.023,0.191,1.057
769.0,-8.773,-3.915,1.513,-1.023,0.191,1.057
773.0,-9.465,-4.196,1.593,-0.967,0.261,1.176
777.0,-9.465,-4.196,1.593,-0.967,0.261,1.176
781.0,-9.465,-4.196,1.948,-0.967,0.261,1.176
784.0,-9.907,-4.526,1.948,-0.9,0.317,1.291
788.0,-9.907,-4.526,1.948,-0.9,0.317,1.291
792.0,-9.547,-4.766,2.401,-0.811,0.302,1.364
796.0,-9.547,-4.766,2.401,-0.811,0.302,1.364
800.0,-9.547,-4.766,2.401,-0.811,0.302,1.364
804.0,-9.011,-4.78,2.662,-0.697,0.221,1.361
807.0,-9.011,-4.78,2.662,-0.697,0.221,1.361
811.0,-8.66,-4.628,2.676,-0.556,0.127,1.27
815.0,-8.66,-4.628,2.676,-0.556,0.127,1.27
819.0,-8.66,-4.628,2.676,-0.556,0.127,1.27
823.0,-8.471,-4.305,2.495,-0.401,0.03,1.129
826.0,-8.471,-4.305,2.495,-0.401,0.03,1.129
830.0,-8.471,-3.925,2.178,-0.401,0.03,1.129
834.0,-8.543,-3.925,2.178,-0.25,-0.057,0.979
838.0,-8.543,-3.925,2.178,-0.25,-0.057,0.979
842.0,-9.101,-3.601,1.757,-0.116,-0.108,0.855
846.0,-9.101,-3.601,1.757,-0.116,-0.108,0.855
850.0,-9.101,-3.601,1.428,-0.116,-0.108,0.855
854.0,-10.187,-3.494,1.428,-0.011,-0.103,0.786
858.0,-10.187,-3.494,1.428,-0.011,-0.103,0.786
862.0,-10.755,-3.622,1.326,0.067,-0.077,0.767
866.0,-10.755,-3.622,1.326,0.067,-0.077,0.767
869.0,-10.755,-3.622,1.406,0.067,-0.077,0.767
873.0,-10.412,-3.833,1.406,0.118,-0.086,0.758
877.0,-10.412,-3.833,1.406,0.118,-0.086,0.758
881.0,-9.874,-3.872,1.632,0.138,-0.126,0.697
885.0,-9.874,-3.872,1.632,0.138,-0.126,0.697
889.0,-9.874,-3.872,1.632,0.138,-0.126,0.697
893.0,-9.448,-3.666,1.615,0.131,-0.172,0.562
896.0,-9.448,-3.666,1.615,0.131,-0.172,0.562
900.0,-9.194,-3.288,1.498,0.087,-0.2,0.39
904.0,-9.194,-3.288,1.498,0.087,-0.2,0.39
908.0,-9.194,-3.288,1.498,0.087,-0.2,0.39
912.0,-9.089,-2.866,1.456,-0.007,-0.197,0.225
916.0,-9.089,-2.866,1.456,-0.007,-0.197,0.225
920.0,-9.37,-2.578,1.479,-0.007,-0.197,0.11
923.0,-9.37,-2.578,1.479,-0.152,-0.147,0.11
927.0,-9.37,-2.578,1.479,-0.152,-0.147,0.11
931.0,-9.966,-2.556,1.684,-0.34,-0.035,0.062
935.0,-9.966,-2.556,1.684,-0.34,-0.035,0.062
939.0,-10.289,-2.81,2.227,-0.34,-0.035,0.062
943.0,-10.289,-2.81,2.227,-0.543,0.098,0.079
947.0,-10.289,-2.81,2.227,-0.543,0.098,0.079
951.0,-10.17,-3.19,2.746,-0.738,0.18,0.135
955.0,-10.17,-3.19,2.746,-0.738,0.18,0.135
959.0,-10.148,-3.596,3.02,-0.738,0.18,0.135
963.0,-10.148,-3.596,3.02,-0.902,0.206,0.184
967.0,-10.148,-3.596,3.02,-0.902,0.206,0.184
970.0,-10.289,-3.94,3.133,-1.022,0.209,0.191
974.0,-10.289,-3.94,3.133,-1.022,0.209,0.191
978.0,-10.289,-3.94,3.044,-1.022,0.209,0.191
982.0,-9.973,-4.07,3.044,-1.098,0.18,0.161
986.0,-9.973,-4.07,3.044,-1.098,0.18,0.161
990.0,-9.64,-4.015,2.709,-1.145,0.135,0.113
994.0,-9.64,-4.015,2.709,-1.145,0.135,0.113
997.0,-9.64,-4.015,2.709,-1.145,0.135,0.113
1001.0,-9.552,-3.961,2.429,-1.174,0.135,0.065
1005.0,-9.552,-3.961,2.429,-1.174,0.135,0.065
1009.0,-9.096,-3.909,2.456,-1.176,0.154,0.022
1013.0,-9.096,-3.909,2.456,-1.176,0.154,0.022
1017.0,-9.096,-3.909,2.456,-1.176,0.154,0.022
1021.0,-8.17,-3.812,2.563,-1.14,0.135,-0.035
1025.0,-8.17,-3.812,2.563,-1.14,0.135,-0.035
1029.0,-7.33,-3.725,2.618,-1.055,0.098,-0.139
1033.0,-7.33,-3.725,2.618,-1.055,0.098,-0.139
1037.0,-7.33,-3.725,2.618,-1.055,0.098,-0.139
1041.0,-6.989,-3.616,2.62,-0.926,0.079,-0.295
1045.0,-6.989,-3.616,2.62,-0.926,0.079,-0.295
1049.0,-7.062,-3.536,2.544,-0.761,0.072,-0.457
1053.0,-7.062,-3.536,2.544,-0.761,0.072,-0.457
1057.0,-7.062,-3.536,2.544,-0.761,0.072,-0.457
1061.0,-7.566,-3.528,2.457,-0.587,0.069,-0.578
1065.0,-7.566,-3.528,2.457,-0.587,0.069,-0.578
1069.0,-8.391,-3.659,2.433,-0.418,0.083,-0.642
1073.0,-8.391,-3.659,2.433,-0.418,0.083,-0.642
1077.0,-8.391,-3.659,2.433,-0.418,0.083,-0.642
1081.0,-9.276,-3.865,2.52,-0.265,0.102,-0.651
1085.0,-9.276,-3.865,2.52,-0.265,0.102,-0.651
1089.0,-10.049,-4.119,2.678,-0.122,0.1,-0.627
1093.0,-10.049,-4.119,2.678,-0.122,0.1,-0.627
1097.0,-10.049,-4.317,2.861,-0.122,0.1,-0.627
1101.0,-10.636,-4.317,2.861,0.01,0.063,-0.594
1105.0,-10.636,-4.317,2.861,0.01,0.063,-0.594
1109.0,-10.95,-4.408,3.01,0.128,-0.008,-0.579
1113.0,-10.95,-4.408,3.01,0.128,-0.008,-0.579
1117.0,-10.987,-4.315,3.039,0.128,-0.101,-0.6
1121.0,-10.987,-4.315,3.039,0.234,-0.101,-0.6
1125.0,-10.987,-4.315,3.039,0.234,-0.101,-0.6
1129.0,-10.746,-4.033,2.94,0.324,-0.204,-0.661
1133.0,-10.746,-4.033,2.94,0.324,-0.204,-0.661
1137.0,-10.448,-3.625,2.753,0.397,-0.294,-0.748
1142.0,-10.448,-3.625,2.753,0.397,-0.294,-0.748
1146.0,-10.448,-3.625,2.753,0.397,-0.294,-0.748
1150.0,-10.146,-3.282,2.538,0.456,-0.356,-0.842
1154.0,-10.146,-3.282,2.538,0.456,-0.356,-0.842
1158.0,-10.087,-3.053,2.358,0.496,-0.391,-0.936
1162.0,-10.087,-3.053,2.358,0.496,-0.391,-0.936
1166.0,-10.196,-2.967,2.297,0.496,-0.391,-0.936
1170.0,-10.196,-2.967,2.297,0.513,-0.399,-1.022
1174.0,-10.196,-2.967,2.297,0.513,-0.399,-1.022
1178.0,-10.271,-2.947,2.293,0.51,-0.403,-1.102
1182.0,-10.271,-2.947,2.293,0.51,-0.403,-1.102
1186.0,-10.75,-3.09,2.327,0.485,-0.402,-1.178
1190.0,-10.75,-3.09,2.327,0.485,-0.402,-1.178
1195.0,-10.75,-3.09,2.327,0.485,-0.402,-1.178
1199.0,-11.346,-3.384,2.509,0.435,-0.391,-1.258
1203.0,-11.346,-3.384,2.509,0.435,-0.391,-1.258
1207.0,-11.544,-3.602,2.729,0.367,-0.407,-1.349
1211.0,-11.544,-3.602,2.729,0.367,-0.407,-1.349
1215.0,-11.544,-3.602,2.824,0.367,-0.407,-1.349
1219.0,-11.475,-3.698,2.824,0.285,-0.453,-1.455
1223.0,-11.475,-3.698,2.824,0.285,-0.453,-1.455
1227.0,-11.2,-3.771,2.848,0.198,-0.499,-1.587
1231.0,-11.2,-3.771,2.848,0.198,-0.499,-1.587
1235.0,-10.758,-3.84,2.849,0.198,-0.499,-1.738
1239.0,-10.758,-3.84,2.849,0.119,-0.534,-1.738
1244.0,-10.758,-3.84,2.849,0.119,-0.534,-1.738
1248.0,-10.294,-3.939,2.842,0.059,-0.565,-1.897
1252.0,-10.294,-3.939,2.842,0.059,-0.565,-1.897
1256.0,-9.951,-4.21,2.922,0.021,-0.591,-2.059
1260.0,-9.951,-4.21,2.922,0.021,-0.591,-2.059
1264.0,-9.951,-4.21,2.922,0.021,-0.591,-2.059
1268.0,-9.949,-4.649,2.971,0.004,-0.613,-2.22
1272.0,-9.949,-4.649,2.971,0.004,-0.613,-2.22
1276.0,-10.207,-5.194,2.984,0.006,-0.643,-2.378
1280.0,-10.207,-5.194,2.984,0.006,-0.643,-2.378
1284.0,-10.207,-5.194,2.984,0.006,-0.643,-2.378
1288.0,-10.349,-5.792,3.042,0.025,-0.698,-2.54
1292.0,-10.349,-5.792,3.042,0.025,-0.698,-2.54
1296.0,-10.411,-6.193,3.014,0.057,-0.774,-2.718
1300.0,-10.411,-6.193,3.014,0.057,-0.774,-2.718
1304.0,-10.388,-6.465,2.944,0.057,-0.774,-2.718
1308.0,-10.388,-6.465,2.944,0.092,-0.855,-2.898
1312.0,-10.388,-6.465,2.944,0.092,-0.855,-2.898
1317.0,-10.26,-6.623,2.876,0.112,-0.937,-3.068
1321.0,-10.26,-6.623,2.876,0.112,-0.937,-3.068
1325.0,-10.108,-6.598,2.807,0.107,-0.992,-3.198
1329.0,-10.108,-6.598,2.807,0.107,-0.992,-3.198
1333.0,-10.108,-6.598,2.807,0.107,-0.992,-3.198
1337.0,-9.814,-6.526,2.818,0.069,-1.005,-3.263
1341.0,-9.814,-6.526,2.818,0.069,-1.005,-3.263
1345.0,-9.249,-6.529,2.923,-0.005,-0.987,-3.258
1349.0,-9.249,-6.529,2.923,-0.005,-0.987,-3.258
1353.0,-9.249,-6.529,2.923,-0.005,-0.987,-3.258
1357.0,-8.623,-6.73,3.125,-0.108,-0.953,-3.21
1361.0,-8.623,-6.73,3.125,-0.108,-0.953,-3.21
1365.0,-7.952,-6.929,3.38,-0.217,-0.915,-3.164
1369.0,-7.952,-6.929,3.38,-0.217,-0.915,-3.164
1373.0,-7.437,-7.171,3.621,-0.217,-0.915,-3.164
1378.0,-7.437,-7.171,3.621,-0.312,-0.891,-3.143
1382.0,-7.437,-7.171,3.621,-0.312,-0.891,-3.143
1386.0,-7.178,-7.351,3.663,-0.381,-0.878,-3.154
1390.0,-7.178,-7.351,3.663,-0.381,-0.878,-3.154
1394.0,-7.079,-7.465,3.675,-0.42,-0.858,-3.163
1398.0,-7.079,-7.465,3.675,-0.42,-0.858,-3.163
1402.0,-7.079,-7.465,3.675,-0.42,-0.858,-3.163
1406.0,-7.038,-7.979,3.833,-0.432,-0.829,-3.133
1410.0,-7.038,-7.979,3.833,-0.432,-0.829,-3.133
1414.0,-7.068,-8.603,3.872,-0.431,-0.789,-3.064
1418.0,-7.068,-8.603,3.872,-0.431,-0.789,-3.064
1422.0,-7.068,-8.603,3.87,-0.431,-0.789,-3.064
1426.0,-6.976,-9.062,3.87,-0.421,-0.738,-2.959
1431.0,-6.976,-9.062,3.87,-0.421,-0.738,-2.959
1435.0,-6.751,-9.479,3.979,-0.401,-0.687,-2.835
1439.0,-6.751,-9.479,3.979,-0.401,-0.687,-2.835
1443.0,-6.386,-9.558,4.074,-0.401,-0.659,-2.754
1447.0,-6.386,-9.558,4.074,-0.349,-0.659,-2.754
1451.0,-6.386,-9.558,4.074,-0.349,-0.659,-2.754
1455.0,-5.826,-9.432,4.134,-0.241,-0.669,-2.759
1459.0,-5.826,-9.432,4.134,-0.241,-0.669,-2.759
1463.0,-5.417,-9.065,4.058,-0.086,-0.705,-2.852
1467.0,-5.417,-9.065,4.058,-0.086,-0.705,-2.852
1471.0,-5.417,-9.065,4.058,-0.086,-0.705,-2.852
1475.0,-5.151,-8.517,3.837,0.091,-0.747,-2.961
1479.0,-5.151,-8.517,3.837,0.091,-0.747,-2.961
1483.0,-4.78,-8.201,3.671,0.259,-0.778,-3.013
1487.0,-4.78,-8.201,3.671,0.259,-0.778,-3.013
1491.0,-4.78,-8.201,3.549,0.259,-0.778,-3.013
1495.0,-4.308,-8.092,3.549,0.393,-0.784,-2.996
1499.0,-4.308,-8.092,3.549,0.393,-0.784,-2.996
1503.0,-3.386,-8.11,3.5,0.475,-0.748,-2.925
1507.0,-3.386,-8.11,3.5,0.475,-0.748,-2.925
1511.0,-3.386,-9.082,3.682,0.475,-0.748,-2.925
1515.0,-3.59,-9.082,3.682,0.384,-0.437,-2.803
1519.0,-3.59,-9.082,3.682,0.384,-0.437,-2.803
1523.0,-3.422,-9.366,4.063,0.383,-0.5,-2.738
1527.0,-3.422,-9.366,4.063,0.383,-0.5,-2.738
1531.0,-3.455,-9.306,4.675,0.383,-0.5,-2.738
1535.0,-3.455,-9.306,4.675,0.292,-0.563,-2.729
1539.0,-3.455,-9.306,4.675,0.292,-0.563,-2.729
1543.0,-3.873,-8.657,5.484,0.119,-0.536,-2.848
1547.0,-3.873,-8.657,5.484,0.119,-0.536,-2.848
1551.0,-4.21,-7.557,6.019,0.119,-0.536,-3.075
1555.0,-4.21,-7.557,6.019,-0.001,-0.557,-3.075
1559.0,-4.21,-7.557,6.019,-0.001,-0.557,-3.075
1563.0,-4.01,-6.254,7.055,0.049,-0.597,-3.339
1567.0,-4.01,-6.254,7.055,0.049,-0.597,-3.339
1571.0,-3.749,-4.921,8.264,0.359,-0.6,-3.57
1575.0,-3.749,-4.921,8.264,0.359,-0.6,-3.57
1579.0,-3.749,-4.921,8.264,0.359,-0.6,-3.57
1583.0,-3.583,-4.979,6.285,0.782,-0.577,-3.675
1587.0,-3.583,-4.979,6.285,0.782,-0.577,-3.675
1591.0,-2.405,-4.868,5.439,0.959,-0.503,-3.647
1595.0,-2.405,-4.868,5.439,0.959,-0.503,-3.647
1599.0,-2.405,-4.868,5.439,0.959,-0.503,-3.647
1603.0,-0.691,-5.688,5.303,0.963,-0.343,-3.494
1607.0,-0.691,-5.688,5.303,0.963,-0.343,-3.494
1611.0,0.644,-6.546,5.396,0.811,-0.141,-3.223
1615.0,0.644,-6.546,5.396,0.811,-0.141,-3.223
1619.0,0.644,-6.546,5.396,0.811,-0.141,-3.223
1623.0,0.893,-7.531,5.581,0.574,0.059,-2.886
1627.0,0.893,-7.531,5.581,0.574,0.059,-2.886
1631.0,0.252,-8.475,5.556,0.321,0.212,-2.612
1635.0,0.252,-8.475,5.556,0.321,0.212,-2.612
1638.0,0.252,-8.475,5.556,0.321,0.212,-2.612
1642.0,-0.735,-8.608,5.35,0.11,0.312,-2.486
1646.0,-0.735,-8.608,5.35,0.11,0.312,-2.486
1650.0,-1.417,-8.368,5.131,0.11,0.312,-2.482
1654.0,-1.417,-8.368,5.131,0.002,0.369,-2.482
1658.0,-1.417,-8.368,5.131,0.002,0.369,-2.482
1662.0,-1.749,-7.954,4.771,0.002,0.389,-2.523
1666.0,-1.749,-7.954,4.771,0.002,0.389,-2.523
1670.0,-1.872,-7.46,4.315,0.002,0.389,-2.523
1673.0,-1.872,-7.46,4.315,0.089,0.379,-2.499
1677.0,-1.872,-7.46,4.315,0.089,0.379,-2.499
1681.0,-1.776,-7.294,3.827,0.234,0.349,-2.368
1685.0,-1.776,-7.294,3.827,0.234,0.349,-2.368
1689.0,-1.776,-7.366,3.319,0.234,0.349,-2.368
1693.0,-1.568,-7.366,3.319,0.425,0.315,-2.176
1697.0,-1.568,-7.366,3.319,0.425,0.315,-2.176
1701.0,-1.467,-7.787,2.8,0.66,0.28,-1.99
1705.0,-1.467,-7.787,2.8,0.66,0.28,-1.99
1709.0,-1.467,-7.787,2.288,0.66,0.28,-1.99
1713.0,-1.003,-8.116,2.288,0.917,0.204,-1.839
1716.0,-1.003,-8.116,2.288,0.917,0.204,-1.839
1720.0,-0.533,-8.273,1.834,1.133,0.143,-1.693
1724.0,-0.533,-8.273,1.834,1.133,0.143,-1.693
1728.0,-0.533,-8.273,1.834,1.133,0.143,-1.693
1732.0,-0.327,-8.279,1.461,1.267,0.103,-1.558
1736.0,-0.327,-8.279,1.461,1.267,0.103,-1.558
1740.0,-0.144,-8.121,1.153,1.294,0.064,-1.435
1744.0,-0.144,-8.121,1.153,1.294,0.064,-1.435
1748.0,-0.144,-8.121,1.153,1.294,0.064,-1.435
1752.0,0.197,-7.791,0.985,1.204,0.016,-1.298
1755.0,0.197,-7.791,0.985,1.204,0.016,-1.298
1759.0,0.596,-7.755,1.001,1.005,-0.04,-1.12
1763.0,0.596,-7.755,1.001,1.005,-0.04,-1.12
1767.0,0.596,-7.755,1.001,1.005,-0.04,-1.12
1771.0,0.617,-7.801,1.118,0.706,-0.105,-0.939
1775.0,0.617,-7.801,1.118,0.706,-0.105,-0.939
1779.0,0.274,-7.749,1.12,0.364,-0.185,-0.797
1783.0,0.274,-7.749,1.12,0.364,-0.185,-0.797
1787.0,0.274,-7.749,1.12,0.364,-0.185,-0.797
1790.0,0.228,-7.564,1.085,0.009,-0.286,-0.711
1794.0,0.228,-7.564,1.085,0.009,-0.286,-0.711
1798.0,0.401,-7.192,0.976,0.009,-0.388,-0.66
1802.0,0.401,-7.192,0.976,-0.331,-0.388,-0.66
1806.0,0.401,-7.192,0.976,-0.331,-0.388,-0.66
1810.0,0.606,-6.753,0.792,-0.635,-0.475,-0.597
1814.0,0.606,-6.753,0.792,-0.635,-0.475,-0.597
1818.0,0.97,-6.598,0.621,-0.9,-0.545,-0.483
1822.0,0.97,-6.598,0.621,-0.9,-0.545,-0.483
1826.0,0.97,-6.598,0.621,-0.9,-0.545,-0.483
1830.0,1.231,-6.718,0.527,-1.13,-0.595,-0.324
1834.0,1.231,-6.718,0.527,-1.13,-0.595,-0.324
1838.0,1.104,-6.86,0.549,-1.32,-0.623,-0.154
1842.0,1.104,-6.86,0.549,-1.32,-0.623,-0.154
1846.0,1.104,-6.86,0.549,-1.32,-0.623,-0.154
1850.0,0.93,-6.845,0.587,-1.452,-0.635,-0.014
1854.0,0.93,-6.845,0.587,-1.452,-0.635,-0.014
1858.0,0.957,-6.578,0.683,-1.528,-0.648,0.087
1862.0,0.957,-6.578,0.683,-1.528,-0.648,0.087
1866.0,0.957,-6.578,0.683,-1.528,-0.648,0.087
1870.0,1.005,-6.192,0.905,-1.567,-0.662,0.191
1874.0,1.005,-6.192,0.905,-1.567,-0.662,0.191
1878.0,1.016,-5.969,1.208,-1.58,-0.669,0.308
1882.0,1.016,-5.969,1.208,-1.58,-0.669,0.308
1885.0,1.016,-5.969,1.208,-1.58,-0.669,0.308
1889.0,0.898,-5.662,1.496,-1.565,-0.655,0.401
1893.0,0.898,-5.662,1.496,-1.565,-0.655,0.401
1897.0,1.018,-5.397,1.868,-1.52,-0.61,0.464
1901.0,1.018,-5.397,1.868,-1.52,-0.61,0.464
1905.0,1.018,-5.397,1.868,-1.52,-0.61,0.464
1909.0,1.151,-4.934,2.76,-1.478,-0.552,0.507
1913.0,1.151,-4.934,2.76,-1.478,-0.552,0.507
1917.0,0.145,-3.237,5.539,-1.478,-0.527,0.57
1921.0,0.145,-3.237,5.539,-1.501,-0.527,0.57
1924.0,0.145,-3.237,5.539,-1.501,-0.527,0.57
1928.0,-3.633,1.765,12.126,-1.791,-0.763,0.732
1932.0,-3.633,1.765,12.126,-1.791,-0.763,0.732
1936.0,-0.595,-2.716,8.174,-1.791,-1.223,0.98
1940.0,-0.595,-2.716,8.174,-2.292,-1.223,0.98
1944.0,-0.595,-2.716,8.174,-2.292,-1.223,0.98
1948.0,2.222,-6.826,4.424,-2.731,-1.334,0.926
1952.0,2.222,-6.826,4.424,-2.731,-1.334,0.926
1956.0,3.229,-8.636,2.837,-2.731,-1.263,0.819
1960.0,3.229,-8.636,2.837,-2.966,-1.263,0.819
1964.0,3.229,-8.636,2.837,-2.966,-1.263,0.819
1968.0,3.167,-10.318,2.374,-3.082,-1.087,0.786
1972.0,3.167,-10.318,2.374,-3.082,-1.087,0.786
1976.0,2.934,-11.545,2.387,-3.082,-0.986,0.726
1980.0,2.934,-11.545,2.387,-3.038,-0.986,0.726
1984.0,2.934,-11.545,2.387,-3.038,-0.986,0.726
1988.0,2.537,-12.175,2.224,-2.846,-0.902,0.639
1992.0,2.537,-12.175,2.224,-2.846,-0.902,0.639
1996.0,2.076,-12.602,2.532,-2.544,-0.83,0.597
2000.0,2.076,-12.602,2.532,-2.544,-0.83,0.597
2004.0,2.076,-12.602,2.532,-2.544,-0.83,0.597
2008.0,1.466,-13.033,3.013,-2.213,-0.819,0.573
2012.0,1.466,-13.033,3.013,-2.213,-0.819,0.573
2016.0,1.056,-13.162,3.014,-1.893,-0.861,0.506
2020.0,1.056,-13.162,3.014,-1.893,-0.861,0.506
2024.0,1.056,-13.162,3.014,-1.893,-0.861,0.506
2028.0,1.004,-13.222,2.745,-1.547,-0.919,0.434
2032.0,1.004,-13.222,2.745,-1.547,-0.919,0.434
2036.0,0.963,-13.253,2.463,-1.151,-0.969,0.373
2040.0,0.963,-13.253,2.463,-1.151,-0.969,0.373
2044.0,0.963,-13.253,2.463,-1.151,-0.969,0.373
2048.0,0.735,-12.878,2.089,-0.751,-1.0,0.278
2052.0,0.735,-12.878,2.089,-0.751,-1.0,0.278
2056.0,0.535,-12.043,1.775,-0.387,-1.012,0.157
2060.0,0.535,-12.043,1.775,-0.387,-1.012,0.157
2064.0,0.535,-12.043,1.775,-0.387,-1.012,0.157
2068.0,0.456,-10.962,1.631,-0.072,-1.012,0.051
2072.0,0.456,-10.962,1.631,-0.072,-1.012,0.051
2076.0,0.358,-9.782,1.644,0.179,-1.003,-0.035
2080.0,0.358,-9.782,1.644,0.179,-1.003,-0.035
2084.0,0.358,-9.782,1.644,0.179,-1.003,-0.035
2087.0,0.378,-8.811,1.521,0.36,-0.99,-0.104
2091.0,0.378,-8.811,1.521,0.36,-0.99,-0.104
2095.0,0.648,-8.188,1.223,0.47,-0.978,-0.142
2099.0,0.648,-8.188,1.223,0.47,-0.978,-0.142
2103.0,0.648,-8.188,1.223,0.47,-0.978,-0.142
2107.0,0.899,-7.836,1.152,0.518,-0.964,-0.119
2111.0,0.899,-7.836,1.152,0.518,-0.964,-0.119
2115.0,0.824,-7.673,1.4,0.506,-0.955,-0.057
2119.0,0.824,-7.673,1.4,0.506,-0.955,-0.057
2123.0,0.824,-7.673,1.4,0.506,-0.955,-0.057
2126.0,0.288,-7.326,1.845,0.431,-0.964,-0.016
2130.0,0.288,-7.326,1.845,0.431,-0.964,-0.016
2134.0,-0.266,-6.963,2.046,0.319,-0.998,-0.019
2138.0,-0.266,-6.963,2.046,0.319,-0.998,-0.019
2142.0,-0.266,-6.963,2.046,0.319,-0.998,-0.019
2146.0,-0.309,-7.037,1.667,0.238,-1.043,-0.045
2150.0,-0.309,-7.037,1.667,0.238,-1.043,-0.045
2154.0,-0.101,-7.221,1.122,0.253,-1.067,-0.068
2158.0,-0.101,-7.221,1.122,0.253,-1.067,-0.068
2162.0,-0.101,-7.221,1.122,0.253,-1.067,-0.068
2166.0,-0.083,-7.223,0.944,0.348,-1.073,-0.06
2170.0,-0.083,-7.223,0.944,0.348,-1.073,-0.06
2174.0,-0.292,-7.155,0.989,0.469,-1.083,-0.028
2178.0,-0.292,-7.155,0.989,0.469,-1.083,-0.028
2182.0,-0.292,-7.155,0.989,0.469,-1.083,-0.028
2186.0,-0.32,-7.197,1.12,0.578,-1.104,0.0
2190.0,-0.32,-7.197,1.12,0.578,-1.104,0.0
2194.0,0.021,-7.342,1.339,0.648,-1.139,0.022
2198.0,0.021,-7.342,1.339,0.648,-1.139,0.022
2202.0,0.021,-7.342,1.339,0.648,-1.139,0.022
2205.0,0.273,-7.53,1.671,0.652,-1.174,0.043
2209.0,0.273,-7.53,1.671,0.652,-1.174,0.043
2213.0,0.49,-7.769,2.065,0.592,-1.191,0.065
2217.0,0.49,-7.769,2.065,0.592,-1.191,0.065
2221.0,0.49,-7.769,2.065,0.592,-1.191,0.065
2225.0,0.861,-8.052,2.407,0.478,-1.189,0.089
2228.0,0.861,-8.052,2.407,0.478,-1.189,0.089
2232.0,1.274,-8.358,2.688,0.478,-1.189,0.089
2236.0,1.274,-8.358,2.688,0.319,-1.159,0.13
2240.0,1.274,-8.358,2.688,0.319,-1.159,0.13
2244.0,1.649,-8.987,3.06,0.125,-1.091,0.196
2247.0,1.649,-8.987,3.06,0.125,-1.091,0.196
2251.0,1.649,-8.987,3.06,0.125,-1.091,0.196
2255.0,1.875,-9.837,3.462,-0.085,-0.995,0.268
2259.0,1.875,-9.837,3.462,-0.085,-0.995,0.268
2263.0,1.945,-10.868,3.864,-0.294,-0.895,0.329
2267.0,1.945,-10.868,3.864,-0.294,-0.895,0.329
2271.0,1.945,-10.868,3.864,-0.294,-0.895,0.329
2275.0,1.826,-11.989,4.245,-0.482,-0.798,0.364
2279.0,1.826,-11.989,4.245,-0.482,-0.798,0.364
2283.0,1.796,-13.236,4.457,-0.63,-0.712,0.371
2287.0,1.796,-13.236,4.457,-0.63,-0.712,0.371
2291.0,1.796,-13.236,4.585,-0.63,-0.712,0.371
2295.0,1.636,-14.27,4.585,-0.738,-0.639,0.356
2299.0,1.636,-14.27,4.585,-0.738,-0.639,0.356
2303.0,1.469,-15.276,4.673,-0.798,-0.58,0.334
2307.0,1.469,-15.276,4.673,-0.798,-0.58,0.334
2311.0,1.469,-16.219,4.644,-0.798,-0.58,0.334
2315.0,1.418,-16.219,4.644,-0.808,-0.53,0.305
2319.0,1.418,-16.219,4.644,-0.808,-0.53,0.305
2323.0,1.418,-16.95,4.555,-0.771,-0.473,0.275
2327.0,1.418,-16.95,4.555,-0.771,-0.473,0.275
2331.0,1.379,-17.404,4.485,-0.771,-0.473,0.275
2335.0,1.379,-17.404,4.485,-0.7,-0.41,0.252
2339.0,1.379,-17.404,4.485,-0.7,-0.41,0.252
2343.0,1.472,-17.677,4.44,-0.611,-0.342,0.233
2347.0,1.472,-17.677,4.44,-0.611,-0.342,0.233
2351.0,1.655,-17.961,4.341,-0.611,-0.342,0.221
2355.0,1.655,-17.961,4.341,-0.54,-0.271,0.221
2359.0,1.655,-17.961,4.341,-0.54,-0.271,0.221
2363.0,1.524,-18.037,4.21,-0.505,-0.192,0.225
2367.0,1.524,-18.037,4.21,-0.505,-0.192,0.225
2371.0,1.216,-17.97,4.024,-0.505,-0.119,0.225
2375.0,1.216,-17.97,4.024,-0.49,-0.119,0.225
2379.0,1.216,-17.97,4.024,-0.49,-0.119,0.225
2383.0,0.989,-17.482,3.579,-0.464,-0.052,0.188
2387.0,0.989,-17.482,3.579,-0.464,-0.052,0.188
2391.0,1.043,-16.672,3.062,-0.421,0.012,0.132
2395.0,1.043,-16.672,3.062,-0.421,0.012,0.132
2399.0,1.043,-16.672,3.062,-0.421,0.012,0.132
2402.0,0.642,-15.813,2.835,-0.385,0.065,0.115
2406.0,0.642,-15.813,2.835,-0.385,0.065,0.115
2410.0,0.057,-14.707,2.724,-0.385,0.084,0.127
2414.0,0.057,-14.707,2.724,-0.356,0.084,0.127
2418.0,0.057,-14.707,2.724,-0.356,0.084,0.127
2422.0,0.226,-14.021,2.352,-0.322,0.074,0.138
2426.0,0.226,-14.021,2.352,-0.322,0.074,0.138
2430.0,0.565,-14.037,1.414,-0.322,0.074,0.141
2434.0,0.565,-14.037,1.414,-0.246,0.073,0.141
2438.0,0.565,-14.037,1.414,-0.246,0.073,0.141
2441.0,0.781,-14.556,0.139,-0.107,0.119,0.13
2445.0,0.781,-14.556,0.139,-0.107,0.119,0.13
2449.0,0.618,-14.649,-0.647,-0.107,0.119,0.13
2453.0,0.618,-14.649,-0.647,0.08,0.216,0.098
2457.0,0.618,-14.649,-0.647,0.08,0.216,0.098
2461.0,0.261,-14.274,-0.863,0.31,0.333,0.051
2465.0,0.261,-14.274,-0.863,0.31,0.333,0.051
2469.0,0.001,-13.45,-0.988,0.31,0.333,0.051
2473.0,0.001,-13.45,-0.988,0.583,0.437,-0.02
2477.0,0.001,-13.45,-0.988,0.583,0.437,-0.02
2481.0,0.102,-12.281,-1.277,0.866,0.52,-0.109
2485.0,0.102,-12.281,-1.277,0.866,0.52,-0.109
2489.0,0.596,-11.12,-1.497,0.866,0.52,-0.109
2493.0,0.596,-11.12,-1.497,1.097,0.589,-0.171
2497.0,0.596,-11.12,-1.497,1.097,0.589,-0.171
2501.0,1.116,-10.408,-1.671,1.253,0.644,-0.161
2505.0,1.116,-10.408,-1.671,1.253,0.644,-0.161
2509.0,1.487,-10.161,-1.927,1.253,0.644,-0.089
2513.0,1.487,-10.161,-1.927,1.338,0.691,-0.089
2517.0,1.487,-10.161,-1.927,1.338,0.691,-0.089
2521.0,2.008,-10.126,-2.283,1.359,0.727,0.01
2525.0,2.008,-10.126,-2.283,1.359,0.727,0.01
2529.0,2.743,-10.128,-2.524,1.359,0.751,0.129
2532.0,2.743,-10.128,-2.524,1.312,0.751,0.129
2536.0,2.743,-10.128,-2.524,1.312,0.751,0.129
2540.0,3.269,-10.182,-2.596,1.2,0.765,0.278
2544.0,3.269,-10.182,-2.596,1.2,0.765,0.278
2548.0,3.561,-10.445,-2.517,1.2,0.765,0.278
2552.0,3.561,-10.445,-2.517,1.061,0.767,0.433
2556.0,3.561,-10.445,-2.517,1.061,0.767,0.433
2560.0,3.665,-10.65,-2.357,0.935,0.753,0.548
2564.0,3.665,-10.65,-2.357,0.935,0.753,0.548
2568.0,3.564,-10.775,-2.116,0.935,0.753,0.548
2572.0,3.564,-10.775,-2.116,0.832,0.725,0.618
2575.0,3.564,-10.775,-2.116,0.832,0.725,0.618
2579.0,3.282,-10.967,-1.835,0.749,0.685,0.652
2583.0,3.282,-10.967,-1.835,0.749,0.685,0.652
2587.0,3.282,-10.967,-1.519,0.749,0.685,0.652
2591.0,2.914,-11.09,-1.519,0.684,0.632,0.644
2595.0,2.914,-11.09,-1.519,0.684,0.632,0.644
2599.0,2.584,-11.057,-1.225,0.637,0.567,0.602
2603.0,2.584,-11.057,-1.225,0.637,0.567,0.602
2607.0,2.584,-11.057,-1.225,0.637,0.567,0.602
2611.0,2.381,-10.771,-0.974,0.607,0.498,0.537
2614.0,2.381,-10.771,-0.974,0.607,0.498,0.537
2618.0,2.218,-10.215,-0.697,0.592,0.435,0.465
2622.0,2.218,-10.215,-0.697,0.592,0.435,0.465
2626.0,2.218,-10.215,-0.697,0.592,0.435,0.465
2630.0,2.189,-9.591,-0.437,0.584,0.372,0.4
2634.0,2.189,-9.591,-0.437,0.584,0.372,0.4
2638.0,2.259,-9.016,-0.237,0.574,0.311,0.354
2642.0,2.259,-9.016,-0.237,0.574,0.311,0.354
2645.0,2.259,-9.016,-0.237,0.574,0.311,0.354
2649.0,2.325,-8.441,-0.126,0.555,0.258,0.329
2653.0,2.325,-8.441,-0.126,0.555,0.258,0.329
2657.0,2.431,-7.81,-0.025,0.555,0.258,0.329
2661.0,2.431,-7.81,-0.025,0.521,0.213,0.329
2664.0,2.431,-7.81,-0.025,0.521,0.213,0.329
2668.0,2.579,-7.287,0.06,0.472,0.175,0.347
2672.0,2.579,-7.287,0.06,0.472,0.175,0.347
2676.0,2.579,-7.287,0.06,0.472,0.175,0.347
2680.0,2.76,-6.847,0.172,0.405,0.144,0.377
2683.0,2.76,-6.847,0.172,0.405,0.144,0.377
2687.0,2.882,-6.486,0.271,0.323,0.118,0.406
2691.0,2.882,-6.486,0.271,0.323,0.118,0.406
2694.0,2.882,-6.486,0.271,0.323,0.118,0.406
2698.0,2.905,-6.132,0.328,0.228,0.1,0.427
2702.0,2.905,-6.132,0.328,0.228,0.1,0.427
2706.0,2.905,-6.132,0.367,0.228,0.1,0.427
2709.0,2.771,-5.776,0.367,0.124,0.096,0.44
2713.0,2.771,-5.776,0.367,0.124,0.096,0.44
2717.0,2.558,-5.408,0.404,0.019,0.105,0.439
2721.0,2.558,-5.408,0.404,0.019,0.105,0.439
2724.0,2.558,-5.408,0.404,0.019,0.105,0.439
2728.0,2.308,-5.099,0.456,-0.078,0.125,0.42
2732.0,2.308,-5.099,0.456,-0.078,0.125,0.42
2736.0,2.092,-4.815,0.592,-0.078,0.125,0.385
2739.0,2.092,-4.815,0.592,-0.157,0.158,0.385
2743.0,2.092,-4.815,0.592,-0.157,0.158,0.385
2747.0,1.88,-4.673,0.807,-0.214,0.203,0.337
2751.0,1.88,-4.673,0.807,-0.214,0.203,0.337
2755.0,1.88,-4.673,0.807,-0.214,0.203,0.337
2759.0,1.661,-4.691,1.068,-0.253,0.249,0.278
2762.0,1.661,-4.691,1.068,-0.253,0.249,0.278
2766.0,1.438,-4.774,1.268,-0.277,0.291,0.209
2770.0,1.438,-4.774,1.268,-0.277,0.291,0.209
2774.0,1.438,-4.774,1.268,-0.277,0.291,0.209
2778.0,1.3,-4.831,1.387,-0.284,0.325,0.143
2782.0,1.3,-4.831,1.387,-0.284,0.325,0.143
2785.0,1.33,-4.929,1.397,-0.284,0.353,0.091
2789.0,1.33,-4.929,1.397,-0.265,0.353,0.091
2793.0,1.33,-4.929,1.397,-0.265,0.353,0.091
2797.0,1.525,-5.113,1.363,-0.221,0.382,0.057
2801.0,1.525,-5.113,1.363,-0.221,0.382,0.057
2804.0,1.525,-5.388,1.33,-0.221,0.382,0.057
2808.0,1.772,-5.388,1.33,-0.162,0.417,0.038
2812.0,1.772,-5.388,1.33,-0.162,0.417,0.038
2816.0,2.06,-5.787,1.288,-0.101,0.455,0.037
2820.0,2.06,-5.787,1.288,-0.101,0.455,0.037
2824.0,2.06,-5.787,1.288,-0.101,0.455,0.037
2827.0,2.361,-6.352,1.291,-0.054,0.501,0.047
2831.0,2.361,-6.352,1.291,-0.054,0.501,0.047
2835.0,2.514,-7.021,1.333,-0.035,0.552,0.061
2839.0,2.514,-7.021,1.333,-0.035,0.552,0.061
2843.0,2.514,-7.021,1.333,-0.035,0.552,0.061
2846.0,2.563,-7.869,1.351,-0.06,0.604,0.073
2850.0,2.563,-7.869,1.351,-0.06,0.604,0.073
2854.0,2.598,-8.984,1.427,-0.06,0.604,0.073
2858.0,2.598,-8.984,1.427,-0.128,0.661,0.09
2862.0,2.598,-8.984,1.427,-0.128,0.661,0.09
2866.0,2.557,-10.28,1.511,-0.217,0.718,0.126
2869.0,2.557,-10.28,1.511,-0.217,0.718,0.126
2873.0,2.557,-10.28,1.591,-0.217,0.718,0.126
2877.0,2.374,-11.535,1.591,-0.311,0.755,0.179
2881.0,2.374,-11.535,1.591,-0.311,0.755,0.179
2885.0,2.108,-13.05,1.627,-0.399,0.758,0.242
2889.0,2.108,-13.05,1.627,-0.399,0.758,0.242
2893.0,2.108,-13.05,1.627,-0.399,0.758,0.242
2897.0,1.8,-14.624,1.476,-0.46,0.723,0.3
2901.0,1.8,-14.624,1.476,-0.46,0.723,0.3
2905.0,1.459,-16.119,1.094,-0.461,0.652,0.36
2909.0,1.459,-16.119,1.094,-0.461,0.652,0.36
2912.0,1.459,-16.119,1.094,-0.461,0.652,0.36
2916.0,1.274,-17.367,0.641,-0.379,0.562,0.418
2920.0,1.274,-17.367,0.641,-0.379,0.562,0.418
2924.0,1.321,-18.322,0.252,-0.211,0.462,0.473
2928.0,1.321,-18.322,0.252,-0.211,0.462,0.473
2932.0,1.321,-18.322,0.252,-0.211,0.462,0.473
2936.0,1.391,-19.015,-0.089,0.026,0.35,0.536
2940.0,1.391,-19.015,-0.089,0.026,0.35,0.536
2944.0,1.257,-19.376,-0.351,0.302,0.22,0.612
2948.0,1.257,-19.376,-0.351,0.302,0.22,0.612
2951.0,1.257,-19.376,-0.351,0.302,0.22,0.612
2955.0,0.955,-19.348,-0.458,0.595,0.077,0.687
2959.0,0.955,-19.348,-0.458,0.595,0.077,0.687
2963.0,0.61,-18.9,-0.443,0.877,-0.069,0.737
2967.0,0.61,-18.9,-0.443,0.877,-0.069,0.737
2971.0,0.61,-18.9,-0.443,0.877,-0.069,0.737
2975.0,0.332,-17.943,-0.358,1.125,-0.2,0.739
2979.0,0.332,-17.943,-0.358,1.125,-0.2,0.739
2983.0,0.165,-16.543,-0.214,1.324,-0.304,0.673
2987.0,0.165,-16.543,-0.214,1.324,-0.304,0.673
2991.0,0.165,-16.543,-0.214,1.324,-0.304,0.673
2995.0,0.126,-14.905,-0.071,1.477,-0.382,0.55
2999.0,0.126,-14.905,-0.071,1.477,-0.382,0.55
