deltaTime,Acc_X,Acc_Y,Acc_Z,Gyro_X,Gyro_Y,Gyro_Z
0.0,-7.916,-3.488,4.248,-0.212,-0.339,0.196
3.0,-7.916,-3.488,4.248,-0.212,-0.339,0.196
6.0,-7.916,-3.488,4.248,-0.212,-0.339,0.196
9.0,-7.63,-3.479,4.287,-0.073,-0.357,0.165
12.0,-7.63,-3.479,4.287,-0.073,-0.357,0.165
15.0,-7.63,-3.479,4.287,-0.073,-0.357,0.165
18.0,-7.63,-3.479,4.372,-0.073,-0.357,0.165
21.0,-7.406,-3.532,4.372,0.082,-0.361,0.153
24.0,-7.406,-3.532,4.372,0.082,-0.361,0.153
27.0,-7.406,-3.532,4.372,0.082,-0.361,0.153
30.0,-7.22,-3.39,4.474,0.244,-0.346,0.159
33.0,-7.22,-3.39,4.474,0.244,-0.346,0.159
37.0,-7.22,-3.39,4.474,0.244,-0.346,0.159
40.0,-7.195,-3.117,4.673,0.366,-0.322,0.172
44.0,-7.195,-3.117,4.673,0.366,-0.322,0.172
48.0,-7.195,-3.022,4.888,0.366,-0.322,0.172
52.0,-7.33,-3.022,4.888,0.425,-0.294,0.196
55.0,-7.33,-3.022,4.888,0.425,-0.294,0.196
59.0,-7.544,-3.133,5.038,0.458,-0.295,0.232
63.0,-7.544,-3.133,5.038,0.458,-0.295,0.232
67.0,-7.544,-3.133,5.038,0.458,-0.295,0.232
70.0,-7.801,-3.379,5.011,0.505,-0.318,0.271
74.0,-7.801,-3.379,5.011,0.505,-0.318,0.271
78.0,-7.749,-3.625,4.799,0.505,-0.318,0.271
82.0,-7.749,-3.625,4.799,0.591,-0.341,0.294
85.0,-7.749,-3.625,4.799,0.591,-0.341,0.294
89.0,-7.008,-3.246,4.474,0.686,-0.343,0.289
93.0,-7.008,-3.246,4.474,0.686,-0.343,0.289
96.0,-7.008,-3.246,4.474,0.686,-0.343,0.289
100.0,-7.006,-2.761,4.407,0.699,-0.303,0.253
104.0,-7.006,-2.761,4.407,0.699,-0.303,0.253
108.0,-7.469,-2.458,4.546,0.619,-0.248,0.216
112.0,-7.469,-2.458,4.546,0.619,-0.248,0.216
115.0,-7.469,-2.458,4.546,0.619,-0.248,0.216
119.0,-7.729,-2.39,4.662,0.497,-0.207,0.183
123.0,-7.729,-2.39,4.662,0.497,-0.207,0.183
127.0,-7.729,-2.37,4.8,0.497,-0.207,0.183
131.0,-7.948,-2.37,4.8,0.366,-0.198,0.134
135.0,-7.948,-2.37,4.8,0.366,-0.198,0.134
138.0,-8.174,-2.722,4.899,0.259,-0.208,0.084
142.0,-8.174,-2.722,4.899,0.259,-0.208,0.084
146.0,-8.174,-2.722,4.899,0.259,-0.208,0.084
150.0,-7.765,-2.956,4.874,0.229,-0.189,0.058
154.0,-7.765,-2.956,4.874,0.229,-0.189,0.058
158.0,-7.27,-2.744,4.759,0.234,-0.131,0.008
161.0,-7.27,-2.744,4.759,0.234,-0.131,0.008
165.0,-7.27,-2.744,4.759,0.234,-0.131,0.008
169.0,-7.305,-2.666,4.956,0.217,-0.077,-0.058
173.0,-7.305,-2.666,4.956,0.217,-0.077,-0.058
177.0,-7.004,-2.687,5.012,0.217,-0.015,-0.102
181.0,-7.004,-2.687,5.012,0.202,-0.015,-0.102
185.0,-7.004,-2.687,5.012,0.202,-0.015,-0.102
188.0,-6.736,-2.797,4.969,0.21,0.04,-0.126
192.0,-6.736,-2.797,4.969,0.21,0.04,-0.126
196.0,-6.561,-2.99,4.935,0.21,0.04,-0.126
200.0,-6.561,-2.99,4.935,0.248,0.087,-0.141
204.0,-6.561,-2.99,4.935,0.248,0.087,-0.141
208.0,-6.438,-3.335,4.813,0.327,0.13,-0.154
211.0,-6.438,-3.335,4.813,0.327,0.13,-0.154
215.0,-6.438,-3.335,4.813,0.327,0.13,-0.154
219.0,-6.302,-3.875,4.798,0.479,0.171,-0.158
223.0,-6.302,-3.875,4.798,0.479,0.171,-0.158
227.0,-6.126,-4.302,4.778,0.724,0.206,-0.154
231.0,-6.126,-4.302,4.778,0.724,0.206,-0.154
234.0,-6.126,-4.302,4.778,0.724,0.206,-0.154
238.0,-5.913,-4.562,4.659,1.052,0.231,-0.146
242.0,-5.913,-4.562,4.659,1.052,0.231,-0.146
246.0,-5.48,-4.315,4.332,1.052,0.231,-0.136
250.0,-5.48,-4.315,4.332,1.42,0.261,-0.136
253.0,-5.48,-4.315,4.332,1.42,0.261,-0.136
257.0,-4.965,-3.527,3.911,1.725,0.3,-0.149
261.0,-4.965,-3.527,3.911,1.725,0.3,-0.149
265.0,-4.965,-3.527,3.691,1.725,0.3,-0.149
269.0,-4.767,-2.61,3.691,1.882,0.351,-0.191
273.0,-4.767,-2.61,3.691,1.882,0.351,-0.191
276.0,-4.69,-1.912,3.663,1.894,0.411,-0.243
280.0,-4.69,-1.912,3.663,1.894,0.411,-0.243
284.0,-4.69,-1.912,3.663,1.894,0.411,-0.243
288.0,-4.869,-1.479,3.817,1.813,0.463,-0.296
292.0,-4.869,-1.479,3.817,1.813,0.463,-0.296
295.0,-5.203,-0.952,3.966,1.676,0.474,-0.341
299.0,-5.203,-0.952,3.966,1.676,0.474,-0.341
303.0,-5.203,-0.952,3.966,1.676,0.474,-0.341
307.0,-5.827,-0.535,4.077,1.482,0.449,-0.381
311.0,-5.827,-0.535,4.077,1.482,0.449,-0.381
315.0,-6.086,-0.266,4.082,1.482,0.449,-0.381
318.0,-6.086,-0.266,4.082,1.244,0.397,-0.409
322.0,-6.086,-0.266,4.082,1.244,0.397,-0.409
326.0,-6.139,-0.09,4.165,0.967,0.356,-0.432
330.0,-6.139,-0.09,4.165,0.967,0.356,-0.432
334.0,-6.139,-0.09,4.165,0.967,0.356,-0.432
337.0,-6.231,-0.025,4.234,0.656,0.335,-0.434
341.0,-6.231,-0.025,4.234,0.656,0.335,-0.434
345.0,-6.129,0.013,4.125,0.344,0.304,-0.426
349.0,-6.129,0.013,4.125,0.344,0.304,-0.426
353.0,-6.129,0.013,4.125,0.344,0.304,-0.426
356.0,-5.88,-0.266,4.041,0.037,0.283,-0.418
360.0,-5.88,-0.266,4.041,0.037,0.283,-0.418
364.0,-5.773,-0.741,4.047,0.037,0.283,-0.418
368.0,-5.773,-0.741,4.047,-0.212,0.273,-0.407
372.0,-5.773,-0.741,4.047,-0.212,0.273,-0.407
376.0,-5.794,-1.396,3.936,-0.37,0.27,-0.388
379.0,-5.794,-1.396,3.936,-0.37,0.27,-0.388
383.0,-5.794,-1.396,4.023,-0.37,0.27,-0.388
387.0,-6.203,-2.048,4.023,-0.42,0.289,-0.352
391.0,-6.203,-2.048,4.023,-0.42,0.289,-0.352
395.0,-6.97,-2.467,4.089,-0.366,0.309,-0.302
399.0,-6.97,-2.467,4.089,-0.366,0.309,-0.302
403.0,-6.97,-2.467,4.089,-0.366,0.309,-0.302
407.0,-7.666,-2.785,4.292,-0.247,0.332,-0.26
411.0,-7.666,-2.785,4.292,-0.247,0.332,-0.26
415.0,-7.816,-2.889,4.836,-0.075,0.314,-0.249
419.0,-7.816,-2.889,4.836,-0.075,0.314,-0.249
422.0,-7.816,-2.889,4.836,-0.075,0.314,-0.249
426.0,-7.489,-2.695,5.15,0.136,0.219,-0.271
430.0,-7.489,-2.695,5.15,0.136,0.219,-0.271
434.0,-7.077,-2.032,4.944,0.336,0.094,-0.332
438.0,-7.077,-2.032,4.944,0.336,0.094,-0.332
442.0,-7.077,-2.032,4.944,0.336,0.094,-0.332
445.0,-6.914,-1.268,4.664,0.44,0.013,-0.405
449.0,-6.914,-1.268,4.664,0.44,0.013,-0.405
453.0,-7.343,-0.916,4.479,0.44,0.013,-0.419
457.0,-7.343,-0.916,4.479,0.435,0.01,-0.419
461.0,-7.343,-0.916,4.479,0.435,0.01,-0.419
465.0,-8.382,-0.702,4.291,0.368,0.072,-0.35
468.0,-8.382,-0.702,4.291,0.368,0.072,-0.35
472.0,-8.382,-0.702,4.254,0.368,0.072,-0.35
476.0,-9.683,-0.791,4.254,0.256,0.173,-0.237
480.0,-9.683,-0.791,4.254,0.256,0.173,-0.237
484.0,-11.016,-0.962,4.54,0.128,0.267,-0.114
488.0,-11.016,-0.962,4.54,0.128,0.267,-0.114
491.0,-11.016,-0.962,4.54,0.128,0.267,-0.114
495.0,-12.076,-1.094,4.88,-0.001,0.305,0.004
499.0,-12.076,-1.094,4.88,-0.001,0.305,0.004
503.0,-12.715,-1.181,5.031,-0.128,0.29,0.119
507.0,-12.715,-1.181,5.031,-0.128,0.29,0.119
511.0,-12.715,-1.181,5.031,-0.128,0.29,0.119
515.0,-13.091,-1.216,4.979,-0.255,0.26,0.229
519.0,-13.091,-1.216,4.979,-0.255,0.26,0.229
523.0,-13.251,-1.211,4.777,-0.388,0.245,0.341
527.0,-13.251,-1.211,4.777,-0.388,0.245,0.341
531.0,-13.251,-1.211,4.777,-0.388,0.245,0.341
534.0,-13.164,-1.142,4.498,-0.534,0.262,0.453
538.0,-13.164,-1.142,4.498,-0.534,0.262,0.453
542.0,-12.852,-1.038,4.408,-0.691,0.308,0.553
546.0,-12.852,-1.038,4.408,-0.691,0.308,0.553
550.0,-12.852,-1.038,4.408,-0.691,0.308,0.553
554.0,-12.549,-0.88,4.446,-0.845,0.362,0.633
558.0,-12.549,-0.88,4.446,-0.845,0.362,0.633
562.0,-12.473,-0.697,4.429,-0.845,0.413,0.69
566.0,-12.473,-0.697,4.429,-0.983,0.413,0.69
570.0,-12.473,-0.697,4.429,-0.983,0.413,0.69
573.0,-12.758,-0.604,4.19,-1.113,0.461,0.739
577.0,-12.758,-0.604,4.19,-1.113,0.461,0.739
581.0,-13.117,-0.577,3.845,-1.113,0.461,0.793
585.0,-13.117,-0.577,3.845,-1.244,0.514,0.793
589.0,-13.117,-0.577,3.845,-1.244,0.514,0.793
593.0,-13.387,-0.552,3.512,-1.391,0.573,0.865
597.0,-13.387,-0.552,3.512,-1.391,0.573,0.865
601.0,-13.327,-0.605,3.159,-1.391,0.573,0.865
605.0,-13.327,-0.605,3.159,-1.561,0.631,0.949
609.0,-13.327,-0.605,3.159,-1.561,0.631,0.949
613.0,-13.001,-0.659,2.952,-1.747,0.688,1.034
616.0,-13.001,-0.659,2.952,-1.747,0.688,1.034
620.0,-13.001,-0.659,2.81,-1.747,0.688,1.034
624.0,-12.483,-0.683,2.81,-1.938,0.727,1.105
628.0,-12.483,-0.683,2.81,-1.938,0.727,1.105
632.0,-11.978,-0.696,2.648,-2.127,0.748,1.159
636.0,-11.978,-0.696,2.648,-2.127,0.748,1.159
640.0,-11.978,-0.696,2.648,-2.127,0.748,1.159
644.0,-11.54,-0.723,2.42,-2.312,0.754,1.193
648.0,-11.54,-0.723,2.42,-2.312,0.754,1.193
652.0,-11.231,-0.733,2.14,-2.487,0.74,1.21
656.0,-11.231,-0.733,2.14,-2.487,0.74,1.21
659.0,-11.231,-0.733,2.14,-2.487,0.74,1.21
663.0,-11.126,-0.74,1.668,-2.655,0.712,1.208
667.0,-11.126,-0.74,1.668,-2.655,0.712,1.208
671.0,-11.255,-0.806,1.15,-2.814,0.692,1.189
675.0,-11.255,-0.806,1.15,-2.814,0.692,1.189
679.0,-11.255,-0.806,1.15,-2.814,0.692,1.189
683.0,-11.28,-0.949,0.753,-2.957,0.681,1.16
687.0,-11.28,-0.949,0.753,-2.957,0.681,1.16
691.0,-11.069,-1.155,0.528,-3.071,0.663,1.13
695.0,-11.069,-1.155,0.528,-3.071,0.663,1.13
698.0,-11.069,-1.155,0.528,-3.071,0.663,1.13
702.0,-10.925,-1.377,0.281,-3.142,0.639,1.107
706.0,-10.925,-1.377,0.281,-3.142,0.639,1.107
710.0,-11.356,-1.575,-0.119,-3.171,0.629,1.096
714.0,-11.356,-1.575,-0.119,-3.171,0.629,1.096
718.0,-11.356,-1.575,-0.119,-3.171,0.629,1.096
722.0,-12.339,-1.79,-0.552,-3.166,0.652,1.106
726.0,-12.339,-1.79,-0.552,-3.166,0.652,1.106
730.0,-13.603,-1.991,-0.83,-3.139,0.693,1.144
734.0,-13.603,-1.991,-0.83,-3.139,0.693,1.144
738.0,-13.603,-1.991,-0.83,-3.139,0.693,1.144
742.0,-14.772,-2.16,-0.935,-3.101,0.727,1.211
746.0,-14.772,-2.16,-0.935,-3.101,0.727,1.211
750.0,-15.418,-2.31,-0.825,-3.054,0.737,1.306
754.0,-15.418,-2.31,-0.825,-3.054,0.737,1.306
758.0,-15.418,-2.31,-0.825,-3.054,0.737,1.306
762.0,-15.395,-2.424,-0.596,-2.999,0.713,1.411
766.0,-15.395,-2.424,-0.596,-2.999,0.713,1.411
770.0,-14.676,-2.489,-0.444,-2.938,0.671,1.502
774.0,-14.676,-2.489,-0.444,-2.938,0.671,1.502
778.0,-14.676,-2.489,-0.127,-2.938,0.671,1.502
782.0,-13.859,-2.342,-0.127,-2.878,0.623,1.56
786.0,-13.859,-2.342,-0.127,-2.878,0.623,1.56
790.0,-13.166,-2.144,-0.054,-2.806,0.574,1.588
794.0,-13.166,-2.144,-0.054,-2.806,0.574,1.588
798.0,-13.166,-1.97,-0.027,-2.806,0.574,1.588
802.0,-12.312,-1.97,-0.027,-2.716,0.531,1.607
806.0,-12.312,-1.97,-0.027,-2.716,0.531,1.607
810.0,-11.429,-1.632,-0.063,-2.617,0.501,1.623
814.0,-11.429,-1.632,-0.063,-2.617,0.501,1.623
818.0,-10.618,-1.352,-0.12,-2.617,0.501,1.623
822.0,-10.618,-1.352,-0.12,-2.518,0.504,1.641
826.0,-10.618,-1.352,-0.12,-2.518,0.504,1.641
830.0,-9.93,-1.129,-0.108,-2.421,0.54,1.663
834.0,-9.93,-1.129,-0.108,-2.421,0.54,1.663
838.0,-9.444,-1.021,-0.121,-2.421,0.54,1.663
842.0,-9.444,-1.021,-0.121,-2.322,0.602,1.687
846.0,-9.444,-1.021,-0.121,-2.322,0.602,1.687
850.0,-9.094,-0.967,-0.175,-2.22,0.68,1.71
853.0,-9.094,-0.967,-0.175,-2.22,0.68,1.71
857.0,-9.094,-0.915,-0.147,-2.22,0.68,1.71
861.0,-8.936,-0.915,-0.147,-2.108,0.765,1.729
865.0,-8.936,-0.915,-0.147,-2.108,0.765,1.729
869.0,-8.899,-0.833,-0.122,-1.986,0.842,1.743
873.0,-8.899,-0.833,-0.122,-1.986,0.842,1.743
877.0,-8.899,-0.833,-0.12,-1.986,0.842,1.743
881.0,-8.804,-0.722,-0.12,-1.857,0.905,1.758
885.0,-8.804,-0.722,-0.12,-1.857,0.905,1.758
889.0,-8.463,-0.604,-0.069,-1.723,0.959,1.79
892.0,-8.463,-0.604,-0.069,-1.723,0.959,1.79
896.0,-8.463,-0.604,-0.069,-1.723,0.959,1.79
900.0,-7.992,-0.517,0.054,-1.588,1.01,1.85
904.0,-7.992,-0.517,0.054,-1.588,1.01,1.85
908.0,-7.54,-0.476,0.177,-1.453,1.069,1.929
912.0,-7.54,-0.476,0.177,-1.453,1.069,1.929
916.0,-7.54,-0.476,0.177,-1.453,1.069,1.929
919.0,-7.162,-0.529,0.319,-1.32,1.138,2.021
923.0,-7.162,-0.529,0.319,-1.32,1.138,2.021
927.0,-6.851,-0.675,0.483,-1.32,1.203,2.114
931.0,-6.851,-0.675,0.483,-1.189,1.203,2.114
935.0,-6.851,-0.675,0.483,-1.189,1.203,2.114
938.0,-6.68,-0.854,0.709,-1.064,1.255,2.19
942.0,-6.68,-0.854,0.709,-1.064,1.255,2.19
946.0,-6.68,-1.046,0.992,-1.064,1.255,2.19
950.0,-6.622,-1.046,0.992,-0.944,1.283,2.245
954.0,-6.622,-1.046,0.992,-0.944,1.283,2.245
958.0,-6.596,-1.178,1.19,-0.83,1.274,2.276
961.0,-6.596,-1.178,1.19,-0.83,1.274,2.276
965.0,-6.596,-1.178,1.19,-0.83,1.274,2.276
969.0,-6.528,-1.237,1.282,-0.731,1.232,2.286
973.0,-6.528,-1.237,1.282,-0.731,1.232,2.286
977.0,-6.416,-1.274,1.286,-0.649,1.168,2.279
981.0,-6.416,-1.274,1.286,-0.649,1.168,2.279
984.0,-6.416,-1.274,1.286,-0.649,1.168,2.279
988.0,-6.262,-1.262,1.248,-0.584,1.095,2.256
992.0,-6.262,-1.262,1.248,-0.584,1.095,2.256
996.0,-6.07,-1.229,1.274,-0.584,1.095,2.256
1000.0,-6.07,-1.229,1.274,-0.53,1.019,2.22
1004.0,-6.07,-1.229,1.274,-0.53,1.019,2.22
1007.0,-5.839,-1.143,1.341,-0.483,0.935,2.174
1011.0,-5.839,-1.143,1.341,-0.483,0.935,2.174
1015.0,-5.839,-1.051,1.281,-0.483,0.935,2.174
1019.0,-5.542,-1.051,1.281,-0.444,0.848,2.123
1023.0,-5.542,-1.051,1.281,-0.444,0.848,2.123
1027.0,-5.246,-0.99,1.201,-0.414,0.778,2.065
1031.0,-5.246,-0.99,1.201,-0.414,0.778,2.065
1035.0,-5.246,-0.99,1.159,-0.414,0.778,2.065
1039.0,-4.954,-0.967,1.159,-0.399,0.735,1.999
1043.0,-4.954,-0.967,1.159,-0.399,0.735,1.999
1046.0,-4.762,-0.91,1.265,-0.405,0.722,1.918
1050.0,-4.762,-0.91,1.265,-0.405,0.722,1.918
1054.0,-4.762,-0.91,1.265,-0.405,0.722,1.918
1058.0,-4.698,-0.864,1.492,-0.428,0.734,1.819
1062.0,-4.698,-0.864,1.492,-0.428,0.734,1.819
1066.0,-4.714,-0.762,1.848,-0.466,0.759,1.697
1070.0,-4.714,-0.762,1.848,-0.466,0.759,1.697
1074.0,-4.714,-0.762,1.848,-0.466,0.759,1.697
1078.0,-5.114,-0.473,2.519,-0.527,0.782,1.541
1082.0,-5.114,-0.473,2.519,-0.527,0.782,1.541
1086.0,-6.051,0.112,3.435,-0.627,0.757,1.367
1089.0,-6.051,0.112,3.435,-0.627,0.757,1.367
1093.0,-6.051,0.112,3.435,-0.627,0.757,1.367
1097.0,-7.305,0.932,4.04,-0.796,0.639,1.198
1101.0,-7.305,0.932,4.04,-0.796,0.639,1.198
1105.0,-8.709,1.857,4.048,-0.796,0.477,1.048
1108.0,-8.709,1.857,4.048,-1.048,0.477,1.048
1112.0,-8.709,1.857,4.048,-1.048,0.477,1.048
1116.0,-9.903,2.191,3.896,-1.379,0.344,0.922
1120.0,-9.903,2.191,3.896,-1.379,0.344,0.922
1124.0,-9.903,2.191,3.565,-1.379,0.344,0.922
1128.0,-10.137,1.707,3.565,-1.759,0.286,0.778
1131.0,-10.137,1.707,3.565,-1.759,0.286,0.778
1135.0,-9.799,0.964,3.317,-2.142,0.314,0.567
1139.0,-9.799,0.964,3.317,-2.142,0.314,0.567
1143.0,-9.799,0.964,3.317,-2.142,0.314,0.567
1147.0,-9.379,0.183,3.17,-2.49,0.386,0.281
1151.0,-9.379,0.183,3.17,-2.49,0.386,0.281
1154.0,-9.239,-0.449,3.09,-2.786,0.458,-0.057
1158.0,-9.239,-0.449,3.09,-2.786,0.458,-0.057
1162.0,-9.239,-0.449,3.09,-2.786,0.458,-0.057
1166.0,-9.35,-0.96,2.906,-3.017,0.513,-0.416
1170.0,-9.35,-0.96,2.906,-3.017,0.513,-0.416
1174.0,-9.673,-1.305,2.825,-3.16,0.574,-0.777
1178.0,-9.673,-1.305,2.825,-3.16,0.574,-0.777
1182.0,-9.673,-1.305,2.825,-3.16,0.574,-0.777
1186.0,-10.219,-1.588,2.799,-3.197,0.658,-1.112
1190.0,-10.219,-1.588,2.799,-3.197,0.658,-1.112
1195.0,-10.881,-1.778,2.982,-3.12,0.789,-1.389
1199.0,-10.881,-1.778,2.982,-3.12,0.789,-1.389
1203.0,-10.881,-2.393,3.383,-3.12,0.789,-1.389
1207.0,-12.009,-2.393,3.383,-2.926,0.973,-1.587
1211.0,-12.009,-2.393,3.383,-2.926,0.973,-1.587
1215.0,-12.607,-2.974,3.942,-2.567,1.028,-1.729
1219.0,-12.607,-2.974,3.942,-2.567,1.028,-1.729
1223.0,-13.129,-3.596,4.648,-2.567,1.073,-1.819
1227.0,-13.129,-3.596,4.648,-2.11,1.073,-1.819
1231.0,-13.129,-3.596,4.648,-2.11,1.073,-1.819
1235.0,-13.14,-3.982,5.322,-1.57,1.066,-1.902
1239.0,-13.14,-3.982,5.322,-1.57,1.066,-1.902
1244.0,-12.842,-4.041,5.681,-0.993,0.991,-1.996
1248.0,-12.842,-4.041,5.681,-0.993,0.991,-1.996
1252.0,-12.842,-4.041,5.681,-0.993,0.991,-1.996
1256.0,-12.755,-3.706,5.931,-0.431,0.896,-2.103
1260.0,-12.755,-3.706,5.931,-0.431,0.896,-2.103
1264.0,-12.748,-3.197,6.25,0.068,0.784,-2.195
1268.0,-12.748,-3.197,6.25,0.068,0.784,-2.195
1272.0,-12.748,-2.582,6.276,0.068,0.784,-2.195
1276.0,-12.734,-2.582,6.276,0.47,0.647,-2.259
1280.0,-12.734,-2.582,6.276,0.47,0.647,-2.259
1284.0,-12.933,-2.002,6.267,0.769,0.511,-2.302
1288.0,-12.933,-2.002,6.267,0.769,0.511,-2.302
1292.0,-13.165,-1.522,6.123,0.769,0.511,-2.302
1296.0,-13.165,-1.522,6.123,0.975,0.375,-2.325
1300.0,-13.165,-1.522,6.123,0.975,0.375,-2.325
1304.0,-13.196,-1.134,5.658,1.109,0.241,-2.331
1308.0,-13.196,-1.134,5.658,1.109,0.241,-2.331
1312.0,-13.173,-0.777,5.054,1.109,0.241,-2.326
1316.0,-13.173,-0.777,5.054,1.183,0.137,-2.326
1320.0,-13.173,-0.777,5.054,1.183,0.137,-2.326
1324.0,-13.089,-0.519,4.608,1.208,0.077,-2.309
1328.0,-13.089,-0.519,4.608,1.208,0.077,-2.309
1332.0,-13.058,-0.434,4.357,1.205,0.046,-2.279
1336.0,-13.058,-0.434,4.357,1.205,0.046,-2.279
1340.0,-13.058,-0.434,4.357,1.205,0.046,-2.279
1344.0,-13.196,-0.472,4.379,1.197,0.021,-2.243
1348.0,-13.196,-0.472,4.379,1.197,0.021,-2.243
1352.0,-13.336,-0.6,4.292,1.207,-0.036,-2.213
1356.0,-13.336,-0.6,4.292,1.207,-0.036,-2.213
1360.0,-13.336,-0.6,4.292,1.207,-0.036,-2.213
1364.0,-13.558,-0.736,3.827,1.238,-0.128,-2.205
1368.0,-13.558,-0.736,3.827,1.238,-0.128,-2.205
1372.0,-13.892,-0.772,3.266,1.287,-0.219,-2.229
1376.0,-13.892,-0.772,3.266,1.287,-0.219,-2.229
1380.0,-13.892,-0.772,2.816,1.287,-0.219,-2.229
1384.0,-14.213,-0.75,2.816,1.346,-0.302,-2.266
1388.0,-14.213,-0.75,2.816,1.346,-0.302,-2.266
1393.0,-14.52,-0.686,2.506,1.42,-0.39,-2.29
1397.0,-14.52,-0.686,2.506,1.42,-0.39,-2.29
1401.0,-14.788,-0.614,2.252,1.42,-0.497,-2.298
1405.0,-14.788,-0.614,2.252,1.515,-0.497,-2.298
1409.0,-14.788,-0.614,2.252,1.515,-0.497,-2.298
1413.0,-14.987,-0.55,2.006,1.626,-0.627,-2.287
1417.0,-14.987,-0.55,2.006,1.626,-0.627,-2.287
1421.0,-15.002,-0.517,1.759,1.741,-0.784,-2.262
1425.0,-15.002,-0.517,1.759,1.741,-0.784,-2.262
1429.0,-15.002,-0.517,1.759,1.741,-0.784,-2.262
1433.0,-14.809,-0.482,1.406,1.851,-0.96,-2.222
1437.0,-14.809,-0.482,1.406,1.851,-0.96,-2.222
1442.0,-14.328,-0.494,1.011,1.943,-1.132,-2.169
1446.0,-14.328,-0.494,1.011,1.943,-1.132,-2.169
1450.0,-13.664,-0.515,0.565,1.943,-1.132,-2.169
1454.0,-13.664,-0.515,0.565,2.001,-1.276,-2.106
1458.0,-13.664,-0.515,0.565,2.001,-1.276,-2.106
1462.0,-12.952,-0.528,0.218,2.015,-1.38,-2.036
1466.0,-12.952,-0.528,0.218,2.015,-1.38,-2.036
1470.0,-12.299,-0.539,-0.041,1.983,-1.445,-1.962
1474.0,-12.299,-0.539,-0.041,1.983,-1.445,-1.962
1478.0,-12.299,-0.539,-0.041,1.983,-1.445,-1.962
1483.0,-11.718,-0.569,-0.193,1.904,-1.475,-1.886
1487.0,-11.718,-0.569,-0.193,1.904,-1.475,-1.886
1491.0,-11.253,-0.595,-0.245,1.787,-1.479,-1.807
1495.0,-11.253,-0.595,-0.245,1.787,-1.479,-1.807
1499.0,-10.905,-0.644,-0.234,1.787,-1.479,-1.725
1503.0,-10.905,-0.644,-0.234,1.639,-1.464,-1.725
1508.0,-10.905,-0.644,-0.234,1.639,-1.464,-1.725
1512.0,-10.759,-0.646,-0.181,1.465,-1.433,-1.637
1516.0,-10.759,-0.646,-0.181,1.465,-1.433,-1.637
1520.0,-10.656,-0.667,-0.083,1.269,-1.392,-1.54
1524.0,-10.656,-0.667,-0.083,1.269,-1.392,-1.54
1528.0,-10.656,-0.667,0.019,1.269,-1.392,-1.54
1532.0,-10.61,-0.703,0.019,1.052,-1.346,-1.435
1537.0,-10.61,-0.703,0.019,1.052,-1.346,-1.435
1541.0,-10.617,-1.005,0.208,0.834,-1.298,-1.321
1545.0,-10.617,-1.005,0.208,0.834,-1.298,-1.321
1549.0,-10.542,-1.175,0.282,0.834,-1.251,-1.2
1553.0,-10.542,-1.175,0.282,0.653,-1.251,-1.2
1557.0,-10.542,-1.175,0.282,0.653,-1.251,-1.2
1561.0,-10.488,-1.305,0.298,0.484,-1.219,-1.097
1565.0,-10.488,-1.305,0.298,0.484,-1.219,-1.097
1569.0,-10.452,-1.473,0.271,0.33,-1.19,-1.004
1573.0,-10.452,-1.473,0.271,0.33,-1.19,-1.004
1577.0,-10.452,-1.473,0.271,0.33,-1.19,-1.004
1581.0,-10.371,-1.635,0.185,0.203,-1.153,-0.91
1586.0,-10.371,-1.635,0.185,0.203,-1.153,-0.91
1590.0,-10.22,-1.789,0.086,0.113,-1.108,-0.807
1594.0,-10.22,-1.789,0.086,0.113,-1.108,-0.807
1598.0,-9.974,-1.9,-0.02,0.113,-1.108,-0.807
1602.0,-9.974,-1.9,-0.02,0.056,-1.055,-0.71
1606.0,-9.974,-1.9,-0.02,0.056,-1.055,-0.71
1610.0,-9.634,-1.974,-0.081,0.027,-0.997,-0.628
1614.0,-9.634,-1.974,-0.081,0.027,-0.997,-0.628
1618.0,-9.221,-2.013,-0.145,0.021,-0.94,-0.57
1622.0,-9.221,-2.013,-0.145,0.021,-0.94,-0.57
1626.0,-9.221,-2.013,-0.145,0.021,-0.94,-0.57
1630.0,-8.724,-2.007,-0.153,0.033,-0.882,-0.533
1634.0,-8.724,-2.007,-0.153,0.033,-0.882,-0.533
1639.0,-8.156,-1.981,-0.132,0.061,-0.824,-0.517
1643.0,-8.156,-1.981,-0.132,0.061,-0.824,-0.517
1647.0,-8.156,-1.981,-0.098,0.061,-0.824,-0.517
1651.0,-7.505,-1.927,-0.098,0.103,-0.768,-0.523
1655.0,-7.505,-1.927,-0.098,0.103,-0.768,-0.523
1659.0,-6.828,-1.844,-0.051,0.153,-0.713,-0.55
1663.0,-6.828,-1.844,-0.051,0.153,-0.713,-0.55
1667.0,-6.171,-1.767,-0.033,0.153,-0.713,-0.596
1671.0,-6.171,-1.767,-0.033,0.209,-0.657,-0.596
1675.0,-6.171,-1.767,-0.033,0.209,-0.657,-0.596
1679.0,-5.565,-1.689,0.011,0.27,-0.597,-0.652
1683.0,-5.565,-1.689,0.011,0.27,-0.597,-0.652
1687.0,-5.048,-1.601,0.056,0.334,-0.532,-0.71
1691.0,-5.048,-1.601,0.056,0.334,-0.532,-0.71
1695.0,-5.048,-1.601,0.056,0.334,-0.532,-0.71
1699.0,-4.637,-1.533,0.123,0.401,-0.462,-0.765
1703.0,-4.637,-1.533,0.123,0.401,-0.462,-0.765
1707.0,-4.331,-1.486,0.197,0.469,-0.389,-0.81
1711.0,-4.331,-1.486,0.197,0.469,-0.389,-0.81
1715.0,-4.331,-1.486,0.197,0.469,-0.389,-0.81
1719.0,-4.202,-1.462,0.229,0.537,-0.316,-0.84
1723.0,-4.202,-1.462,0.229,0.537,-0.316,-0.84
1727.0,-4.245,-1.469,0.248,0.603,-0.239,-0.849
1731.0,-4.245,-1.469,0.248,0.603,-0.239,-0.849
1735.0,-4.245,-1.469,0.248,0.603,-0.239,-0.849
1739.0,-4.513,-1.509,0.271,0.668,-0.16,-0.833
1743.0,-4.513,-1.509,0.271,0.668,-0.16,-0.833
1747.0,-5.008,-1.539,0.301,0.729,-0.079,-0.788
1751.0,-5.008,-1.539,0.301,0.729,-0.079,-0.788
1755.0,-5.008,-1.539,0.301,0.729,-0.079,-0.788
1759.0,-5.574,-1.63,0.322,0.783,-0.004,-0.708
1763.0,-5.574,-1.63,0.322,0.783,-0.004,-0.708
1767.0,-6.199,-1.718,0.373,0.826,0.067,-0.595
1771.0,-6.199,-1.718,0.373,0.826,0.067,-0.595
1775.0,-6.199,-1.718,0.442,0.826,0.067,-0.595
1779.0,-6.846,-1.799,0.442,0.853,0.134,-0.446
1783.0,-6.846,-1.799,0.442,0.853,0.134,-0.446
1787.0,-7.493,-1.878,0.498,0.863,0.196,-0.263
1791.0,-7.493,-1.878,0.498,0.863,0.196,-0.263
1795.0,-7.493,-1.878,0.498,0.863,0.196,-0.263
1798.0,-8.168,-1.996,0.562,0.855,0.256,-0.048
1802.0,-8.168,-1.996,0.562,0.855,0.256,-0.048
1806.0,-8.928,-2.141,0.59,0.83,0.319,0.198
1810.0,-8.928,-2.141,0.59,0.83,0.319,0.198
1814.0,-8.928,-2.141,0.59,0.83,0.319,0.198
1818.0,-9.775,-2.306,0.648,0.79,0.389,0.469
1822.0,-9.775,-2.306,0.648,0.79,0.389,0.469
1825.0,-10.63,-2.492,0.802,0.74,0.459,0.756
1829.0,-10.63,-2.492,0.802,0.74,0.459,0.756
1833.0,-10.63,-2.492,0.802,0.74,0.459,0.756
1837.0,-11.307,-2.658,1.038,0.685,0.518,1.045
1841.0,-11.307,-2.658,1.038,0.685,0.518,1.045
1845.0,-11.728,-2.816,1.36,0.685,0.556,1.311
1849.0,-11.728,-2.816,1.36,0.63,0.556,1.311
1853.0,-11.728,-2.816,1.36,0.63,0.556,1.311
1857.0,-11.856,-2.881,1.741,0.585,0.571,1.522
1861.0,-11.856,-2.881,1.741,0.585,0.571,1.522
1864.0,-11.739,-2.831,2.038,0.585,0.571,1.659
1868.0,-11.739,-2.831,2.038,0.567,0.571,1.659
1872.0,-11.739,-2.831,2.038,0.567,0.571,1.659
1876.0,-11.524,-2.71,2.288,0.583,0.554,1.729
1880.0,-11.524,-2.71,2.288,0.583,0.554,1.729
1884.0,-11.427,-2.515,2.347,0.583,0.554,1.729
1888.0,-11.427,-2.515,2.347,0.63,0.515,1.745
1892.0,-11.427,-2.515,2.347,0.63,0.515,1.745
1896.0,-11.58,-2.243,2.284,0.696,0.475,1.723
1900.0,-11.58,-2.243,2.284,0.696,0.475,1.723
1903.0,-11.58,-2.243,2.159,0.696,0.475,1.723
1907.0,-11.885,-1.939,2.159,0.763,0.45,1.678
1911.0,-11.885,-1.939,2.159,0.763,0.45,1.678
1915.0,-12.159,-1.66,1.924,0.827,0.438,1.622
1919.0,-12.159,-1.66,1.924,0.827,0.438,1.622
1923.0,-12.159,-1.66,1.924,0.827,0.438,1.622
1927.0,-12.318,-1.396,1.641,0.881,0.436,1.558
1931.0,-12.318,-1.396,1.641,0.881,0.436,1.558
1935.0,-12.541,-1.054,1.379,0.918,0.441,1.473
1939.0,-12.541,-1.054,1.379,0.918,0.441,1.473
1943.0,-12.541,-1.054,1.379,0.918,0.441,1.473
1946.0,-12.908,-0.692,1.074,0.936,0.455,1.364
1950.0,-12.908,-0.692,1.074,0.936,0.455,1.364
1954.0,-13.417,-0.4,0.788,0.927,0.49,1.234
1958.0,-13.417,-0.4,0.788,0.927,0.49,1.234
1962.0,-13.417,-0.4,0.788,0.927,0.49,1.234
1966.0,-13.943,-0.184,0.639,0.889,0.541,1.097
1970.0,-13.943,-0.184,0.639,0.889,0.541,1.097
1974.0,-14.535,-0.077,0.646,0.821,0.595,0.972
1978.0,-14.535,-0.077,0.646,0.821,0.595,0.972
1982.0,-14.535,-0.077,0.646,0.821,0.595,0.972
1986.0,-15.332,-0.053,0.75,0.73,0.648,0.879
1989.0,-15.332,-0.053,0.75,0.73,0.648,0.879
1993.0,-16.19,-0.176,0.979,0.623,0.704,0.824
1997.0,-16.19,-0.176,0.979,0.623,0.704,0.824
2001.0,-16.19,-0.176,0.979,0.623,0.704,0.824
2005.0,-16.77,-0.387,1.346,0.505,0.736,0.811
2009.0,-16.77,-0.387,1.346,0.505,0.736,0.811
2013.0,-16.778,-0.568,1.714,0.38,0.722,0.837
2017.0,-16.778,-0.568,1.714,0.38,0.722,0.837
2021.0,-16.778,-0.568,1.714,0.38,0.722,0.837
2025.0,-15.931,-0.714,1.948,0.247,0.669,0.892
2028.0,-15.931,-0.714,1.948,0.247,0.669,0.892
2032.0,-14.313,-0.832,2.183,0.247,0.669,0.949
2036.0,-14.313,-0.832,2.183,0.109,0.601,0.949
2040.0,-14.313,-0.832,2.183,0.109,0.601,0.949
2044.0,-12.887,-0.818,2.468,-0.025,0.542,0.985
2048.0,-12.887,-0.818,2.468,-0.025,0.542,0.985
2052.0,-12.007,-0.692,2.559,-0.025,0.542,0.994
2056.0,-12.007,-0.692,2.559,-0.152,0.499,0.994
2060.0,-12.007,-0.692,2.559,-0.152,0.499,0.994
2064.0,-11.559,-0.493,2.477,-0.276,0.472,0.996
2068.0,-11.559,-0.493,2.477,-0.276,0.472,0.996
2072.0,-11.503,-0.242,2.378,-0.411,0.459,1.021
2076.0,-11.503,-0.242,2.378,-0.411,0.459,1.021
2080.0,-11.503,-0.242,2.378,-0.411,0.459,1.021
2084.0,-11.675,0.01,2.222,-0.567,0.455,1.096
2088.0,-11.675,0.01,2.222,-0.567,0.455,1.096
2092.0,-11.696,0.13,2.148,-0.751,0.45,1.232
2096.0,-11.696,0.13,2.148,-0.751,0.45,1.232
2100.0,-11.696,0.13,2.148,-0.751,0.45,1.232
2104.0,-11.498,0.108,2.082,-0.954,0.434,1.419
2107.0,-11.498,0.108,2.082,-0.954,0.434,1.419
2111.0,-11.046,-0.062,1.963,-0.954,0.41,1.632
2115.0,-11.046,-0.062,1.963,-1.167,0.41,1.632
2119.0,-11.046,-0.062,1.963,-1.167,0.41,1.632
2123.0,-10.427,-0.307,1.861,-1.38,0.382,1.833
2127.0,-10.427,-0.307,1.861,-1.38,0.382,1.833
2131.0,-9.748,-0.561,1.768,-1.579,0.355,1.986
2135.0,-9.748,-0.561,1.768,-1.579,0.355,1.986
2139.0,-9.748,-0.561,1.768,-1.579,0.355,1.986
2143.0,-9.155,-0.772,1.716,-1.757,0.331,2.079
2147.0,-9.155,-0.772,1.716,-1.757,0.331,2.079
2151.0,-8.745,-0.902,1.668,-1.757,0.318,2.117
2155.0,-8.745,-0.902,1.668,-1.905,0.318,2.117
2159.0,-8.745,-0.902,1.668,-1.905,0.318,2.117
2163.0,-8.67,-0.97,1.659,-2.027,0.322,2.122
2167.0,-8.67,-0.97,1.659,-2.027,0.322,2.122
2170.0,-8.876,-0.99,1.721,-2.027,0.322,2.12
2174.0,-8.876,-0.99,1.721,-2.126,0.34,2.12
2178.0,-8.876,-0.99,1.721,-2.126,0.34,2.12
2182.0,-9.315,-0.998,1.831,-2.207,0.361,2.128
2186.0,-9.315,-0.998,1.831,-2.207,0.361,2.128
2190.0,-9.771,-1.021,1.926,-2.207,0.361,2.128
2194.0,-9.771,-1.021,1.926,-2.272,0.371,2.148
2198.0,-9.771,-1.021,1.926,-2.272,0.371,2.148
2202.0,-9.97,-1.168,2.053,-2.325,0.364,2.162
2206.0,-9.97,-1.168,2.053,-2.325,0.364,2.162
2209.0,-9.97,-1.168,2.222,-2.325,0.364,2.162
2213.0,-9.932,-1.272,2.222,-2.363,0.337,2.145
2217.0,-9.932,-1.272,2.222,-2.363,0.337,2.145
2221.0,-9.87,-1.361,2.326,-2.387,0.293,2.079
2225.0,-9.87,-1.361,2.326,-2.387,0.293,2.079
2229.0,-9.87,-1.361,2.326,-2.387,0.293,2.079
2233.0,-9.73,-1.405,2.323,-2.393,0.238,1.974
2237.0,-9.73,-1.405,2.323,-2.393,0.238,1.974
2241.0,-9.464,-1.438,2.231,-2.384,0.18,1.853
2245.0,-9.464,-1.438,2.231,-2.384,0.18,1.853
2249.0,-9.464,-1.438,2.231,-2.384,0.18,1.853
2252.0,-9.066,-1.482,2.064,-2.366,0.13,1.735
2256.0,-9.066,-1.482,2.064,-2.366,0.13,1.735
2260.0,-8.643,-1.549,1.869,-2.343,0.104,1.635
2264.0,-8.643,-1.549,1.869,-2.343,0.104,1.635
2268.0,-8.643,-1.549,1.869,-2.343,0.104,1.635
2272.0,-8.229,-1.689,1.682,-2.316,0.107,1.56
2276.0,-8.229,-1.689,1.682,-2.316,0.107,1.56
2280.0,-7.777,-1.88,1.557,-2.282,0.132,1.509
2284.0,-7.777,-1.88,1.557,-2.282,0.132,1.509
2288.0,-7.777,-1.88,1.557,-2.282,0.132,1.509
2292.0,-7.417,-2.088,1.527,-2.238,0.175,1.477
2295.0,-7.417,-2.088,1.527,-2.238,0.175,1.477
2299.0,-7.141,-2.32,1.605,-2.179,0.226,1.455
2303.0,-7.141,-2.32,1.605,-2.179,0.226,1.455
2307.0,-7.141,-2.32,1.605,-2.179,0.226,1.455
2311.0,-6.934,-2.558,1.723,-2.107,0.271,1.435
2315.0,-6.934,-2.558,1.723,-2.107,0.271,1.435
2319.0,-6.872,-2.776,1.82,-2.024,0.306,1.411
2323.0,-6.872,-2.776,1.82,-2.024,0.306,1.411
2327.0,-6.872,-2.776,1.82,-2.024,0.306,1.411
2331.0,-6.982,-2.965,1.869,-1.932,0.328,1.374
2334.0,-6.982,-2.965,1.869,-1.932,0.328,1.374
2338.0,-7.187,-3.12,1.857,-1.932,0.328,1.326
2342.0,-7.187,-3.12,1.857,-1.831,0.337,1.326
2346.0,-7.187,-3.12,1.857,-1.831,0.337,1.326
2350.0,-7.385,-3.279,1.795,-1.722,0.33,1.261
2354.0,-7.385,-3.279,1.795,-1.722,0.33,1.261
2358.0,-7.537,-3.37,1.68,-1.722,0.33,1.261
2362.0,-7.537,-3.37,1.68,-1.605,0.316,1.176
2366.0,-7.537,-3.37,1.68,-1.605,0.316,1.176
2370.0,-7.604,-3.427,1.561,-1.475,0.307,1.064
2374.0,-7.604,-3.427,1.561,-1.475,0.307,1.064
2377.0,-7.495,-3.473,1.418,-1.475,0.307,1.064
2381.0,-7.495,-3.473,1.418,-1.33,0.304,0.924
2385.0,-7.495,-3.473,1.418,-1.33,0.304,0.924
2389.0,-7.216,-3.433,1.309,-1.174,0.312,0.752
2393.0,-7.216,-3.433,1.309,-1.174,0.312,0.752
2397.0,-7.216,-3.433,1.211,-1.174,0.312,0.752
2401.0,-6.82,-3.297,1.211,-1.016,0.335,0.551
2405.0,-6.82,-3.297,1.211,-1.016,0.335,0.551
2409.0,-6.415,-3.141,1.137,-0.869,0.379,0.324
2413.0,-6.415,-3.141,1.137,-0.869,0.379,0.324
2417.0,-6.415,-3.141,1.137,-0.869,0.379,0.324
2420.0,-6.162,-2.993,1.156,-0.732,0.445,0.079
2424.0,-6.162,-2.993,1.156,-0.732,0.445,0.079
2428.0,-6.077,-2.852,1.216,-0.601,0.517,-0.173
2432.0,-6.077,-2.852,1.216,-0.601,0.517,-0.173
2436.0,-6.077,-2.852,1.216,-0.601,0.517,-0.173
2440.0,-6.19,-2.693,1.316,-0.472,0.582,-0.424
2444.0,-6.19,-2.693,1.316,-0.472,0.582,-0.424
2448.0,-6.465,-2.547,1.367,-0.344,0.636,-0.67
2452.0,-6.465,-2.547,1.367,-0.344,0.636,-0.67
2456.0,-6.465,-2.547,1.289,-0.344,0.636,-0.67
2460.0,-6.708,-2.415,1.289,-0.22,0.676,-0.91
2464.0,-6.708,-2.415,1.289,-0.22,0.676,-0.91
2468.0,-6.837,-2.267,1.141,-0.103,0.714,-1.135
2472.0,-6.837,-2.267,1.141,-0.103,0.714,-1.135
2476.0,-6.886,-2.218,1.068,-0.103,0.714,-1.135
2480.0,-6.886,-2.218,1.068,0.003,0.765,-1.346
2484.0,-6.886,-2.218,1.068,0.003,0.765,-1.346
2488.0,-6.942,-2.233,0.986,0.105,0.833,-1.546
2492.0,-6.942,-2.233,0.986,0.105,0.833,-1.546
2496.0,-6.942,-2.248,0.983,0.105,0.833,-1.546
2500.0,-7.137,-2.248,0.983,0.211,0.918,-1.744
2504.0,-7.137,-2.248,0.983,0.211,0.918,-1.744
2507.0,-7.467,-2.259,1.028,0.325,1.014,-1.937
2511.0,-7.467,-2.259,1.028,0.325,1.014,-1.937
2515.0,-7.467,-2.259,1.187,0.325,1.014,-1.937
2519.0,-7.901,-2.252,1.187,0.442,1.108,-2.118
2523.0,-7.901,-2.252,1.187,0.442,1.108,-2.118
2527.0,-8.45,-2.122,1.45,0.561,1.192,-2.288
2531.0,-8.45,-2.122,1.45,0.561,1.192,-2.288
2535.0,-8.45,-2.122,1.45,0.561,1.192,-2.288
2539.0,-8.983,-2.011,1.664,0.671,1.251,-2.435
2543.0,-8.983,-2.011,1.664,0.671,1.251,-2.435
2547.0,-9.373,-1.892,1.966,0.771,1.284,-2.56
2550.0,-9.373,-1.892,1.966,0.771,1.284,-2.56
2554.0,-9.373,-1.892,1.966,0.771,1.284,-2.56
2558.0,-9.558,-1.742,2.311,0.859,1.282,-2.663
2562.0,-9.558,-1.742,2.311,0.859,1.282,-2.663
2566.0,-9.576,-1.583,2.549,0.933,1.252,-2.744
2570.0,-9.576,-1.583,2.549,0.933,1.252,-2.744
2574.0,-9.576,-1.583,2.549,0.933,1.252,-2.744
2578.0,-9.516,-1.39,2.818,0.985,1.213,-2.804
2582.0,-9.516,-1.39,2.818,0.985,1.213,-2.804
2586.0,-9.437,-1.164,3.044,1.01,1.169,-2.845
2590.0,-9.437,-1.164,3.044,1.01,1.169,-2.845
2593.0,-9.437,-1.164,3.044,1.01,1.169,-2.845
2597.0,-9.411,-0.963,3.172,1.003,1.13,-2.868
2601.0,-9.411,-0.963,3.172,1.003,1.13,-2.868
2605.0,-9.544,-0.818,3.172,0.97,1.105,-2.869
2609.0,-9.544,-0.818,3.172,0.97,1.105,-2.869
2613.0,-9.544,-0.818,3.172,0.97,1.105,-2.869
2617.0,-9.951,-0.726,3.133,0.914,1.104,-2.843
2621.0,-9.951,-0.726,3.133,0.914,1.104,-2.843
2625.0,-10.533,-0.644,3.178,0.914,1.125,-2.771
2629.0,-10.533,-0.644,3.178,0.842,1.125,-2.771
2633.0,-10.533,-0.644,3.178,0.842,1.125,-2.771
2637.0,-11.142,-0.628,3.374,0.759,1.139,-2.648
2641.0,-11.142,-0.628,3.374,0.759,1.139,-2.648
2645.0,-11.653,-0.69,3.513,0.675,1.128,-2.488
2649.0,-11.653,-0.69,3.513,0.675,1.128,-2.488
2653.0,-11.653,-0.69,3.513,0.675,1.128,-2.488
2657.0,-12.036,-0.778,3.66,0.596,1.1,-2.312
2661.0,-12.036,-0.778,3.66,0.596,1.1,-2.312
2665.0,-12.291,-0.602,3.967,0.527,1.067,-2.137
2669.0,-12.291,-0.602,3.967,0.527,1.067,-2.137
2673.0,-12.291,-0.602,3.967,0.527,1.067,-2.137
2677.0,-13.668,0.345,5.853,0.473,1.022,-1.943
2680.0,-13.668,0.345,5.853,0.473,1.022,-1.943
2684.0,-14.587,0.612,9.111,0.45,0.907,-1.753
2688.0,-14.587,0.612,9.111,0.45,0.907,-1.753
2692.0,-14.587,0.612,9.111,0.45,0.907,-1.753
2696.0,-13.957,2.865,12.37,0.425,0.709,-1.569
2700.0,-13.957,2.865,12.37,0.425,0.709,-1.569
2704.0,-13.536,5.169,13.741,0.277,0.558,-1.29
2708.0,-13.536,5.169,13.741,0.277,0.558,-1.29
2712.0,-13.536,5.169,13.741,0.277,0.558,-1.29
2716.0,-14.317,5.037,11.955,0.075,0.408,-0.957
2720.0,-14.317,5.037,11.955,0.075,0.408,-0.957
2724.0,-13.418,3.566,9.157,-0.118,0.147,-0.673
2728.0,-13.418,3.566,9.157,-0.118,0.147,-0.673
2732.0,-13.418,3.566,9.157,-0.118,0.147,-0.673
2736.0,-12.327,2.432,7.64,-0.235,-0.038,-0.541
2740.0,-12.327,2.432,7.64,-0.235,-0.038,-0.541
2744.0,-11.023,1.113,5.431,-0.299,-0.136,-0.532
2748.0,-11.023,1.113,5.431,-0.299,-0.136,-0.532
2752.0,-11.023,1.113,3.075,-0.299,-0.136,-0.532
2756.0,-9.263,-0.537,3.075,-0.293,-0.112,-0.577
2761.0,-9.263,-0.537,3.075,-0.293,-0.112,-0.577
2765.0,-9.653,-1.108,2.522,-0.21,0.044,-0.608
2769.0,-9.653,-1.108,2.522,-0.21,0.044,-0.608
2773.0,-11.145,-1.793,2.269,-0.21,0.044,-0.565
2777.0,-11.145,-1.793,2.269,-0.087,0.226,-0.565
2781.0,-11.145,-1.793,2.269,-0.087,0.226,-0.565
2785.0,-13.022,-2.575,2.267,0.067,0.346,-0.481
2789.0,-13.022,-2.575,2.267,0.067,0.346,-0.481
2793.0,-14.645,-3.263,2.287,0.237,0.342,-0.389
2797.0,-14.645,-3.263,2.287,0.237,0.342,-0.389
2801.0,-14.645,-3.263,2.287,0.237,0.342,-0.389
2805.0,-15.636,-3.791,2.244,0.408,0.23,-0.291
2809.0,-15.636,-3.791,2.244,0.408,0.23,-0.291
2813.0,-15.849,-4.083,2.121,0.577,0.067,-0.188
2817.0,-15.849,-4.083,2.121,0.577,0.067,-0.188
2821.0,-15.849,-4.083,2.121,0.577,0.067,-0.188
2825.0,-15.313,-4.09,1.865,0.722,-0.101,-0.084
2829.0,-15.313,-4.09,1.865,0.722,-0.101,-0.084
2833.0,-14.411,-4.142,1.619,0.828,-0.247,0.002
2837.0,-14.411,-4.142,1.619,0.828,-0.247,0.002
2841.0,-14.411,-4.142,1.619,0.828,-0.247,0.002
2845.0,-13.482,-4.219,1.29,0.907,-0.366,0.044
2849.0,-13.482,-4.219,1.29,0.907,-0.366,0.044
2853.0,-12.974,-4.015,0.733,0.957,-0.452,0.039
2857.0,-12.974,-4.015,0.733,0.957,-0.452,0.039
2861.0,-12.974,-4.015,0.239,0.957,-0.452,0.039
2865.0,-12.878,-3.754,0.239,0.945,-0.499,0.008
2869.0,-12.878,-3.754,0.239,0.945,-0.499,0.008
2873.0,-12.847,-3.598,-0.095,0.864,-0.509,-0.03
2877.0,-12.847,-3.598,-0.095,0.864,-0.509,-0.03
2881.0,-12.68,-3.511,-0.252,0.864,-0.509,-0.068
2885.0,-12.68,-3.511,-0.252,0.722,-0.499,-0.068
2890.0,-12.68,-3.511,-0.252,0.722,-0.499,-0.068
2894.0,-12.445,-3.447,-0.292,0.537,-0.479,-0.108
2898.0,-12.445,-3.447,-0.292,0.537,-0.479,-0.108
2902.0,-12.307,-3.543,-0.212,0.323,-0.461,-0.142
2906.0,-12.307,-3.543,-0.212,0.323,-0.461,-0.142
2910.0,-12.307,-3.991,-0.088,0.323,-0.461,-0.142
2915.0,-12.25,-3.991,-0.088,0.091,-0.467,-0.175
2919.0,-12.25,-3.991,-0.088,0.091,-0.467,-0.175
2923.0,-12.168,-4.601,-0.177,-0.142,-0.513,-0.22
2927.0,-12.168,-4.601,-0.177,-0.142,-0.513,-0.22
2931.0,-11.866,-5.128,-0.505,-0.357,-0.591,-0.296
2936.0,-11.866,-5.128,-0.505,-0.357,-0.591,-0.296
2940.0,-11.866,-5.128,-0.886,-0.357,-0.591,-0.296
2944.0,-11.349,-5.514,-0.886,-0.544,-0.671,-0.407
2948.0,-11.349,-5.514,-0.886,-0.544,-0.671,-0.407
2953.0,-10.613,-5.88,-1.265,-0.712,-0.732,-0.533
2957.0,-10.613,-5.88,-1.265,-0.712,-0.732,-0.533
2961.0,-9.735,-6.174,-1.637,-0.855,-0.776,-0.668
2965.0,-9.735,-6.174,-1.637,-0.855,-0.776,-0.668
2969.0,-9.735,-6.174,-1.953,-0.855,-0.776,-0.668
2974.0,-8.861,-6.389,-1.953,-0.962,-0.794,-0.813
2978.0,-8.861,-6.389,-1.953,-0.962,-0.794,-0.813
2982.0,-8.059,-6.491,-2.181,-1.029,-0.785,-0.961
2986.0,-8.059,-6.491,-2.181,-1.029,-0.785,-0.961
2990.0,-7.376,-6.551,-2.421,-1.057,-0.751,-1.1
2994.0,-7.376,-6.551,-2.421,-1.057,-0.751,-1.1
2999.0,-7.376,-6.551,-2.421,-1.057,-0.751,-1.1
