deltaTime,Acc_X,Acc_Y,Acc_Z,Gyro_X,Gyro_Y,Gyro_Z
0.0,-7.037,-2.979,-0.483,0.048,-0.392,-0.264
3.0,-7.037,-2.979,-0.483,0.048,-0.392,-0.264
6.0,-5.725,-3.188,-0.533,0.048,-0.392,-0.303
9.0,-5.725,-3.188,-0.533,0.102,-0.372,-0.303
12.0,-5.725,-3.188,-0.533,0.102,-0.372,-0.303
15.0,-5.725,-3.188,-0.533,0.102,-0.372,-0.303
18.0,-4.803,-3.029,-0.316,0.221,-0.269,-0.364
21.0,-4.803,-3.029,-0.316,0.221,-0.269,-0.364
24.0,-4.803,-3.029,-0.316,0.221,-0.269,-0.364
27.0,-4.083,-2.728,0.217,0.339,-0.132,-0.44
30.0,-4.083,-2.728,0.217,0.339,-0.132,-0.44
34.0,-4.083,-2.728,0.217,0.339,-0.132,-0.44
38.0,-3.312,-2.239,0.782,0.42,0.01,-0.528
42.0,-3.312,-2.239,0.782,0.42,0.01,-0.528
45.0,-3.191,-1.816,1.114,0.42,0.01,-0.528
49.0,-3.191,-1.816,1.114,0.417,0.162,-0.616
53.0,-3.191,-1.816,1.114,0.417,0.162,-0.616
57.0,-4.508,-1.723,1.052,0.323,0.275,-0.625
60.0,-4.508,-1.723,1.052,0.323,0.275,-0.625
64.0,-4.508,-1.723,1.052,0.323,0.275,-0.625
68.0,-7.689,-1.688,1.107,0.152,0.394,-0.484
72.0,-7.689,-1.688,1.107,0.152,0.394,-0.484
75.0,-11.938,-2.164,1.143,0.152,0.394,-0.255
79.0,-11.938,-2.164,1.143,-0.102,0.525,-0.255
83.0,-11.938,-2.164,1.143,-0.102,0.525,-0.255
87.0,-14.399,-3.235,1.503,-0.397,0.581,-0.074
91.0,-14.399,-3.235,1.503,-0.397,0.581,-0.074
95.0,-13.447,-4.604,2.131,-0.397,0.581,-0.074
99.0,-13.447,-4.604,2.131,-0.639,0.512,0.039
102.0,-13.447,-4.604,2.131,-0.639,0.512,0.039
106.0,-12.05,-5.816,2.136,-0.736,0.359,0.111
110.0,-12.05,-5.816,2.136,-0.736,0.359,0.111
114.0,-12.05,-5.816,1.731,-0.736,0.359,0.111
118.0,-12.299,-6.176,1.731,-0.693,0.23,0.143
122.0,-12.299,-6.176,1.731,-0.693,0.23,0.143
126.0,-13.132,-5.778,1.3,-0.603,0.193,0.142
130.0,-13.132,-5.778,1.3,-0.603,0.193,0.142
134.0,-13.132,-5.778,1.3,-0.603,0.193,0.142
138.0,-13.678,-5.524,1.073,-0.504,0.217,0.161
142.0,-13.678,-5.524,1.073,-0.504,0.217,0.161
145.0,-14.154,-5.218,1.312,-0.369,0.265,0.2
149.0,-14.154,-5.218,1.312,-0.369,0.265,0.2
153.0,-14.154,-5.218,1.312,-0.369,0.265,0.2
157.0,-14.084,-4.839,2.036,-0.217,0.3,0.185
161.0,-14.084,-4.839,2.036,-0.217,0.3,0.185
165.0,-13.386,-4.618,2.977,-0.036,0.312,0.083
169.0,-13.386,-4.618,2.977,-0.036,0.312,0.083
173.0,-13.386,-4.618,2.977,-0.036,0.312,0.083
177.0,-12.477,-4.263,3.931,0.222,0.313,-0.076
181.0,-12.477,-4.263,3.931,0.222,0.313,-0.076
185.0,-11.372,-3.577,4.533,0.538,0.304,-0.278
188.0,-11.372,-3.577,4.533,0.538,0.304,-0.278
192.0,-11.372,-3.577,4.533,0.538,0.304,-0.278
196.0,-10.527,-2.675,4.809,0.834,0.279,-0.484
200.0,-10.527,-2.675,4.809,0.834,0.279,-0.484
204.0,-10.051,-2.106,5.148,1.057,0.235,-0.65
208.0,-10.051,-2.106,5.148,1.057,0.235,-0.65
212.0,-10.051,-2.106,5.148,1.057,0.235,-0.65
216.0,-9.811,-1.407,5.174,1.214,0.188,-0.77
220.0,-9.811,-1.407,5.174,1.214,0.188,-0.77
223.0,-9.784,-0.768,4.688,1.214,0.188,-0.847
227.0,-9.784,-0.768,4.688,1.246,0.089,-0.847
231.0,-9.784,-0.768,4.688,1.246,0.089,-0.847
235.0,-9.744,-0.757,4.585,1.136,-0.08,-0.847
239.0,-9.744,-0.757,4.585,1.136,-0.08,-0.847
243.0,-9.744,-1.028,4.409,1.136,-0.08,-0.847
247.0,-10.074,-1.028,4.409,0.973,-0.252,-0.816
251.0,-10.074,-1.028,4.409,0.973,-0.252,-0.816
255.0,-10.228,-1.493,4.216,0.828,-0.45,-0.76
259.0,-10.228,-1.493,4.216,0.828,-0.45,-0.76
263.0,-9.567,-1.569,3.743,0.828,-0.45,-0.76
266.0,-9.567,-1.569,3.743,0.713,-0.628,-0.682
270.0,-9.567,-1.569,3.743,0.713,-0.628,-0.682
274.0,-9.172,-1.759,3.235,0.587,-0.741,-0.591
278.0,-9.172,-1.759,3.235,0.587,-0.741,-0.591
282.0,-9.172,-1.759,2.766,0.587,-0.741,-0.591
286.0,-9.165,-1.984,2.766,0.468,-0.793,-0.484
290.0,-9.165,-1.984,2.766,0.468,-0.793,-0.484
294.0,-9.437,-2.17,2.467,0.37,-0.803,-0.359
298.0,-9.437,-2.17,2.467,0.37,-0.803,-0.359
302.0,-9.437,-2.17,2.467,0.37,-0.803,-0.359
306.0,-9.75,-2.233,2.333,0.295,-0.8,-0.214
309.0,-9.75,-2.233,2.333,0.295,-0.8,-0.214
313.0,-9.976,-2.178,2.253,0.229,-0.806,-0.046
317.0,-9.976,-2.178,2.253,0.229,-0.806,-0.046
321.0,-9.976,-2.178,2.253,0.229,-0.806,-0.046
325.0,-10.097,-2.077,2.176,0.165,-0.822,0.131
329.0,-10.097,-2.077,2.176,0.165,-0.822,0.131
333.0,-10.128,-1.902,2.101,0.098,-0.836,0.304
337.0,-10.128,-1.902,2.101,0.098,-0.836,0.304
341.0,-10.128,-1.902,2.101,0.098,-0.836,0.304
345.0,-10.07,-1.729,2.008,0.021,-0.847,0.473
348.0,-10.07,-1.729,2.008,0.021,-0.847,0.473
352.0,-9.887,-1.537,1.863,-0.068,-0.853,0.637
356.0,-9.887,-1.537,1.863,-0.068,-0.853,0.637
360.0,-9.887,-1.537,1.863,-0.068,-0.853,0.637
364.0,-9.72,-1.363,1.771,-0.173,-0.845,0.792
368.0,-9.72,-1.363,1.771,-0.173,-0.845,0.792
372.0,-9.493,-1.237,1.768,-0.293,-0.824,0.94
376.0,-9.493,-1.237,1.768,-0.293,-0.824,0.94
380.0,-9.493,-1.237,1.768,-0.293,-0.824,0.94
384.0,-9.065,-1.154,1.723,-0.424,-0.808,1.077
388.0,-9.065,-1.154,1.723,-0.424,-0.808,1.077
391.0,-8.588,-1.073,1.589,-0.424,-0.795,1.194
395.0,-8.588,-1.073,1.589,-0.563,-0.795,1.194
399.0,-8.588,-1.073,1.589,-0.563,-0.795,1.194
403.0,-8.34,-1.017,1.412,-0.714,-0.765,1.288
407.0,-8.34,-1.017,1.412,-0.714,-0.765,1.288
411.0,-8.405,-0.989,1.241,-0.714,-0.765,1.366
415.0,-8.405,-0.989,1.241,-0.874,-0.707,1.366
419.0,-8.405,-0.989,1.241,-0.874,-0.707,1.366
423.0,-8.652,-1.0,1.085,-1.041,-0.628,1.441
427.0,-8.652,-1.0,1.085,-1.041,-0.628,1.441
431.0,-8.884,-1.079,0.989,-1.041,-0.628,1.441
434.0,-8.884,-1.079,0.989,-1.212,-0.546,1.521
438.0,-8.884,-1.079,0.989,-1.212,-0.546,1.521
442.0,-9.106,-1.232,0.942,-1.375,-0.473,1.601
446.0,-9.106,-1.232,0.942,-1.375,-0.473,1.601
450.0,-9.106,-1.388,0.887,-1.375,-0.473,1.601
454.0,-9.327,-1.388,0.887,-1.52,-0.41,1.669
458.0,-9.327,-1.388,0.887,-1.52,-0.41,1.669
462.0,-9.584,-1.603,0.888,-1.64,-0.358,1.722
466.0,-9.584,-1.603,0.888,-1.64,-0.358,1.722
470.0,-9.584,-1.603,0.852,-1.64,-0.358,1.722
473.0,-9.845,-1.817,0.852,-1.718,-0.311,1.775
477.0,-9.845,-1.817,0.852,-1.718,-0.311,1.775
481.0,-10.146,-1.939,0.748,-1.758,-0.269,1.824
485.0,-10.146,-1.939,0.748,-1.758,-0.269,1.824
489.0,-10.146,-1.939,0.652,-1.758,-0.269,1.824
493.0,-10.713,-2.048,0.652,-1.78,-0.223,1.856
497.0,-10.713,-2.048,0.652,-1.78,-0.223,1.856
501.0,-11.413,-2.155,0.587,-1.788,-0.171,1.882
505.0,-11.413,-2.155,0.587,-1.788,-0.171,1.882
509.0,-11.413,-2.27,0.591,-1.788,-0.171,1.882
513.0,-12.032,-2.27,0.591,-1.779,-0.121,1.911
517.0,-12.032,-2.27,0.591,-1.779,-0.121,1.911
521.0,-12.404,-2.368,0.643,-1.753,-0.086,1.943
525.0,-12.404,-2.368,0.643,-1.753,-0.086,1.943
529.0,-12.5,-2.468,0.672,-1.753,-0.086,1.943
533.0,-12.5,-2.468,0.672,-1.707,-0.066,1.965
537.0,-12.5,-2.468,0.672,-1.707,-0.066,1.965
541.0,-12.445,-2.524,0.642,-1.644,-0.052,1.967
545.0,-12.445,-2.524,0.642,-1.644,-0.052,1.967
549.0,-12.319,-2.497,0.56,-1.644,-0.052,1.945
553.0,-12.319,-2.497,0.56,-1.574,-0.03,1.945
557.0,-12.319,-2.497,0.56,-1.574,-0.03,1.945
561.0,-12.164,-2.439,0.505,-1.506,0.005,1.904
565.0,-12.164,-2.439,0.505,-1.506,0.005,1.904
569.0,-11.952,-2.351,0.529,-1.506,0.005,1.853
573.0,-11.952,-2.351,0.529,-1.443,0.051,1.853
577.0,-11.952,-2.351,0.529,-1.443,0.051,1.853
581.0,-11.632,-2.31,0.567,-1.385,0.096,1.795
585.0,-11.632,-2.31,0.567,-1.385,0.096,1.795
589.0,-11.38,-2.276,0.605,-1.385,0.096,1.795
592.0,-11.38,-2.276,0.605,-1.33,0.14,1.732
596.0,-11.38,-2.276,0.605,-1.33,0.14,1.732
600.0,-11.276,-2.285,0.674,-1.272,0.187,1.665
604.0,-11.276,-2.285,0.674,-1.272,0.187,1.665
608.0,-11.276,-2.335,0.705,-1.272,0.187,1.665
612.0,-11.134,-2.335,0.705,-1.208,0.231,1.599
616.0,-11.134,-2.335,0.705,-1.208,0.231,1.599
620.0,-11.087,-2.379,0.723,-1.138,0.271,1.535
624.0,-11.087,-2.379,0.723,-1.138,0.271,1.535
628.0,-11.087,-2.379,0.765,-1.138,0.271,1.535
631.0,-11.142,-2.472,0.765,-1.062,0.312,1.479
635.0,-11.142,-2.472,0.765,-1.062,0.312,1.479
639.0,-11.073,-2.578,0.79,-0.978,0.348,1.432
643.0,-11.073,-2.578,0.79,-0.978,0.348,1.432
647.0,-11.073,-2.578,0.79,-0.978,0.348,1.432
651.0,-10.941,-2.682,0.771,-0.888,0.376,1.392
655.0,-10.941,-2.682,0.771,-0.888,0.376,1.392
659.0,-11.006,-2.764,0.707,-0.794,0.41,1.358
663.0,-11.006,-2.764,0.707,-0.794,0.41,1.358
667.0,-11.006,-2.764,0.707,-0.794,0.41,1.358
671.0,-11.215,-2.844,0.697,-0.693,0.455,1.333
674.0,-11.215,-2.844,0.697,-0.693,0.455,1.333
678.0,-11.189,-2.914,0.77,-0.586,0.49,1.323
682.0,-11.189,-2.914,0.77,-0.586,0.49,1.323
686.0,-11.189,-2.914,0.77,-0.586,0.49,1.323
690.0,-10.818,-2.958,0.878,-0.471,0.501,1.324
694.0,-10.818,-2.958,0.878,-0.471,0.501,1.324
698.0,-10.229,-2.979,0.916,-0.35,0.492,1.324
702.0,-10.229,-2.979,0.916,-0.35,0.492,1.324
706.0,-10.229,-2.979,0.916,-0.35,0.492,1.324
710.0,-9.62,-2.964,0.865,-0.22,0.483,1.318
713.0,-9.62,-2.964,0.865,-0.22,0.483,1.318
717.0,-9.067,-2.931,0.787,-0.22,0.486,1.309
721.0,-9.067,-2.931,0.787,-0.086,0.486,1.309
725.0,-9.067,-2.931,0.787,-0.086,0.486,1.309
729.0,-8.659,-2.885,0.732,0.046,0.506,1.306
732.0,-8.659,-2.885,0.732,0.046,0.506,1.306
736.0,-8.659,-2.885,0.702,0.046,0.506,1.306
740.0,-8.394,-2.815,0.702,0.171,0.538,1.306
744.0,-8.394,-2.815,0.702,0.171,0.538,1.306
747.0,-8.142,-2.726,0.767,0.284,0.574,1.309
751.0,-8.142,-2.726,0.767,0.284,0.574,1.309
755.0,-8.142,-2.726,0.767,0.284,0.574,1.309
759.0,-7.803,-2.633,0.874,0.382,0.598,1.307
762.0,-7.803,-2.633,0.874,0.382,0.598,1.307
766.0,-7.367,-2.542,0.983,0.382,0.598,1.307
770.0,-7.367,-2.542,0.983,0.465,0.605,1.293
773.0,-7.367,-2.542,0.983,0.465,0.605,1.293
777.0,-6.906,-2.465,1.012,0.538,0.6,1.265
781.0,-6.906,-2.465,1.012,0.538,0.6,1.265
785.0,-6.906,-2.465,1.012,0.538,0.6,1.265
788.0,-6.484,-2.382,0.974,0.601,0.595,1.223
792.0,-6.484,-2.382,0.974,0.601,0.595,1.223
796.0,-6.161,-2.285,0.963,0.601,0.595,1.174
800.0,-6.161,-2.285,0.963,0.655,0.596,1.174
803.0,-6.161,-2.285,0.963,0.655,0.596,1.174
807.0,-5.962,-2.198,0.965,0.7,0.603,1.123
811.0,-5.962,-2.198,0.965,0.7,0.603,1.123
815.0,-5.962,-2.198,0.965,0.7,0.603,1.123
818.0,-5.889,-2.124,0.919,0.735,0.611,1.073
822.0,-5.889,-2.124,0.919,0.735,0.611,1.073
826.0,-6.072,-2.104,0.852,0.735,0.624,1.025
829.0,-6.072,-2.104,0.852,0.758,0.624,1.025
833.0,-6.072,-2.104,0.852,0.758,0.624,1.025
837.0,-6.634,-2.112,0.828,0.767,0.643,0.981
841.0,-6.634,-2.112,0.828,0.767,0.643,0.981
844.0,-6.634,-2.112,0.828,0.767,0.643,0.981
848.0,-7.483,-2.195,0.857,0.769,0.664,0.949
852.0,-7.483,-2.195,0.857,0.769,0.664,0.949
856.0,-8.484,-2.374,0.905,0.767,0.675,0.932
859.0,-8.484,-2.374,0.905,0.767,0.675,0.932
863.0,-8.484,-2.374,0.905,0.767,0.675,0.932
867.0,-9.649,-2.602,1.028,0.766,0.672,0.929
871.0,-9.649,-2.602,1.028,0.766,0.672,0.929
874.0,-9.649,-2.602,1.198,0.766,0.672,0.929
878.0,-10.977,-2.846,1.198,0.773,0.65,0.937
882.0,-10.977,-2.846,1.198,0.773,0.65,0.937
886.0,-12.237,-3.111,1.397,0.789,0.596,0.956
889.0,-12.237,-3.111,1.397,0.789,0.596,0.956
893.0,-12.237,-3.111,1.397,0.789,0.596,0.956
897.0,-13.047,-3.304,1.589,0.812,0.494,0.978
901.0,-13.047,-3.304,1.589,0.812,0.494,0.978
905.0,-13.19,-3.422,1.692,0.812,0.349,0.99
909.0,-13.19,-3.422,1.692,0.839,0.349,0.99
912.0,-13.19,-3.422,1.692,0.839,0.349,0.99
916.0,-12.664,-3.412,1.619,0.867,0.181,0.973
920.0,-12.664,-3.412,1.619,0.867,0.181,0.973
924.0,-12.664,-3.263,1.427,0.867,0.181,0.973
928.0,-11.745,-3.263,1.427,0.889,0.022,0.909
931.0,-11.745,-3.263,1.427,0.889,0.022,0.909
935.0,-10.836,-3.011,1.167,0.897,-0.108,0.8
939.0,-10.836,-3.011,1.167,0.897,-0.108,0.8
943.0,-10.836,-3.011,1.167,0.897,-0.108,0.8
947.0,-10.149,-2.724,0.922,0.886,-0.203,0.653
951.0,-10.149,-2.724,0.922,0.886,-0.203,0.653
955.0,-9.666,-2.412,0.711,0.86,-0.27,0.477
959.0,-9.666,-2.412,0.711,0.86,-0.27,0.477
962.0,-9.666,-2.412,0.711,0.86,-0.27,0.477
966.0,-9.357,-2.116,0.562,0.819,-0.318,0.283
970.0,-9.357,-2.116,0.562,0.819,-0.318,0.283
974.0,-9.248,-1.846,0.436,0.819,-0.356,0.079
978.0,-9.248,-1.846,0.436,0.766,-0.356,0.079
982.0,-9.248,-1.846,0.436,0.766,-0.356,0.079
985.0,-9.387,-1.557,0.45,0.703,-0.382,-0.125
989.0,-9.387,-1.557,0.45,0.703,-0.382,-0.125
993.0,-9.521,-1.305,0.586,0.703,-0.382,-0.125
997.0,-9.521,-1.305,0.586,0.638,-0.413,-0.314
1001.0,-9.521,-1.305,0.586,0.638,-0.413,-0.314
1005.0,-9.399,-1.144,0.707,0.573,-0.47,-0.482
1009.0,-9.399,-1.144,0.707,0.573,-0.47,-0.482
1013.0,-9.31,-1.058,0.738,0.573,-0.47,-0.482
1017.0,-9.31,-1.058,0.738,0.505,-0.539,-0.637
1021.0,-9.31,-1.058,0.738,0.505,-0.539,-0.637
1025.0,-9.782,-1.023,0.628,0.428,-0.577,-0.787
1029.0,-9.782,-1.023,0.628,0.428,-0.577,-0.787
1033.0,-10.861,-1.055,0.519,0.428,-0.577,-0.93
1037.0,-10.861,-1.055,0.519,0.339,-0.563,-0.93
1041.0,-10.861,-1.055,0.519,0.339,-0.563,-0.93
1045.0,-12.147,-1.131,0.545,0.236,-0.525,-1.049
1049.0,-12.147,-1.131,0.545,0.236,-0.525,-1.049
1053.0,-13.297,-1.22,0.698,0.118,-0.506,-1.136
1057.0,-13.297,-1.22,0.698,0.118,-0.506,-1.136
1062.0,-13.297,-1.22,0.698,0.118,-0.506,-1.136
1066.0,-14.189,-1.356,0.961,-0.012,-0.522,-1.194
1070.0,-14.189,-1.356,0.961,-0.012,-0.522,-1.194
1074.0,-14.503,-1.553,1.229,-0.139,-0.577,-1.233
1078.0,-14.503,-1.553,1.229,-0.139,-0.577,-1.233
1082.0,-14.122,-1.765,1.405,-0.139,-0.577,-1.262
1086.0,-14.122,-1.765,1.405,-0.25,-0.665,-1.262
1091.0,-14.122,-1.765,1.405,-0.25,-0.665,-1.262
1095.0,-13.318,-1.929,1.385,-0.337,-0.757,-1.298
1099.0,-13.318,-1.929,1.385,-0.337,-0.757,-1.298
1103.0,-12.487,-1.951,1.309,-0.394,-0.825,-1.354
1107.0,-12.487,-1.951,1.309,-0.394,-0.825,-1.354
1111.0,-12.487,-1.851,1.151,-0.394,-0.825,-1.354
1116.0,-11.74,-1.851,1.151,-0.427,-0.864,-1.431
1120.0,-11.74,-1.851,1.151,-0.427,-0.864,-1.431
1124.0,-11.117,-1.646,0.992,-0.442,-0.882,-1.52
1128.0,-11.117,-1.646,0.992,-0.442,-0.882,-1.52
1132.0,-10.552,-1.441,0.926,-0.439,-0.884,-1.611
1136.0,-10.552,-1.441,0.926,-0.439,-0.884,-1.611
1141.0,-10.552,-1.441,0.926,-0.439,-0.884,-1.611
1145.0,-10.045,-1.285,0.902,-0.419,-0.881,-1.701
1149.0,-10.045,-1.285,0.902,-0.419,-0.881,-1.701
1153.0,-9.755,-1.184,0.913,-0.377,-0.869,-1.785
1157.0,-9.755,-1.184,0.913,-0.377,-0.869,-1.785
1161.0,-9.599,-1.168,0.973,-0.377,-0.869,-1.859
1165.0,-9.599,-1.168,0.973,-0.309,-0.85,-1.859
1169.0,-9.599,-1.168,0.973,-0.309,-0.85,-1.859
1173.0,-9.546,-1.223,1.013,-0.22,-0.833,-1.914
1178.0,-9.546,-1.223,1.013,-0.22,-0.833,-1.914
1182.0,-9.72,-1.302,0.997,-0.114,-0.807,-1.949
1186.0,-9.72,-1.302,0.997,-0.114,-0.807,-1.949
1190.0,-9.72,-1.302,0.997,-0.114,-0.807,-1.949
1194.0,-10.109,-1.414,0.963,-0.001,-0.763,-1.966
1198.0,-10.109,-1.414,0.963,-0.001,-0.763,-1.966
1202.0,-10.629,-1.523,0.972,0.112,-0.701,-1.961
1206.0,-10.629,-1.523,0.972,0.112,-0.701,-1.961
1210.0,-11.18,-1.627,1.027,0.112,-0.701,-1.961
1214.0,-11.18,-1.627,1.027,0.22,-0.632,-1.929
1219.0,-11.18,-1.627,1.027,0.22,-0.632,-1.929
1223.0,-11.7,-1.75,1.104,0.322,-0.562,-1.868
1227.0,-11.7,-1.75,1.104,0.322,-0.562,-1.868
1231.0,-12.056,-1.872,1.247,0.419,-0.493,-1.781
1235.0,-12.056,-1.872,1.247,0.419,-0.493,-1.781
1239.0,-12.056,-1.872,1.247,0.419,-0.493,-1.781
1243.0,-12.135,-2.009,1.418,0.515,-0.433,-1.673
1247.0,-12.135,-2.009,1.418,0.515,-0.433,-1.673
1251.0,-11.83,-2.14,1.603,0.616,-0.387,-1.559
1255.0,-11.83,-2.14,1.603,0.616,-0.387,-1.559
1259.0,-11.83,-2.14,1.735,0.616,-0.387,-1.559
1263.0,-11.276,-2.234,1.735,0.725,-0.355,-1.46
1267.0,-11.276,-2.234,1.735,0.725,-0.355,-1.46
1272.0,-10.624,-2.227,1.768,0.841,-0.329,-1.398
1276.0,-10.624,-2.227,1.768,0.841,-0.329,-1.398
1280.0,-10.013,-2.076,1.708,0.841,-0.329,-1.375
1284.0,-10.013,-2.076,1.708,0.961,-0.304,-1.375
1288.0,-10.013,-2.076,1.708,0.961,-0.304,-1.375
1292.0,-9.453,-1.882,1.633,1.08,-0.273,-1.379
1296.0,-9.453,-1.882,1.633,1.08,-0.273,-1.379
1300.0,-8.837,-1.677,1.566,1.198,-0.241,-1.4
1304.0,-8.837,-1.677,1.566,1.198,-0.241,-1.4
1308.0,-8.837,-1.677,1.566,1.198,-0.241,-1.4
1312.0,-8.211,-1.479,1.47,1.314,-0.214,-1.434
1316.0,-8.211,-1.479,1.47,1.314,-0.214,-1.434
1320.0,-7.68,-1.317,1.429,1.429,-0.186,-1.48
1324.0,-7.68,-1.317,1.429,1.429,-0.186,-1.48
1328.0,-7.68,-1.317,1.429,1.429,-0.186,-1.48
1332.0,-7.195,-1.215,1.373,1.547,-0.163,-1.537
1336.0,-7.195,-1.215,1.373,1.547,-0.163,-1.537
1340.0,-6.753,-1.109,1.256,1.665,-0.149,-1.596
1344.0,-6.753,-1.109,1.256,1.665,-0.149,-1.596
1348.0,-6.753,-1.109,1.256,1.665,-0.149,-1.596
1352.0,-6.51,-1.016,1.13,1.778,-0.126,-1.652
1356.0,-6.51,-1.016,1.13,1.778,-0.126,-1.652
1360.0,-6.55,-0.949,1.001,1.881,-0.083,-1.694
1364.0,-6.55,-0.949,1.001,1.881,-0.083,-1.694
1368.0,-6.55,-0.949,1.001,1.881,-0.083,-1.694
1372.0,-6.775,-0.937,0.909,1.966,-0.026,-1.713
1376.0,-6.775,-0.937,0.909,1.966,-0.026,-1.713
1380.0,-7.091,-0.943,0.88,2.031,0.034,-1.705
1384.0,-7.091,-0.943,0.88,2.031,0.034,-1.705
1388.0,-7.091,-0.943,0.908,2.031,0.034,-1.705
1392.0,-7.446,-0.954,0.908,2.074,0.093,-1.669
1395.0,-7.446,-0.954,0.908,2.074,0.093,-1.669
1399.0,-7.814,-0.986,1.023,2.099,0.148,-1.608
1403.0,-7.814,-0.986,1.023,2.099,0.148,-1.608
1407.0,-7.814,-0.986,1.023,2.099,0.148,-1.608
1411.0,-8.012,-1.007,1.098,2.108,0.189,-1.524
1415.0,-8.012,-1.007,1.098,2.108,0.189,-1.524
1419.0,-8.159,-1.019,1.136,2.099,0.218,-1.416
1423.0,-8.159,-1.019,1.136,2.099,0.218,-1.416
1427.0,-8.159,-1.019,1.136,2.099,0.218,-1.416
1431.0,-8.423,-1.052,1.177,2.071,0.259,-1.29
1435.0,-8.423,-1.052,1.177,2.071,0.259,-1.29
1438.0,-8.696,-1.062,1.216,2.028,0.309,-1.151
1442.0,-8.696,-1.062,1.216,2.028,0.309,-1.151
1446.0,-8.696,-1.062,1.216,2.028,0.309,-1.151
1450.0,-8.804,-1.058,1.266,1.966,0.351,-0.996
1454.0,-8.804,-1.058,1.266,1.966,0.351,-0.996
1458.0,-8.882,-1.045,1.35,1.886,0.39,-0.826
1462.0,-8.882,-1.045,1.35,1.886,0.39,-0.826
1466.0,-8.882,-1.045,1.35,1.886,0.39,-0.826
1470.0,-8.87,-1.055,1.386,1.795,0.424,-0.655
1474.0,-8.87,-1.055,1.386,1.795,0.424,-0.655
1477.0,-8.886,-1.051,1.432,1.7,0.449,-0.495
1481.0,-8.886,-1.051,1.432,1.7,0.449,-0.495
1485.0,-8.886,-1.051,1.432,1.7,0.449,-0.495
1489.0,-8.913,-0.976,1.454,1.602,0.465,-0.353
1493.0,-8.913,-0.976,1.454,1.602,0.465,-0.353
1497.0,-8.846,-0.858,1.457,1.602,0.46,-0.23
1501.0,-8.846,-0.858,1.457,1.502,0.46,-0.23
1505.0,-8.846,-0.858,1.457,1.502,0.46,-0.23
1509.0,-8.87,-0.71,1.436,1.401,0.438,-0.124
1513.0,-8.87,-0.71,1.436,1.401,0.438,-0.124
1517.0,-9.194,-0.535,1.408,1.401,0.438,-0.037
1520.0,-9.194,-0.535,1.408,1.296,0.412,-0.037
1524.0,-9.194,-0.535,1.408,1.296,0.412,-0.037
1528.0,-9.61,-0.328,1.384,1.185,0.385,0.041
1532.0,-9.61,-0.328,1.384,1.185,0.385,0.041
1536.0,-9.61,-0.097,1.428,1.185,0.385,0.041
1540.0,-9.854,-0.097,1.428,1.064,0.343,0.126
1544.0,-9.854,-0.097,1.428,1.064,0.343,0.126
1547.0,-10.004,0.124,1.54,0.931,0.284,0.217
1551.0,-10.004,0.124,1.54,0.931,0.284,0.217
1555.0,-10.004,0.124,1.54,0.931,0.284,0.217
1559.0,-10.122,0.346,1.631,0.787,0.215,0.309
1563.0,-10.122,0.346,1.631,0.787,0.215,0.309
1566.0,-10.138,0.577,1.714,0.631,0.142,0.394
1570.0,-10.138,0.577,1.714,0.631,0.142,0.394
1574.0,-10.138,0.577,1.714,0.631,0.142,0.394
1578.0,-10.0,0.859,1.849,0.458,0.059,0.472
1582.0,-10.0,0.859,1.849,0.458,0.059,0.472
1586.0,-9.641,1.116,1.928,0.458,0.059,0.472
1589.0,-9.641,1.116,1.928,0.262,-0.043,0.543
1593.0,-9.641,1.116,1.928,0.262,-0.043,0.543
1597.0,-9.139,1.36,1.897,0.04,-0.149,0.597
1601.0,-9.139,1.36,1.897,0.04,-0.149,0.597
1605.0,-9.139,1.36,1.897,0.04,-0.149,0.597
1608.0,-8.625,1.623,1.785,-0.214,-0.236,0.624
1612.0,-8.625,1.623,1.785,-0.214,-0.236,0.624
1616.0,-8.084,1.912,1.725,-0.503,-0.302,0.626
1620.0,-8.084,1.912,1.725,-0.503,-0.302,0.626
1624.0,-8.084,1.912,1.725,-0.503,-0.302,0.626
1628.0,-7.467,2.118,1.647,-0.829,-0.35,0.608
1632.0,-7.467,2.118,1.647,-0.829,-0.35,0.608
1636.0,-6.796,2.218,1.468,-1.188,-0.38,0.571
1640.0,-6.796,2.218,1.468,-1.188,-0.38,0.571
1644.0,-6.796,2.218,1.468,-1.188,-0.38,0.571
1647.0,-6.227,2.242,1.324,-1.573,-0.377,0.511
1651.0,-6.227,2.242,1.324,-1.573,-0.377,0.511
1655.0,-5.907,2.204,1.232,-1.971,-0.332,0.43
1659.0,-5.907,2.204,1.232,-1.971,-0.332,0.43
1663.0,-5.907,2.204,1.232,-1.971,-0.332,0.43
1667.0,-5.842,2.09,1.16,-2.371,-0.253,0.345
1671.0,-5.842,2.09,1.16,-2.371,-0.253,0.345
1675.0,-6.077,1.869,1.092,-2.371,-0.15,0.275
1679.0,-6.077,1.869,1.092,-2.759,-0.15,0.275
1683.0,-6.077,1.869,1.092,-2.759,-0.15,0.275
1687.0,-6.613,1.622,1.057,-3.12,-0.023,0.236
1690.0,-6.613,1.622,1.057,-3.12,-0.023,0.236
1694.0,-7.38,1.336,1.111,-3.12,-0.023,0.237
1698.0,-7.38,1.336,1.111,-3.447,0.13,0.237
1702.0,-7.38,1.336,1.111,-3.447,0.13,0.237
1706.0,-8.247,1.004,1.27,-3.742,0.292,0.282
1710.0,-8.247,1.004,1.27,-3.742,0.292,0.282
1714.0,-8.247,1.004,1.504,-3.742,0.292,0.282
1717.0,-9.131,0.588,1.504,-4.0,0.434,0.377
1721.0,-9.131,0.588,1.504,-4.0,0.434,0.377
1725.0,-10.019,0.1,1.759,-4.218,0.537,0.515
1729.0,-10.019,0.1,1.759,-4.218,0.537,0.515
1733.0,-10.019,0.1,1.759,-4.218,0.537,0.515
1737.0,-10.904,-0.425,1.891,-4.391,0.598,0.682
1741.0,-10.904,-0.425,1.891,-4.391,0.598,0.682
1745.0,-11.796,-0.951,1.931,-4.516,0.633,0.869
1749.0,-11.796,-0.951,1.931,-4.516,0.633,0.869
1753.0,-11.796,-0.951,1.931,-4.516,0.633,0.869
1757.0,-12.604,-1.415,1.954,-4.587,0.655,1.073
1761.0,-12.604,-1.415,1.954,-4.587,0.655,1.073
1765.0,-13.054,-1.839,1.927,-4.607,0.655,1.296
1769.0,-13.054,-1.839,1.927,-4.607,0.655,1.296
1773.0,-13.054,-1.839,1.925,-4.607,0.655,1.296
1777.0,-13.289,-2.189,1.925,-4.568,0.635,1.522
1781.0,-13.289,-2.189,1.925,-4.568,0.635,1.522
1785.0,-13.325,-2.456,1.903,-4.469,0.597,1.729
1789.0,-13.325,-2.456,1.903,-4.469,0.597,1.729
1793.0,-13.325,-2.63,1.851,-4.469,0.597,1.729
1797.0,-13.263,-2.63,1.851,-4.31,0.549,1.902
1801.0,-13.263,-2.63,1.851,-4.31,0.549,1.902
1805.0,-13.257,-2.746,1.783,-4.098,0.503,2.029
1809.0,-13.257,-2.746,1.783,-4.098,0.503,2.029
1813.0,-13.124,-2.652,1.712,-4.098,0.503,2.029
1817.0,-13.124,-2.652,1.712,-3.85,0.459,2.112
1821.0,-13.124,-2.652,1.712,-3.85,0.459,2.112
1825.0,-12.764,-2.317,1.839,-3.606,0.401,2.166
1829.0,-12.764,-2.317,1.839,-3.606,0.401,2.166
1833.0,-12.383,-2.543,2.257,-3.606,0.401,2.184
1837.0,-12.383,-2.543,2.257,-3.398,0.302,2.184
1840.0,-12.383,-2.543,2.257,-3.398,0.302,2.184
1844.0,-11.943,-3.535,2.491,-3.18,0.178,2.108
1848.0,-11.943,-3.535,2.491,-3.18,0.178,2.108
1852.0,-11.71,-4.266,2.512,-3.18,0.08,1.938
1856.0,-11.71,-4.266,2.512,-2.883,0.08,1.938
1860.0,-11.71,-4.266,2.512,-2.883,0.08,1.938
1864.0,-11.607,-4.446,2.462,-2.512,0.027,1.746
1868.0,-11.607,-4.446,2.462,-2.512,0.027,1.746
1872.0,-11.512,-3.953,2.484,-2.105,-0.002,1.586
1877.0,-11.512,-3.953,2.484,-2.105,-0.002,1.586
1881.0,-11.512,-3.953,2.484,-2.105,-0.002,1.586
1885.0,-11.456,-3.594,2.268,-1.698,-0.012,1.484
1889.0,-11.456,-3.594,2.268,-1.698,-0.012,1.484
1893.0,-11.429,-3.462,1.957,-1.292,0.0,1.388
1897.0,-11.429,-3.462,1.957,-1.292,0.0,1.388
1901.0,-11.429,-3.462,1.957,-1.292,0.0,1.388
1905.0,-11.6,-3.364,1.851,-0.871,0.024,1.27
1909.0,-11.6,-3.364,1.851,-0.871,0.024,1.27
1913.0,-11.733,-3.278,1.743,-0.437,0.036,1.148
1917.0,-11.733,-3.278,1.743,-0.437,0.036,1.148
1921.0,-11.733,-3.278,1.616,-0.437,0.036,1.148
1925.0,-11.713,-3.14,1.616,-0.008,0.037,1.038
1929.0,-11.713,-3.14,1.616,-0.008,0.037,1.038
1933.0,-11.585,-2.969,1.514,0.398,0.033,0.944
1937.0,-11.585,-2.969,1.514,0.398,0.033,0.944
1941.0,-11.585,-2.969,1.435,0.398,0.033,0.944
1944.0,-11.321,-2.864,1.435,0.758,0.018,0.865
1948.0,-11.321,-2.864,1.435,0.758,0.018,0.865
1952.0,-10.971,-2.828,1.257,1.064,-0.003,0.796
1956.0,-10.971,-2.828,1.257,1.064,-0.003,0.796
1960.0,-10.971,-2.828,1.122,1.064,-0.003,0.796
1964.0,-10.788,-2.813,1.122,1.316,-0.017,0.729
1968.0,-10.788,-2.813,1.122,1.316,-0.017,0.729
1972.0,-10.738,-2.856,0.958,1.525,-0.022,0.666
1976.0,-10.738,-2.856,0.958,1.525,-0.022,0.666
1980.0,-10.738,-2.876,0.815,1.525,-0.022,0.666
1984.0,-10.962,-2.876,0.815,1.698,-0.019,0.609
1988.0,-10.962,-2.876,0.815,1.698,-0.019,0.609
1992.0,-11.42,-2.928,0.759,1.838,-0.011,0.565
1996.0,-11.42,-2.928,0.759,1.838,-0.011,0.565
2000.0,-11.887,-2.941,0.775,1.838,-0.011,0.565
2004.0,-11.887,-2.941,0.775,1.952,-0.012,0.537
2008.0,-11.887,-2.941,0.775,1.952,-0.012,0.537
2012.0,-12.153,-2.915,0.83,2.041,-0.03,0.529
2016.0,-12.153,-2.915,0.83,2.041,-0.03,0.529
2020.0,-12.202,-2.841,0.924,2.041,-0.061,0.538
2024.0,-12.202,-2.841,0.924,2.107,-0.061,0.538
2028.0,-12.202,-2.841,0.924,2.107,-0.061,0.538
2032.0,-11.961,-2.706,0.949,2.144,-0.103,0.555
2036.0,-11.961,-2.706,0.949,2.144,-0.103,0.555
2040.0,-11.295,-2.499,0.855,2.155,-0.157,0.571
2044.0,-11.295,-2.499,0.855,2.155,-0.157,0.571
2048.0,-11.295,-2.499,0.855,2.155,-0.157,0.571
2052.0,-10.481,-2.221,0.754,2.134,-0.207,0.576
2056.0,-10.481,-2.221,0.754,2.134,-0.207,0.576
2060.0,-9.671,-1.939,0.639,2.083,-0.243,0.563
2064.0,-9.671,-1.939,0.639,2.083,-0.243,0.563
2068.0,-9.671,-1.939,0.639,2.083,-0.243,0.563
2072.0,-8.984,-1.677,0.463,2.005,-0.262,0.534
2076.0,-8.984,-1.677,0.463,2.005,-0.262,0.534
2080.0,-8.563,-1.399,0.369,1.897,-0.258,0.491
2084.0,-8.563,-1.399,0.369,1.897,-0.258,0.491
2087.0,-8.563,-1.399,0.369,1.897,-0.258,0.491
2091.0,-8.402,-1.195,0.329,1.758,-0.236,0.442
2095.0,-8.402,-1.195,0.329,1.758,-0.236,0.442
2099.0,-8.486,-1.049,0.261,1.758,-0.203,0.392
2103.0,-8.486,-1.049,0.261,1.59,-0.203,0.392
2107.0,-8.486,-1.049,0.261,1.59,-0.203,0.392
2111.0,-8.992,-0.957,0.375,1.395,-0.161,0.349
2115.0,-8.992,-0.957,0.375,1.395,-0.161,0.349
2119.0,-9.654,-0.967,0.528,1.395,-0.161,0.349
2123.0,-9.654,-0.967,0.528,1.18,-0.128,0.319
2127.0,-9.654,-0.967,0.528,1.18,-0.128,0.319
2130.0,-10.147,-1.069,0.541,0.95,-0.12,0.296
2134.0,-10.147,-1.069,0.541,0.95,-0.12,0.296
2138.0,-10.481,-1.166,0.748,0.95,-0.12,0.296
2142.0,-10.481,-1.166,0.748,0.709,-0.127,0.279
2146.0,-10.481,-1.166,0.748,0.709,-0.127,0.279
2150.0,-10.426,-1.309,0.891,0.468,-0.159,0.261
2154.0,-10.426,-1.309,0.891,0.468,-0.159,0.261
2158.0,-9.854,-1.427,0.769,0.468,-0.159,0.23
2162.0,-9.854,-1.427,0.769,0.237,-0.212,0.23
2166.0,-9.854,-1.427,0.769,0.237,-0.212,0.23
2170.0,-9.293,-1.501,0.634,0.016,-0.246,0.176
2174.0,-9.293,-1.501,0.634,0.016,-0.246,0.176
2178.0,-9.135,-1.536,0.453,0.016,-0.246,0.176
2182.0,-9.135,-1.536,0.453,-0.189,-0.243,0.099
2186.0,-9.135,-1.536,0.453,-0.189,-0.243,0.099
2190.0,-9.592,-1.541,0.322,-0.38,-0.198,0.012
2194.0,-9.592,-1.541,0.322,-0.38,-0.198,0.012
2198.0,-10.369,-1.561,0.427,-0.38,-0.198,-0.065
2202.0,-10.369,-1.561,0.427,-0.56,-0.133,-0.065
2206.0,-10.369,-1.561,0.427,-0.56,-0.133,-0.065
2210.0,-11.081,-1.698,0.665,-0.724,-0.091,-0.127
2214.0,-11.081,-1.698,0.665,-0.724,-0.091,-0.127
2219.0,-11.514,-1.91,0.864,-0.861,-0.093,-0.182
2223.0,-11.514,-1.91,0.864,-0.861,-0.093,-0.182
2227.0,-11.514,-2.125,0.985,-0.861,-0.093,-0.182
2231.0,-11.669,-2.125,0.985,-0.962,-0.119,-0.249
2235.0,-11.669,-2.125,0.985,-0.962,-0.119,-0.249
2239.0,-11.544,-2.29,1.037,-1.024,-0.152,-0.332
2244.0,-11.544,-2.29,1.037,-1.024,-0.152,-0.332
2248.0,-10.997,-2.353,0.98,-1.05,-0.188,-0.43
2252.0,-10.997,-2.353,0.98,-1.05,-0.188,-0.43
2256.0,-10.997,-2.353,0.98,-1.05,-0.188,-0.43
2260.0,-10.229,-2.328,0.872,-1.05,-0.215,-0.542
2264.0,-10.229,-2.328,0.872,-1.05,-0.215,-0.542
2269.0,-9.498,-2.24,0.785,-1.03,-0.221,-0.664
2273.0,-9.498,-2.24,0.785,-1.03,-0.221,-0.664
2277.0,-8.834,-2.16,0.747,-1.03,-0.221,-0.79
2281.0,-8.834,-2.16,0.747,-0.99,-0.211,-0.79
2285.0,-8.834,-2.16,0.747,-0.99,-0.211,-0.79
2289.0,-8.256,-2.098,0.702,-0.932,-0.194,-0.914
2293.0,-8.256,-2.098,0.702,-0.932,-0.194,-0.914
2297.0,-7.885,-2.042,0.695,-0.86,-0.166,-1.035
2301.0,-7.885,-2.042,0.695,-0.86,-0.166,-1.035
2305.0,-7.885,-2.042,0.695,-0.86,-0.166,-1.035
2309.0,-7.745,-2.031,0.756,-0.772,-0.128,-1.151
2313.0,-7.745,-2.031,0.756,-0.772,-0.128,-1.151
2318.0,-7.675,-2.028,0.83,-0.666,-0.094,-1.262
2322.0,-7.675,-2.028,0.83,-0.666,-0.094,-1.262
2326.0,-7.675,-2.012,0.886,-0.666,-0.094,-1.262
2330.0,-7.556,-2.012,0.886,-0.547,-0.074,-1.364
2334.0,-7.556,-2.012,0.886,-0.547,-0.074,-1.364
2338.0,-7.409,-2.017,0.896,-0.419,-0.063,-1.461
2342.0,-7.409,-2.017,0.896,-0.419,-0.063,-1.461
2346.0,-7.351,-2.004,0.827,-0.419,-0.048,-1.555
2350.0,-7.351,-2.004,0.827,-0.287,-0.048,-1.555
2354.0,-7.351,-2.004,0.827,-0.287,-0.048,-1.555
2358.0,-7.542,-2.004,0.71,-0.15,-0.015,-1.64
2362.0,-7.542,-2.004,0.71,-0.15,-0.015,-1.64
2367.0,-8.023,-1.991,0.601,-0.013,0.038,-1.706
2371.0,-8.023,-1.991,0.601,-0.013,0.038,-1.706
2375.0,-8.023,-1.991,0.601,-0.013,0.038,-1.706
2379.0,-8.801,-2.015,0.541,0.121,0.112,-1.742
2382.0,-8.801,-2.015,0.541,0.121,0.112,-1.742
2386.0,-9.811,-2.081,0.666,0.257,0.193,-1.739
2390.0,-9.811,-2.081,0.666,0.257,0.193,-1.739
2394.0,-9.811,-2.081,0.666,0.257,0.193,-1.739
2398.0,-10.633,-2.218,0.971,0.406,0.244,-1.692
2402.0,-10.633,-2.218,0.971,0.406,0.244,-1.692
2406.0,-10.669,-2.412,1.352,0.579,0.227,-1.606
2410.0,-10.669,-2.412,1.352,0.579,0.227,-1.606
2414.0,-10.669,-2.412,1.352,0.579,0.227,-1.606
2418.0,-9.76,-2.591,1.609,0.78,0.134,-1.509
2422.0,-9.76,-2.591,1.609,0.78,0.134,-1.509
2426.0,-8.487,-2.676,1.587,1.006,0.004,-1.44
2430.0,-8.487,-2.676,1.587,1.006,0.004,-1.44
2434.0,-8.487,-2.676,1.587,1.006,0.004,-1.44
2438.0,-7.493,-2.575,1.274,1.237,-0.106,-1.421
2442.0,-7.493,-2.575,1.274,1.237,-0.106,-1.421
2446.0,-7.08,-2.355,0.733,1.444,-0.161,-1.435
2450.0,-7.08,-2.355,0.733,1.444,-0.161,-1.435
2454.0,-7.08,-2.355,0.733,1.444,-0.161,-1.435
2458.0,-7.498,-2.067,0.226,1.605,-0.14,-1.447
2461.0,-7.498,-2.067,0.226,1.605,-0.14,-1.447
2465.0,-8.642,-1.835,-0.025,1.716,-0.055,-1.422
2470.0,-8.642,-1.835,-0.025,1.716,-0.055,-1.422
2474.0,-8.642,-1.835,0.065,1.716,-0.055,-1.422
2478.0,-10.113,-1.739,0.065,1.791,0.054,-1.342
2482.0,-10.113,-1.739,0.065,1.791,0.054,-1.342
2486.0,-11.525,-1.811,0.457,1.854,0.133,-1.206
2490.0,-11.525,-1.811,0.457,1.854,0.133,-1.206
2494.0,-12.477,-2.05,0.995,1.854,0.133,-1.206
2498.0,-12.477,-2.05,0.995,1.927,0.141,-1.028
2502.0,-12.477,-2.05,0.995,1.927,0.141,-1.028
2506.0,-12.7,-2.373,1.412,2.03,0.064,-0.845
2510.0,-12.7,-2.373,1.412,2.03,0.064,-0.845
2514.0,-12.541,-2.626,1.551,2.03,0.064,-0.845
2518.0,-12.541,-2.626,1.551,2.173,-0.067,-0.689
2522.0,-12.541,-2.626,1.551,2.173,-0.067,-0.689
2526.0,-12.453,-2.685,1.312,2.336,-0.204,-0.576
2530.0,-12.453,-2.685,1.312,2.336,-0.204,-0.576
2534.0,-12.608,-2.505,0.864,2.492,-0.311,-0.495
2538.0,-12.608,-2.505,0.864,2.492,-0.311,-0.495
2542.0,-12.608,-2.505,0.864,2.492,-0.311,-0.495
2546.0,-12.954,-2.196,0.488,2.609,-0.378,-0.417
2550.0,-12.954,-2.196,0.488,2.609,-0.378,-0.417
2554.0,-13.227,-1.866,0.229,2.677,-0.421,-0.329
2558.0,-13.227,-1.866,0.229,2.677,-0.421,-0.329
2562.0,-13.227,-1.866,0.045,2.677,-0.421,-0.329
2567.0,-13.374,-1.563,0.045,2.692,-0.452,-0.234
2571.0,-13.374,-1.563,0.045,2.692,-0.452,-0.234
2575.0,-13.36,-1.287,-0.05,2.66,-0.475,-0.138
2579.0,-13.36,-1.287,-0.05,2.66,-0.475,-0.138
2583.0,-13.238,-1.042,-0.112,2.66,-0.492,-0.048
2587.0,-13.238,-1.042,-0.112,2.588,-0.492,-0.048
2591.0,-13.238,-1.042,-0.112,2.588,-0.492,-0.048
2596.0,-12.966,-0.821,-0.108,2.481,-0.505,0.032
2600.0,-12.966,-0.821,-0.108,2.481,-0.505,0.032
2604.0,-12.464,-0.604,-0.042,2.343,-0.516,0.098
2608.0,-12.464,-0.604,-0.042,2.343,-0.516,0.098
2612.0,-12.464,-0.604,0.03,2.343,-0.516,0.098
2616.0,-11.874,-0.406,0.03,2.177,-0.525,0.149
2620.0,-11.874,-0.406,0.03,2.177,-0.525,0.149
2624.0,-11.348,-0.208,0.065,1.982,-0.519,0.185
2628.0,-11.348,-0.208,0.065,1.982,-0.519,0.185
2632.0,-10.906,-0.011,0.081,1.982,-0.519,0.185
2636.0,-10.906,-0.011,0.081,1.758,-0.491,0.209
2640.0,-10.906,-0.011,0.081,1.758,-0.491,0.209
2644.0,-10.512,0.187,0.142,1.503,-0.442,0.227
2648.0,-10.512,0.187,0.142,1.503,-0.442,0.227
2652.0,-10.174,0.316,0.243,1.503,-0.442,0.227
2656.0,-10.174,0.316,0.243,1.22,-0.373,0.241
2659.0,-10.174,0.316,0.243,1.22,-0.373,0.241
2663.0,-9.845,0.427,0.371,0.917,-0.291,0.255
2667.0,-9.845,0.427,0.371,0.917,-0.291,0.255
2671.0,-9.845,0.427,0.509,0.917,-0.291,0.255
2675.0,-9.5,0.482,0.509,0.598,-0.201,0.27
2679.0,-9.5,0.482,0.509,0.598,-0.201,0.27
2682.0,-9.168,0.476,0.693,0.276,-0.11,0.288
2686.0,-9.168,0.476,0.693,0.276,-0.11,0.288
2690.0,-9.168,0.476,0.693,0.276,-0.11,0.288
2694.0,-8.83,0.411,0.874,-0.036,-0.024,0.309
2698.0,-8.83,0.411,0.874,-0.036,-0.024,0.309
2702.0,-8.38,0.325,1.014,-0.327,0.045,0.333
2706.0,-8.38,0.325,1.014,-0.327,0.045,0.333
2709.0,-8.38,0.325,1.014,-0.327,0.045,0.333
2713.0,-7.957,0.2,1.106,-0.596,0.094,0.354
2717.0,-7.957,0.2,1.106,-0.596,0.094,0.354
2721.0,-7.725,0.041,1.161,-0.596,0.094,0.354
2725.0,-7.725,0.041,1.161,-0.834,0.138,0.369
2728.0,-7.725,0.041,1.161,-0.834,0.138,0.369
2732.0,-7.598,-0.11,1.111,-1.037,0.181,0.383
2736.0,-7.598,-0.11,1.111,-1.037,0.181,0.383
2740.0,-7.598,-0.11,1.06,-1.037,0.181,0.383
2744.0,-7.69,-0.22,1.06,-1.211,0.234,0.402
2748.0,-7.69,-0.22,1.06,-1.211,0.234,0.402
2752.0,-8.082,-0.323,1.108,-1.352,0.304,0.436
2756.0,-8.082,-0.323,1.108,-1.352,0.304,0.436
2760.0,-8.082,-0.323,1.108,-1.352,0.304,0.436
2763.0,-8.57,-0.465,1.272,-1.456,0.371,0.493
2767.0,-8.57,-0.465,1.272,-1.456,0.371,0.493
2771.0,-9.199,-0.644,1.574,-1.518,0.416,0.575
2775.0,-9.199,-0.644,1.574,-1.518,0.416,0.575
2779.0,-9.199,-0.644,1.574,-1.518,0.416,0.575
2783.0,-9.766,-0.872,1.85,-1.535,0.424,0.677
2787.0,-9.766,-0.872,1.85,-1.535,0.424,0.677
2791.0,-9.961,-1.126,2.103,-1.5,0.38,0.79
2795.0,-9.961,-1.126,2.103,-1.5,0.38,0.79
2799.0,-9.961,-1.126,2.103,-1.5,0.38,0.79
2803.0,-9.848,-1.342,2.269,-1.418,0.293,0.894
2806.0,-9.848,-1.342,2.269,-1.418,0.293,0.894
2810.0,-9.558,-1.474,2.299,-1.296,0.189,0.975
2814.0,-9.558,-1.474,2.299,-1.296,0.189,0.975
2818.0,-9.558,-1.474,2.299,-1.296,0.189,0.975
2822.0,-9.261,-1.492,2.244,-1.146,0.085,1.026
2826.0,-9.261,-1.492,2.244,-1.146,0.085,1.026
2830.0,-9.12,-1.439,2.086,-0.986,-0.001,1.054
2834.0,-9.12,-1.439,2.086,-0.986,-0.001,1.054
2838.0,-9.12,-1.439,2.086,-0.986,-0.001,1.054
2842.0,-9.195,-1.334,1.906,-0.824,-0.06,1.072
2846.0,-9.195,-1.334,1.906,-0.824,-0.06,1.072
2850.0,-9.455,-1.149,1.806,-0.672,-0.094,1.088
2854.0,-9.455,-1.149,1.806,-0.672,-0.094,1.088
2858.0,-9.455,-1.149,1.806,-0.672,-0.094,1.088
2862.0,-9.717,-0.96,1.767,-0.534,-0.115,1.112
2866.0,-9.717,-0.96,1.767,-0.534,-0.115,1.112
2870.0,-10.025,-0.824,1.772,-0.414,-0.13,1.137
2874.0,-10.025,-0.824,1.772,-0.414,-0.13,1.137
2878.0,-10.025,-0.824,1.772,-0.414,-0.13,1.137
2882.0,-10.358,-0.671,1.821,-0.311,-0.137,1.156
2886.0,-10.358,-0.671,1.821,-0.311,-0.137,1.156
2890.0,-10.569,-0.541,1.906,-0.23,-0.142,1.169
2894.0,-10.569,-0.541,1.906,-0.23,-0.142,1.169
2898.0,-10.691,-0.425,2.039,-0.23,-0.142,1.169
2902.0,-10.691,-0.425,2.039,-0.172,-0.145,1.18
2907.0,-10.691,-0.425,2.039,-0.172,-0.145,1.18
2911.0,-10.671,-0.299,2.144,-0.139,-0.145,1.186
2915.0,-10.671,-0.299,2.144,-0.139,-0.145,1.186
2919.0,-10.474,-0.15,2.247,-0.136,-0.143,1.186
2923.0,-10.474,-0.15,2.247,-0.136,-0.143,1.186
2927.0,-10.474,-0.15,2.247,-0.136,-0.143,1.186
2931.0,-10.146,-0.036,2.296,-0.165,-0.143,1.179
2935.0,-10.146,-0.036,2.296,-0.165,-0.143,1.179
2939.0,-9.82,0.05,2.293,-0.221,-0.134,1.164
2943.0,-9.82,0.05,2.293,-0.221,-0.134,1.164
2947.0,-9.82,0.05,2.293,-0.221,-0.134,1.164
2951.0,-9.54,0.138,2.272,-0.301,-0.114,1.139
2955.0,-9.54,0.138,2.272,-0.301,-0.114,1.139
2959.0,-9.251,0.198,2.173,-0.4,-0.089,1.111
2963.0,-9.251,0.198,2.173,-0.4,-0.089,1.111
2967.0,-9.251,0.198,2.173,-0.4,-0.089,1.111
2970.0,-9.065,0.215,2.089,-0.513,-0.057,1.086
2974.0,-9.065,0.215,2.089,-0.513,-0.057,1.086
2978.0,-8.958,0.174,1.981,-0.629,-0.017,1.064
2982.0,-8.958,0.174,1.981,-0.629,-0.017,1.064
2986.0,-8.958,0.174,1.981,-0.629,-0.017,1.064
2990.0,-8.911,0.087,1.872,-0.743,0.025,1.053
2994.0,-8.911,0.087,1.872,-0.743,0.025,1.053
2998.0,-9.014,-0.075,1.799,-0.743,0.069,1.051
