deltaTime,Acc_X,Acc_Y,Acc_Z,Gyro_X,Gyro_Y,Gyro_Z
0.0,-9.169,-2.057,1.163,-0.608,-0.021,-0.101
3.0,-9.169,-2.057,1.163,-0.608,-0.021,-0.101
6.0,-8.268,-1.83,1.007,-0.602,-0.062,-0.173
9.0,-8.268,-1.83,1.007,-0.602,-0.062,-0.173
12.0,-8.268,-1.83,1.007,-0.602,-0.062,-0.173
15.0,-7.898,-1.778,0.814,-0.602,-0.062,-0.238
18.0,-7.898,-1.778,0.814,-0.625,-0.054,-0.238
21.0,-7.898,-1.778,0.814,-0.625,-0.054,-0.238
24.0,-7.898,-1.778,0.814,-0.625,-0.054,-0.238
27.0,-7.982,-1.718,0.739,-0.662,-0.002,-0.293
30.0,-7.982,-1.718,0.739,-0.662,-0.002,-0.293
34.0,-7.982,-1.718,0.793,-0.662,-0.002,-0.293
38.0,-8.452,-1.6,0.793,-0.715,0.076,-0.334
41.0,-8.452,-1.6,0.793,-0.715,0.076,-0.334
45.0,-8.815,-1.435,0.932,-0.793,0.143,-0.351
49.0,-8.815,-1.435,0.932,-0.793,0.143,-0.351
53.0,-8.815,-1.435,0.932,-0.793,0.143,-0.351
57.0,-8.766,-1.275,1.132,-0.896,0.176,-0.341
61.0,-8.766,-1.275,1.132,-0.896,0.176,-0.341
64.0,-8.829,-1.148,1.444,-1.028,0.192,-0.323
68.0,-8.829,-1.148,1.444,-1.028,0.192,-0.323
72.0,-8.829,-1.148,1.444,-1.028,0.192,-0.323
76.0,-8.85,-1.15,1.796,-1.183,0.181,-0.312
80.0,-8.85,-1.15,1.796,-1.183,0.181,-0.312
83.0,-8.767,-1.245,2.072,-1.183,0.181,-0.312
87.0,-8.767,-1.245,2.072,-1.33,0.149,-0.308
91.0,-8.767,-1.245,2.072,-1.33,0.149,-0.308
95.0,-8.506,-1.36,2.131,-1.438,0.096,-0.312
99.0,-8.506,-1.36,2.131,-1.438,0.096,-0.312
103.0,-8.506,-1.36,2.131,-1.438,0.096,-0.312
106.0,-8.25,-1.414,2.11,-1.501,0.055,-0.308
110.0,-8.25,-1.414,2.11,-1.501,0.055,-0.308
114.0,-8.532,-1.504,2.236,-1.522,0.052,-0.289
118.0,-8.532,-1.504,2.236,-1.522,0.052,-0.289
122.0,-8.532,-1.504,2.236,-1.522,0.052,-0.289
126.0,-9.234,-1.86,2.481,-1.5,0.062,-0.256
130.0,-9.234,-1.86,2.481,-1.5,0.062,-0.256
134.0,-9.825,-2.168,2.702,-1.417,0.06,-0.204
138.0,-9.825,-2.168,2.702,-1.417,0.06,-0.204
142.0,-9.825,-2.168,2.702,-1.417,0.06,-0.204
146.0,-10.354,-2.162,3.212,-1.301,0.06,-0.146
150.0,-10.354,-2.162,3.212,-1.301,0.06,-0.146
153.0,-10.394,-2.14,3.715,-1.212,0.027,-0.09
157.0,-10.394,-2.14,3.715,-1.212,0.027,-0.09
161.0,-10.394,-2.14,3.715,-1.212,0.027,-0.09
165.0,-9.885,-2.523,3.873,-1.155,-0.057,-0.043
169.0,-9.885,-2.523,3.873,-1.155,-0.057,-0.043
173.0,-9.343,-2.937,3.916,-1.051,-0.135,-0.021
177.0,-9.343,-2.937,3.916,-1.051,-0.135,-0.021
181.0,-9.343,-2.937,3.916,-1.051,-0.135,-0.021
185.0,-9.275,-3.066,3.982,-0.873,-0.16,-0.012
189.0,-9.275,-3.066,3.982,-0.873,-0.16,-0.012
193.0,-9.294,-2.92,3.721,-0.673,-0.164,-0.009
197.0,-9.294,-2.92,3.721,-0.673,-0.164,-0.009
201.0,-9.294,-2.92,3.721,-0.673,-0.164,-0.009
205.0,-9.489,-2.72,3.364,-0.51,-0.159,-0.011
209.0,-9.489,-2.72,3.364,-0.51,-0.159,-0.011
213.0,-10.255,-2.905,3.269,-0.364,-0.133,-0.001
217.0,-10.255,-2.905,3.269,-0.364,-0.133,-0.001
222.0,-10.255,-3.135,3.158,-0.364,-0.133,-0.001
226.0,-11.013,-3.135,3.158,-0.191,-0.119,0.012
230.0,-11.013,-3.135,3.158,-0.191,-0.119,0.012
234.0,-11.244,-3.162,3.002,-0.003,-0.115,0.016
238.0,-11.244,-3.162,3.002,-0.003,-0.115,0.016
242.0,-11.154,-3.032,2.915,-0.003,-0.115,0.006
246.0,-11.154,-3.032,2.915,0.184,-0.119,0.006
250.0,-11.154,-3.032,2.915,0.184,-0.119,0.006
253.0,-11.032,-2.726,2.752,0.343,-0.13,-0.023
257.0,-11.032,-2.726,2.752,0.343,-0.13,-0.023
261.0,-11.054,-2.207,2.46,0.343,-0.13,-0.075
265.0,-11.054,-2.207,2.46,0.429,-0.154,-0.075
269.0,-11.054,-2.207,2.46,0.429,-0.154,-0.075
273.0,-11.069,-1.826,2.189,0.414,-0.214,-0.125
277.0,-11.069,-1.826,2.189,0.414,-0.214,-0.125
281.0,-11.36,-1.808,1.965,0.414,-0.287,-0.158
285.0,-11.36,-1.808,1.965,0.341,-0.287,-0.158
289.0,-11.36,-1.808,1.965,0.341,-0.287,-0.158
293.0,-11.559,-1.951,1.834,0.272,-0.349,-0.182
297.0,-11.559,-1.951,1.834,0.272,-0.349,-0.182
301.0,-11.35,-2.006,1.686,0.233,-0.405,-0.191
305.0,-11.35,-2.006,1.686,0.233,-0.405,-0.191
309.0,-11.35,-2.006,1.686,0.233,-0.405,-0.191
313.0,-10.687,-2.033,1.483,0.212,-0.457,-0.176
317.0,-10.687,-2.033,1.483,0.212,-0.457,-0.176
321.0,-10.014,-2.07,1.248,0.197,-0.493,-0.14
325.0,-10.014,-2.07,1.248,0.197,-0.493,-0.14
329.0,-10.014,-2.07,1.248,0.197,-0.493,-0.14
333.0,-9.441,-2.029,0.977,0.183,-0.504,-0.094
337.0,-9.441,-2.029,0.977,0.183,-0.504,-0.094
341.0,-9.0,-1.99,0.786,0.163,-0.495,-0.039
345.0,-9.0,-1.99,0.786,0.163,-0.495,-0.039
349.0,-9.0,-1.99,0.786,0.163,-0.495,-0.039
353.0,-8.755,-2.038,0.668,0.14,-0.471,0.028
357.0,-8.755,-2.038,0.668,0.14,-0.471,0.028
360.0,-8.788,-2.054,0.675,0.117,-0.425,0.12
364.0,-8.788,-2.054,0.675,0.117,-0.425,0.12
368.0,-8.788,-2.054,0.675,0.117,-0.425,0.12
372.0,-9.041,-2.045,0.715,0.092,-0.371,0.25
376.0,-9.041,-2.045,0.715,0.092,-0.371,0.25
380.0,-9.452,-2.16,0.871,0.092,-0.371,0.25
383.0,-9.452,-2.16,0.871,0.054,-0.32,0.417
387.0,-9.452,-2.16,0.871,0.054,-0.32,0.417
391.0,-9.785,-2.388,1.044,0.002,-0.294,0.601
395.0,-9.785,-2.388,1.044,0.002,-0.294,0.601
399.0,-9.785,-2.388,1.044,0.002,-0.294,0.601
402.0,-9.968,-2.631,1.113,-0.067,-0.291,0.781
406.0,-9.968,-2.631,1.113,-0.067,-0.291,0.781
410.0,-9.929,-2.803,1.097,-0.156,-0.298,0.942
414.0,-9.929,-2.803,1.097,-0.156,-0.298,0.942
418.0,-9.929,-2.803,1.097,-0.156,-0.298,0.942
422.0,-9.702,-2.892,0.99,-0.27,-0.302,1.076
426.0,-9.702,-2.892,0.99,-0.27,-0.302,1.076
430.0,-9.391,-2.93,0.864,-0.411,-0.284,1.175
434.0,-9.391,-2.93,0.864,-0.411,-0.284,1.175
438.0,-9.391,-2.93,0.864,-0.411,-0.284,1.175
442.0,-9.038,-2.914,0.754,-0.567,-0.244,1.237
445.0,-9.038,-2.914,0.754,-0.567,-0.244,1.237
449.0,-8.814,-2.906,0.695,-0.728,-0.189,1.26
453.0,-8.814,-2.906,0.695,-0.728,-0.189,1.26
457.0,-8.814,-2.906,0.695,-0.728,-0.189,1.26
461.0,-8.75,-2.885,0.72,-0.886,-0.131,1.246
465.0,-8.75,-2.885,0.72,-0.886,-0.131,1.246
469.0,-8.76,-2.87,0.787,-0.886,-0.091,1.201
473.0,-8.76,-2.87,0.787,-1.025,-0.091,1.201
477.0,-8.76,-2.87,0.787,-1.025,-0.091,1.201
481.0,-8.673,-2.854,0.747,-1.136,-0.077,1.126
484.0,-8.673,-2.854,0.747,-1.136,-0.077,1.126
488.0,-8.49,-2.832,0.698,-1.136,-0.077,1.032
492.0,-8.49,-2.832,0.698,-1.216,-0.077,1.032
496.0,-8.49,-2.832,0.698,-1.216,-0.077,1.032
500.0,-8.241,-2.786,0.59,-1.259,-0.081,0.924
504.0,-8.241,-2.786,0.59,-1.259,-0.081,0.924
508.0,-8.027,-2.699,0.437,-1.259,-0.081,0.924
512.0,-8.027,-2.699,0.437,-1.27,-0.078,0.815
516.0,-8.027,-2.699,0.437,-1.27,-0.078,0.815
520.0,-7.886,-2.593,0.319,-1.254,-0.057,0.711
524.0,-7.886,-2.593,0.319,-1.254,-0.057,0.711
527.0,-7.886,-2.593,0.266,-1.254,-0.057,0.711
531.0,-7.918,-2.563,0.266,-1.214,-0.019,0.625
535.0,-7.918,-2.563,0.266,-1.214,-0.019,0.625
539.0,-8.11,-2.637,0.29,-1.15,0.027,0.564
543.0,-8.11,-2.637,0.29,-1.15,0.027,0.564
547.0,-8.11,-2.637,0.29,-1.15,0.027,0.564
551.0,-8.38,-2.8,0.347,-1.061,0.064,0.53
554.0,-8.38,-2.8,0.347,-1.061,0.064,0.53
558.0,-8.597,-2.992,0.407,-0.953,0.089,0.52
562.0,-8.597,-2.992,0.407,-0.953,0.089,0.52
566.0,-8.597,-2.992,0.407,-0.953,0.089,0.52
570.0,-8.717,-3.161,0.447,-0.832,0.099,0.525
574.0,-8.717,-3.161,0.447,-0.832,0.099,0.525
577.0,-8.739,-3.327,0.455,-0.832,0.099,0.537
581.0,-8.739,-3.327,0.455,-0.706,0.101,0.537
585.0,-8.739,-3.327,0.455,-0.706,0.101,0.537
589.0,-8.627,-3.434,0.446,-0.579,0.101,0.543
593.0,-8.627,-3.434,0.446,-0.579,0.101,0.543
596.0,-8.627,-3.434,0.431,-0.579,0.101,0.543
600.0,-8.418,-3.471,0.431,-0.45,0.102,0.538
604.0,-8.418,-3.471,0.431,-0.45,0.102,0.538
608.0,-8.158,-3.404,0.434,-0.321,0.104,0.518
612.0,-8.158,-3.404,0.434,-0.321,0.104,0.518
616.0,-8.158,-3.404,0.434,-0.321,0.104,0.518
619.0,-7.884,-3.279,0.422,-0.193,0.107,0.49
623.0,-7.884,-3.279,0.422,-0.193,0.107,0.49
627.0,-7.641,-3.115,0.398,-0.064,0.115,0.459
631.0,-7.641,-3.115,0.398,-0.064,0.115,0.459
635.0,-7.641,-3.115,0.398,-0.064,0.115,0.459
638.0,-7.477,-2.929,0.37,0.067,0.129,0.428
642.0,-7.477,-2.929,0.37,0.067,0.129,0.428
646.0,-7.477,-2.757,0.305,0.067,0.129,0.428
650.0,-7.478,-2.757,0.305,0.201,0.154,0.402
653.0,-7.478,-2.757,0.305,0.201,0.154,0.402
657.0,-7.772,-2.62,0.243,0.337,0.198,0.388
661.0,-7.772,-2.62,0.243,0.337,0.198,0.388
665.0,-7.772,-2.62,0.243,0.337,0.198,0.388
668.0,-8.393,-2.58,0.2,0.473,0.257,0.389
672.0,-8.393,-2.58,0.2,0.473,0.257,0.389
676.0,-9.313,-2.626,0.267,0.473,0.257,0.389
680.0,-9.313,-2.626,0.267,0.607,0.318,0.411
683.0,-9.313,-2.626,0.267,0.607,0.318,0.411
687.0,-10.368,-2.706,0.31,0.738,0.36,0.45
691.0,-10.368,-2.706,0.31,0.738,0.36,0.45
695.0,-10.368,-2.706,0.31,0.738,0.36,0.45
698.0,-11.598,-2.754,0.337,0.857,0.38,0.497
702.0,-11.598,-2.754,0.337,0.857,0.38,0.497
706.0,-12.706,-2.765,0.368,0.957,0.367,0.55
710.0,-12.706,-2.765,0.368,0.957,0.367,0.55
714.0,-12.706,-2.765,0.368,0.957,0.367,0.55
718.0,-13.336,-2.732,0.337,1.031,0.313,0.606
721.0,-13.336,-2.732,0.337,1.031,0.313,0.606
725.0,-13.307,-2.654,0.221,1.031,0.313,0.606
729.0,-13.307,-2.654,0.221,1.076,0.228,0.661
733.0,-13.307,-2.654,0.221,1.076,0.228,0.661
737.0,-13.034,-2.559,0.092,1.091,0.143,0.705
740.0,-13.034,-2.559,0.092,1.091,0.143,0.705
744.0,-13.034,-2.559,0.092,1.091,0.143,0.705
748.0,-12.666,-2.423,-0.09,1.085,0.073,0.739
752.0,-12.666,-2.423,-0.09,1.085,0.073,0.739
756.0,-12.308,-2.219,-0.325,1.053,0.023,0.768
760.0,-12.308,-2.219,-0.325,1.053,0.023,0.768
764.0,-12.308,-2.219,-0.325,1.053,0.023,0.768
768.0,-12.205,-2.024,-0.444,0.994,-0.002,0.797
772.0,-12.205,-2.024,-0.444,0.994,-0.002,0.797
776.0,-12.499,-1.877,-0.502,0.909,-0.003,0.828
780.0,-12.499,-1.877,-0.502,0.909,-0.003,0.828
784.0,-12.499,-1.877,-0.502,0.909,-0.003,0.828
788.0,-13.143,-1.784,-0.511,0.805,0.016,0.865
792.0,-13.143,-1.784,-0.511,0.805,0.016,0.865
795.0,-13.889,-1.724,-0.499,0.683,0.037,0.91
799.0,-13.889,-1.724,-0.499,0.683,0.037,0.91
803.0,-13.889,-1.724,-0.499,0.683,0.037,0.91
807.0,-14.478,-1.676,-0.453,0.545,0.052,0.965
811.0,-14.478,-1.676,-0.453,0.545,0.052,0.965
815.0,-14.977,-1.684,-0.27,0.391,0.07,1.021
819.0,-14.977,-1.684,-0.27,0.391,0.07,1.021
823.0,-14.977,-1.684,-0.27,0.391,0.07,1.021
827.0,-15.206,-1.657,-0.016,0.232,0.089,1.068
831.0,-15.206,-1.657,-0.016,0.232,0.089,1.068
834.0,-14.852,-1.621,0.3,0.072,0.095,1.104
838.0,-14.852,-1.621,0.3,0.072,0.095,1.104
842.0,-14.852,-1.621,0.3,0.072,0.095,1.104
846.0,-13.79,-1.564,0.57,-0.083,0.078,1.122
850.0,-13.79,-1.564,0.57,-0.083,0.078,1.122
854.0,-12.542,-1.467,0.706,-0.083,0.078,1.106
858.0,-12.542,-1.467,0.706,-0.225,0.048,1.106
862.0,-12.542,-1.467,0.706,-0.225,0.048,1.106
865.0,-11.448,-1.339,0.711,-0.355,0.027,1.047
869.0,-11.448,-1.339,0.711,-0.355,0.027,1.047
873.0,-10.752,-1.184,0.683,-0.355,0.027,1.047
877.0,-10.752,-1.184,0.683,-0.469,0.025,0.949
881.0,-10.752,-1.184,0.683,-0.469,0.025,0.949
885.0,-10.418,-1.01,0.642,-0.571,0.042,0.824
889.0,-10.418,-1.01,0.642,-0.571,0.042,0.824
893.0,-10.418,-0.86,0.657,-0.571,0.042,0.824
897.0,-10.372,-0.86,0.657,-0.663,0.067,0.689
901.0,-10.372,-0.86,0.657,-0.663,0.067,0.689
905.0,-10.412,-0.748,0.726,-0.742,0.083,0.56
908.0,-10.412,-0.748,0.726,-0.742,0.083,0.56
912.0,-10.412,-0.748,0.878,-0.742,0.083,0.56
916.0,-10.27,-0.721,0.878,-0.806,0.077,0.443
920.0,-10.27,-0.721,0.878,-0.806,0.077,0.443
924.0,-9.821,-0.799,1.056,-0.842,0.041,0.335
928.0,-9.821,-0.799,1.056,-0.842,0.041,0.335
932.0,-9.821,-0.799,1.056,-0.842,0.041,0.335
936.0,-9.136,-0.976,1.208,-0.842,-0.019,0.223
939.0,-9.136,-0.976,1.208,-0.842,-0.019,0.223
943.0,-8.371,-1.136,1.262,-0.801,-0.087,0.091
947.0,-8.371,-1.136,1.262,-0.801,-0.087,0.091
951.0,-8.371,-1.136,1.262,-0.801,-0.087,0.091
955.0,-7.79,-1.234,1.257,-0.726,-0.147,-0.066
959.0,-7.79,-1.234,1.257,-0.726,-0.147,-0.066
963.0,-7.692,-1.202,1.193,-0.625,-0.186,-0.243
967.0,-7.692,-1.202,1.193,-0.625,-0.186,-0.243
971.0,-7.692,-1.202,1.193,-0.625,-0.186,-0.243
975.0,-8.125,-1.058,1.058,-0.513,-0.198,-0.425
979.0,-8.125,-1.058,1.058,-0.513,-0.198,-0.425
983.0,-8.803,-0.803,0.993,-0.404,-0.199,-0.59
987.0,-8.803,-0.803,0.993,-0.404,-0.199,-0.59
991.0,-8.803,-0.803,0.993,-0.404,-0.199,-0.59
995.0,-9.494,-0.598,1.107,-0.318,-0.208,-0.723
999.0,-9.494,-0.598,1.107,-0.318,-0.208,-0.723
1003.0,-9.851,-0.488,1.338,-0.243,-0.24,-0.812
1007.0,-9.851,-0.488,1.338,-0.243,-0.24,-0.812
1011.0,-9.851,-0.488,1.595,-0.243,-0.24,-0.812
1015.0,-9.778,-0.422,1.595,-0.175,-0.297,-0.872
1019.0,-9.778,-0.422,1.595,-0.175,-0.297,-0.872
1023.0,-9.386,-0.361,1.878,-0.111,-0.369,-0.91
1027.0,-9.386,-0.361,1.878,-0.111,-0.369,-0.91
1032.0,-8.865,-0.307,2.059,-0.111,-0.449,-0.932
1036.0,-8.865,-0.307,2.059,-0.048,-0.449,-0.932
1040.0,-8.865,-0.307,2.059,-0.048,-0.449,-0.932
1044.0,-8.414,-0.191,2.101,0.011,-0.525,-0.944
1048.0,-8.414,-0.191,2.101,0.011,-0.525,-0.944
1052.0,-8.118,-0.018,2.024,0.067,-0.586,-0.945
1056.0,-8.118,-0.018,2.024,0.067,-0.586,-0.945
1060.0,-8.118,-0.018,2.024,0.067,-0.586,-0.945
1064.0,-7.934,0.216,1.812,0.11,-0.634,-0.929
1068.0,-7.934,0.216,1.812,0.11,-0.634,-0.929
1072.0,-7.987,0.449,1.549,0.134,-0.659,-0.887
1075.0,-7.987,0.449,1.549,0.134,-0.659,-0.887
1079.0,-7.987,0.449,1.549,0.134,-0.659,-0.887
1083.0,-8.081,0.648,1.365,0.136,-0.66,-0.82
1087.0,-8.081,0.648,1.365,0.136,-0.66,-0.82
1091.0,-8.179,0.78,1.195,0.116,-0.653,-0.733
1095.0,-8.179,0.78,1.195,0.116,-0.653,-0.733
1099.0,-8.179,0.78,1.195,0.116,-0.653,-0.733
1103.0,-8.371,0.869,1.068,0.078,-0.633,-0.64
1107.0,-8.371,0.869,1.068,0.078,-0.633,-0.64
1111.0,-8.445,0.97,1.053,0.078,-0.599,-0.55
1115.0,-8.445,0.97,1.053,0.029,-0.599,-0.55
1118.0,-8.445,0.97,1.053,0.029,-0.599,-0.55
1122.0,-8.324,1.067,1.112,-0.03,-0.573,-0.471
1126.0,-8.324,1.067,1.112,-0.03,-0.573,-0.471
1130.0,-8.191,1.191,1.207,-0.03,-0.546,-0.414
1134.0,-8.191,1.191,1.207,-0.097,-0.546,-0.414
1138.0,-8.191,1.191,1.207,-0.097,-0.546,-0.414
1142.0,-7.988,1.293,1.312,-0.166,-0.514,-0.383
1146.0,-7.988,1.293,1.312,-0.166,-0.514,-0.383
1150.0,-7.865,1.42,1.416,-0.238,-0.482,-0.37
1154.0,-7.865,1.42,1.416,-0.238,-0.482,-0.37
1158.0,-7.865,1.42,1.416,-0.238,-0.482,-0.37
1162.0,-7.775,1.548,1.476,-0.307,-0.446,-0.363
1166.0,-7.775,1.548,1.476,-0.307,-0.446,-0.363
1170.0,-7.621,1.613,1.518,-0.378,-0.417,-0.351
1174.0,-7.621,1.613,1.518,-0.378,-0.417,-0.351
1178.0,-7.621,1.613,1.518,-0.378,-0.417,-0.351
1182.0,-7.496,1.63,1.537,-0.45,-0.397,-0.337
1186.0,-7.496,1.63,1.537,-0.45,-0.397,-0.337
1190.0,-7.378,1.615,1.516,-0.523,-0.381,-0.322
1194.0,-7.378,1.615,1.516,-0.523,-0.381,-0.322
1198.0,-7.378,1.615,1.516,-0.523,-0.381,-0.322
1202.0,-7.279,1.546,1.407,-0.599,-0.368,-0.305
1206.0,-7.279,1.546,1.407,-0.599,-0.368,-0.305
1210.0,-7.211,1.471,1.239,-0.684,-0.348,-0.282
1214.0,-7.211,1.471,1.239,-0.684,-0.348,-0.282
1218.0,-7.211,1.471,1.239,-0.684,-0.348,-0.282
1222.0,-7.156,1.341,1.06,-0.779,-0.315,-0.251
1226.0,-7.156,1.341,1.06,-0.779,-0.315,-0.251
1230.0,-7.272,1.236,1.006,-0.888,-0.263,-0.21
1234.0,-7.272,1.236,1.006,-0.888,-0.263,-0.21
1238.0,-7.272,1.236,1.0,-0.888,-0.263,-0.21
1242.0,-7.475,1.113,1.0,-1.009,-0.204,-0.161
1246.0,-7.475,1.113,1.0,-1.009,-0.204,-0.161
1250.0,-7.698,0.979,1.016,-1.14,-0.148,-0.103
1254.0,-7.698,0.979,1.016,-1.14,-0.148,-0.103
1258.0,-7.698,0.852,1.088,-1.14,-0.148,-0.103
1262.0,-7.892,0.852,1.088,-1.279,-0.096,-0.041
1266.0,-7.892,0.852,1.088,-1.279,-0.096,-0.041
1270.0,-7.962,0.724,1.171,-1.421,-0.057,0.019
1274.0,-7.962,0.724,1.171,-1.421,-0.057,0.019
1278.0,-7.971,0.601,1.225,-1.421,-0.057,0.019
1282.0,-7.971,0.601,1.225,-1.561,-0.026,0.073
1286.0,-7.971,0.601,1.225,-1.561,-0.026,0.073
1290.0,-7.962,0.48,1.243,-1.697,0.006,0.122
1293.0,-7.962,0.48,1.243,-1.697,0.006,0.122
1297.0,-7.962,0.48,1.315,-1.697,0.006,0.122
1301.0,-7.887,0.377,1.315,-1.823,0.043,0.173
1305.0,-7.887,0.377,1.315,-1.823,0.043,0.173
1309.0,-7.722,0.275,1.316,-1.939,0.08,0.236
1313.0,-7.722,0.275,1.316,-1.939,0.08,0.236
1316.0,-7.722,0.275,1.316,-1.939,0.08,0.236
1320.0,-7.521,0.135,1.328,-2.049,0.128,0.31
1324.0,-7.521,0.135,1.328,-2.049,0.128,0.31
1328.0,-7.247,0.002,1.35,-2.049,0.186,0.392
1332.0,-7.247,0.002,1.35,-2.152,0.186,0.392
1335.0,-7.247,0.002,1.35,-2.152,0.186,0.392
1339.0,-6.984,-0.15,1.329,-2.247,0.251,0.479
1343.0,-6.984,-0.15,1.329,-2.247,0.251,0.479
1347.0,-6.8,-0.302,1.364,-2.247,0.251,0.479
1351.0,-6.8,-0.302,1.364,-2.336,0.331,0.566
1355.0,-6.8,-0.302,1.364,-2.336,0.331,0.566
1359.0,-6.578,-0.431,1.47,-2.414,0.411,0.646
1363.0,-6.578,-0.431,1.47,-2.414,0.411,0.646
1367.0,-6.578,-0.559,1.566,-2.414,0.411,0.646
1370.0,-6.34,-0.559,1.566,-2.479,0.478,0.715
1374.0,-6.34,-0.559,1.566,-2.479,0.478,0.715
1378.0,-6.221,-0.654,1.636,-2.524,0.545,0.765
1382.0,-6.221,-0.654,1.636,-2.524,0.545,0.765
1386.0,-6.221,-0.654,1.683,-2.524,0.545,0.765
1390.0,-6.15,-0.735,1.683,-2.549,0.615,0.795
1394.0,-6.15,-0.735,1.683,-2.549,0.615,0.795
1398.0,-6.097,-0.808,1.723,-2.555,0.685,0.813
1402.0,-6.097,-0.808,1.723,-2.555,0.685,0.813
1406.0,-6.097,-0.808,1.723,-2.555,0.685,0.813
1410.0,-6.132,-0.879,1.786,-2.538,0.757,0.827
1413.0,-6.132,-0.879,1.786,-2.538,0.757,0.827
1417.0,-6.259,-0.999,1.879,-2.498,0.833,0.844
1421.0,-6.259,-0.999,1.879,-2.498,0.833,0.844
1425.0,-6.259,-0.999,1.879,-2.498,0.833,0.844
1429.0,-6.402,-1.117,2.09,-2.43,0.909,0.864
1433.0,-6.402,-1.117,2.09,-2.43,0.909,0.864
1437.0,-6.61,-1.256,2.33,-2.327,0.974,0.885
1441.0,-6.61,-1.256,2.33,-2.327,0.974,0.885
1445.0,-6.61,-1.256,2.33,-2.327,0.974,0.885
1449.0,-6.997,-1.399,2.679,-2.184,1.031,0.9
1453.0,-6.997,-1.399,2.679,-2.184,1.031,0.9
1456.0,-7.524,-1.563,3.056,-1.997,1.071,0.908
1460.0,-7.524,-1.563,3.056,-1.997,1.071,0.908
1464.0,-7.524,-1.563,3.056,-1.997,1.071,0.908
1468.0,-8.246,-1.735,3.324,-1.765,1.09,0.911
1472.0,-8.246,-1.735,3.324,-1.765,1.09,0.911
1476.0,-9.124,-1.893,3.575,-1.494,1.105,0.911
1480.0,-9.124,-1.893,3.575,-1.494,1.105,0.911
1484.0,-9.124,-1.893,3.575,-1.494,1.105,0.911
1488.0,-10.077,-2.005,3.853,-1.19,1.113,0.912
1492.0,-10.077,-2.005,3.853,-1.19,1.113,0.912
1496.0,-11.051,-2.131,3.977,-0.862,1.109,0.917
1500.0,-11.051,-2.131,3.977,-0.862,1.109,0.917
1504.0,-11.051,-2.131,3.977,-0.862,1.109,0.917
1508.0,-12.103,-2.134,4.067,-0.522,1.111,0.916
1512.0,-12.103,-2.134,4.067,-0.522,1.111,0.916
1516.0,-13.044,-2.028,4.265,-0.183,1.118,0.906
1520.0,-13.044,-2.028,4.265,-0.183,1.118,0.906
1524.0,-13.044,-2.028,4.265,-0.183,1.118,0.906
1528.0,-13.783,-1.847,4.369,0.144,1.11,0.881
1532.0,-13.783,-1.847,4.369,0.144,1.11,0.881
1535.0,-14.425,-1.626,4.323,0.441,1.095,0.831
1539.0,-14.425,-1.626,4.323,0.441,1.095,0.831
1543.0,-14.425,-1.626,4.323,0.441,1.095,0.831
1547.0,-14.837,-1.29,4.389,0.705,1.08,0.75
1551.0,-14.837,-1.29,4.389,0.705,1.08,0.75
1555.0,-15.044,-0.982,4.424,0.925,1.054,0.641
1559.0,-15.044,-0.982,4.424,0.925,1.054,0.641
1563.0,-15.044,-0.982,4.424,0.925,1.054,0.641
1567.0,-15.173,-0.664,4.484,1.105,1.02,0.493
1571.0,-15.173,-0.664,4.484,1.105,1.02,0.493
1574.0,-15.108,-0.28,4.615,1.105,0.974,0.306
1578.0,-15.108,-0.28,4.615,1.259,0.974,0.306
1582.0,-15.108,-0.28,4.615,1.259,0.974,0.306
1586.0,-14.941,0.27,4.608,1.374,0.917,0.093
1590.0,-14.941,0.27,4.608,1.374,0.917,0.093
1594.0,-14.796,0.997,4.683,1.374,0.917,0.093
1598.0,-14.796,0.997,4.683,1.418,0.879,-0.125
1602.0,-14.796,0.997,4.683,1.418,0.879,-0.125
1605.0,-14.883,1.53,4.645,1.373,0.85,-0.331
1609.0,-14.883,1.53,4.645,1.373,0.85,-0.331
1613.0,-14.883,1.53,4.749,1.373,0.85,-0.331
1617.0,-15.098,2.057,4.749,1.255,0.822,-0.509
1621.0,-15.098,2.057,4.749,1.255,0.822,-0.509
1625.0,-15.231,2.006,4.673,1.08,0.774,-0.649
1629.0,-15.231,2.006,4.673,1.08,0.774,-0.649
1633.0,-15.231,2.006,4.673,1.08,0.774,-0.649
1637.0,-15.198,1.64,4.543,0.911,0.695,-0.749
1641.0,-15.198,1.64,4.543,0.911,0.695,-0.749
1645.0,-14.798,1.075,4.534,0.795,0.612,-0.82
1648.0,-14.798,1.075,4.534,0.795,0.612,-0.82
1652.0,-14.798,1.075,4.534,0.795,0.612,-0.82
1656.0,-14.103,0.345,4.446,0.756,0.51,-0.866
1660.0,-14.103,0.345,4.446,0.756,0.51,-0.866
1664.0,-13.174,-0.237,4.242,0.801,0.383,-0.901
1668.0,-13.174,-0.237,4.242,0.801,0.383,-0.901
1672.0,-13.174,-0.237,4.242,0.801,0.383,-0.901
1676.0,-12.495,-0.61,3.954,0.898,0.258,-0.948
1680.0,-12.495,-0.61,3.954,0.898,0.258,-0.948
1684.0,-12.243,-0.754,3.547,1.023,0.141,-1.017
1688.0,-12.243,-0.754,3.547,1.023,0.141,-1.017
1692.0,-12.243,-0.754,3.547,1.023,0.141,-1.017
1696.0,-12.246,-0.685,3.044,1.141,0.03,-1.096
1700.0,-12.246,-0.685,3.044,1.141,0.03,-1.096
1704.0,-12.342,-0.499,2.64,1.227,-0.083,-1.159
1708.0,-12.342,-0.499,2.64,1.227,-0.083,-1.159
1712.0,-12.342,-0.279,2.407,1.227,-0.083,-1.159
1716.0,-12.324,-0.279,2.407,1.279,-0.195,-1.195
1720.0,-12.324,-0.279,2.407,1.279,-0.195,-1.195
1724.0,-11.883,-0.095,2.338,1.305,-0.318,-1.197
1728.0,-11.883,-0.095,2.338,1.305,-0.318,-1.197
1733.0,-11.174,0.016,2.31,1.313,-0.452,-1.174
1737.0,-11.174,0.016,2.31,1.313,-0.452,-1.174
1741.0,-11.174,0.016,2.31,1.313,-0.452,-1.174
1745.0,-10.647,0.042,2.143,1.303,-0.584,-1.134
1749.0,-10.647,0.042,2.143,1.303,-0.584,-1.134
1753.0,-10.501,0.033,1.807,1.28,-0.69,-1.079
1757.0,-10.501,0.033,1.807,1.28,-0.69,-1.079
1761.0,-10.501,0.033,1.807,1.28,-0.69,-1.079
1765.0,-10.893,0.01,1.371,1.231,-0.761,-1.004
1768.0,-10.893,0.01,1.371,1.231,-0.761,-1.004
1772.0,-11.622,-0.059,0.981,1.144,-0.799,-0.899
1777.0,-11.622,-0.059,0.981,1.144,-0.799,-0.899
1781.0,-11.622,-0.059,0.981,1.144,-0.799,-0.899
1785.0,-12.357,-0.194,0.7,1.019,-0.82,-0.758
1789.0,-12.357,-0.194,0.7,1.019,-0.82,-0.758
1793.0,-12.897,-0.364,0.52,0.861,-0.838,-0.586
1797.0,-12.897,-0.364,0.52,0.861,-0.838,-0.586
1801.0,-13.24,-0.568,0.468,0.861,-0.838,-0.586
1805.0,-13.24,-0.568,0.468,0.68,-0.862,-0.398
1809.0,-13.24,-0.568,0.468,0.68,-0.862,-0.398
1813.0,-13.355,-0.806,0.44,0.488,-0.9,-0.218
1817.0,-13.355,-0.806,0.44,0.488,-0.9,-0.218
1821.0,-13.304,-1.006,0.343,0.298,-0.959,-0.065
1826.0,-13.304,-1.006,0.343,0.298,-0.959,-0.065
1830.0,-13.304,-1.006,0.343,0.298,-0.959,-0.065
1834.0,-13.228,-1.114,0.172,0.114,-1.03,0.044
1838.0,-13.228,-1.114,0.172,0.114,-1.03,0.044
1842.0,-13.207,-1.105,-0.065,-0.063,-1.097,0.112
1846.0,-13.207,-1.105,-0.065,-0.063,-1.097,0.112
1850.0,-13.207,-1.105,-0.065,-0.063,-1.097,0.112
1854.0,-13.046,-1.008,-0.331,-0.235,-1.15,0.149
1858.0,-13.046,-1.008,-0.331,-0.235,-1.15,0.149
1863.0,-12.715,-0.882,-0.56,-0.403,-1.178,0.164
1867.0,-12.715,-0.882,-0.56,-0.403,-1.178,0.164
1871.0,-12.372,-0.793,-0.707,-0.568,-1.176,0.162
1875.0,-12.372,-0.793,-0.707,-0.568,-1.176,0.162
1879.0,-12.372,-0.793,-0.707,-0.568,-1.176,0.162
1883.0,-12.047,-0.751,-0.785,-0.724,-1.144,0.143
1888.0,-12.047,-0.751,-0.785,-0.724,-1.144,0.143
1892.0,-11.699,-0.738,-0.765,-0.861,-1.095,0.11
1896.0,-11.699,-0.738,-0.765,-0.861,-1.095,0.11
1900.0,-11.351,-0.781,-0.669,-0.861,-1.095,0.11
1904.0,-11.351,-0.781,-0.669,-0.972,-1.04,0.065
1908.0,-11.351,-0.781,-0.669,-0.972,-1.04,0.065
1913.0,-10.974,-0.836,-0.517,-1.055,-0.984,0.013
1917.0,-10.974,-0.836,-0.517,-1.055,-0.984,0.013
1921.0,-10.604,-0.938,-0.336,-1.109,-0.934,-0.041
1925.0,-10.604,-0.938,-0.336,-1.109,-0.934,-0.041
1929.0,-10.604,-1.033,-0.135,-1.109,-0.934,-0.041
1934.0,-10.222,-1.033,-0.135,-1.134,-0.892,-0.098
1938.0,-10.222,-1.033,-0.135,-1.134,-0.892,-0.098
1942.0,-9.781,-1.159,0.008,-1.135,-0.861,-0.154
1946.0,-9.781,-1.159,0.008,-1.135,-0.861,-0.154
1950.0,-9.397,-1.289,0.068,-1.114,-0.834,-0.214
1954.0,-9.397,-1.289,0.068,-1.114,-0.834,-0.214
1958.0,-9.397,-1.289,0.068,-1.114,-0.834,-0.214
1963.0,-8.993,-1.423,0.106,-1.074,-0.807,-0.279
1967.0,-8.993,-1.423,0.106,-1.074,-0.807,-0.279
1971.0,-8.578,-1.521,0.112,-1.017,-0.782,-0.349
1975.0,-8.578,-1.521,0.112,-1.017,-0.782,-0.349
1979.0,-8.17,-1.591,0.108,-1.017,-0.782,-0.349
1983.0,-8.17,-1.591,0.108,-0.947,-0.754,-0.421
1987.0,-8.17,-1.591,0.108,-0.947,-0.754,-0.421
1991.0,-7.743,-1.658,0.108,-0.862,-0.721,-0.488
1995.0,-7.743,-1.658,0.108,-0.862,-0.721,-0.488
1999.0,-7.348,-1.689,0.136,-0.758,-0.684,-0.551
2003.0,-7.348,-1.689,0.136,-0.758,-0.684,-0.551
2007.0,-7.348,-1.689,0.136,-0.758,-0.684,-0.551
2011.0,-6.966,-1.756,0.21,-0.633,-0.647,-0.608
2016.0,-6.966,-1.756,0.21,-0.633,-0.647,-0.608
2020.0,-6.594,-1.794,0.209,-0.489,-0.614,-0.66
2024.0,-6.594,-1.794,0.209,-0.489,-0.614,-0.66
2028.0,-6.594,-1.794,0.257,-0.489,-0.614,-0.66
2032.0,-6.291,-1.807,0.257,-0.328,-0.577,-0.709
2036.0,-6.291,-1.807,0.257,-0.328,-0.577,-0.709
2040.0,-6.106,-1.81,0.273,-0.156,-0.537,-0.751
2044.0,-6.106,-1.81,0.273,-0.156,-0.537,-0.751
2048.0,-5.972,-1.786,0.321,-0.156,-0.537,-0.778
2052.0,-5.972,-1.786,0.321,0.022,-0.493,-0.778
2056.0,-5.972,-1.786,0.321,0.022,-0.493,-0.778
2060.0,-5.835,-1.751,0.44,0.203,-0.455,-0.79
2064.0,-5.835,-1.751,0.44,0.203,-0.455,-0.79
2068.0,-5.575,-1.725,0.623,0.383,-0.436,-0.793
2072.0,-5.575,-1.725,0.623,0.383,-0.436,-0.793
2076.0,-5.575,-1.725,0.623,0.383,-0.436,-0.793
2080.0,-5.199,-1.649,0.78,0.56,-0.446,-0.799
2084.0,-5.199,-1.649,0.78,0.56,-0.446,-0.799
2088.0,-4.722,-1.553,0.89,0.729,-0.485,-0.817
2092.0,-4.722,-1.553,0.89,0.729,-0.485,-0.817
2096.0,-4.722,-1.553,0.89,0.729,-0.485,-0.817
2100.0,-4.223,-1.397,0.921,0.882,-0.544,-0.849
2104.0,-4.223,-1.397,0.921,0.882,-0.544,-0.849
2108.0,-3.79,-1.207,0.852,1.015,-0.611,-0.892
2112.0,-3.79,-1.207,0.852,1.015,-0.611,-0.892
2116.0,-3.79,-1.207,0.852,1.015,-0.611,-0.892
2120.0,-3.432,-1.016,0.701,1.121,-0.669,-0.93
2124.0,-3.432,-1.016,0.701,1.121,-0.669,-0.93
2128.0,-3.175,-0.852,0.436,1.195,-0.704,-0.953
2132.0,-3.175,-0.852,0.436,1.195,-0.704,-0.953
2136.0,-3.175,-0.852,0.436,1.195,-0.704,-0.953
2140.0,-3.063,-0.732,0.17,1.233,-0.699,-0.951
2144.0,-3.063,-0.732,0.17,1.233,-0.699,-0.951
2148.0,-3.102,-0.651,-0.05,1.233,-0.65,-0.919
2152.0,-3.102,-0.651,-0.05,1.233,-0.65,-0.919
2156.0,-3.102,-0.651,-0.276,1.233,-0.65,-0.919
2160.0,-3.396,-0.596,-0.276,1.199,-0.551,-0.851
2164.0,-3.396,-0.596,-0.276,1.199,-0.551,-0.851
2168.0,-3.955,-0.629,-0.391,1.136,-0.399,-0.74
2173.0,-3.955,-0.629,-0.391,1.136,-0.399,-0.74
2177.0,-4.735,-0.723,-0.377,1.136,-0.198,-0.58
2181.0,-4.735,-0.723,-0.377,1.055,-0.198,-0.58
2185.0,-4.735,-0.723,-0.377,1.055,-0.198,-0.58
2189.0,-5.885,-0.868,-0.227,0.955,0.042,-0.362
2193.0,-5.885,-0.868,-0.227,0.955,0.042,-0.362
2197.0,-7.662,-1.125,0.152,0.837,0.306,-0.07
2201.0,-7.662,-1.125,0.152,0.837,0.306,-0.07
2205.0,-7.662,-1.125,0.152,0.837,0.306,-0.07
2209.0,-10.372,-1.572,0.735,0.713,0.564,0.302
2213.0,-10.372,-1.572,0.735,0.713,0.564,0.302
2216.0,-13.638,-2.24,1.472,0.593,0.773,0.732
2220.0,-13.638,-2.24,1.472,0.593,0.773,0.732
2224.0,-13.638,-2.24,1.472,0.593,0.773,0.732
2228.0,-15.82,-2.913,2.505,0.504,0.885,1.176
2232.0,-15.82,-2.913,2.505,0.504,0.885,1.176
2236.0,-16.08,-3.616,3.447,0.504,0.856,1.566
2240.0,-16.08,-3.616,3.447,0.473,0.856,1.566
2244.0,-16.08,-3.616,3.447,0.473,0.856,1.566
2248.0,-15.784,-4.138,3.913,0.519,0.736,1.841
2252.0,-15.784,-4.138,3.913,0.519,0.736,1.841
2255.0,-16.049,-4.253,3.715,0.519,0.736,1.997
2259.0,-16.049,-4.253,3.715,0.642,0.606,1.997
2263.0,-16.049,-4.253,3.715,0.642,0.606,1.997
2267.0,-16.664,-3.995,3.113,0.808,0.502,2.093
2271.0,-16.664,-3.995,3.113,0.808,0.502,2.093
2275.0,-17.318,-3.508,2.297,0.808,0.502,2.093
2279.0,-17.318,-3.508,2.297,0.975,0.433,2.185
2283.0,-17.318,-3.508,2.297,0.975,0.433,2.185
2287.0,-18.141,-2.989,1.411,1.117,0.414,2.302
2291.0,-18.141,-2.989,1.411,1.117,0.414,2.302
2295.0,-18.141,-2.575,0.601,1.117,0.414,2.302
2298.0,-19.268,-2.575,0.601,1.234,0.458,2.444
2302.0,-19.268,-2.575,0.601,1.234,0.458,2.444
2306.0,-19.6,-2.319,0.096,1.339,0.536,2.606
2310.0,-19.6,-2.319,0.096,1.339,0.536,2.606
2314.0,-19.6,-2.319,-0.022,1.339,0.536,2.606
2318.0,-19.6,-2.225,-0.022,1.438,0.594,2.774
2322.0,-19.6,-2.225,-0.022,1.438,0.594,2.774
2326.0,-19.6,-2.165,0.169,1.533,0.602,2.916
2330.0,-19.6,-2.165,0.169,1.533,0.602,2.916
2334.0,-19.6,-2.165,0.446,1.533,0.602,2.916
2338.0,-19.448,-2.067,0.446,1.618,0.557,2.991
2342.0,-19.448,-2.067,0.446,1.618,0.557,2.991
2346.0,-17.73,-1.886,0.684,1.679,0.469,2.977
2349.0,-17.73,-1.886,0.684,1.679,0.469,2.977
2353.0,-17.73,-1.886,0.684,1.679,0.469,2.977
2357.0,-15.288,-1.632,0.905,1.704,0.357,2.87
2361.0,-15.288,-1.632,0.905,1.704,0.357,2.87
2365.0,-12.81,-1.296,1.118,1.684,0.24,2.678
2369.0,-12.81,-1.296,1.118,1.684,0.24,2.678
2373.0,-12.81,-1.296,1.118,1.684,0.24,2.678
2377.0,-10.693,-0.915,1.235,1.624,0.131,2.42
2381.0,-10.693,-0.915,1.235,1.624,0.131,2.42
2385.0,-9.19,-0.482,1.234,1.527,0.048,2.118
2388.0,-9.19,-0.482,1.234,1.527,0.048,2.118
2392.0,-9.19,-0.482,1.234,1.527,0.048,2.118
2396.0,-8.408,0.004,1.19,1.389,0.011,1.805
2400.0,-8.408,0.004,1.19,1.389,0.011,1.805
2404.0,-8.33,0.501,1.172,1.389,0.011,1.52
2407.0,-8.33,0.501,1.172,1.212,0.021,1.52
2411.0,-8.33,0.501,1.172,1.212,0.021,1.52
2415.0,-8.802,0.889,1.108,0.995,0.062,1.287
2418.0,-8.802,0.889,1.108,0.995,0.062,1.287
2422.0,-8.802,0.889,1.108,0.995,0.062,1.287
2426.0,-9.356,1.008,1.083,0.745,0.102,1.104
2430.0,-9.356,1.008,1.083,0.745,0.102,1.104
2433.0,-9.742,0.957,1.12,0.745,0.11,0.956
2437.0,-9.742,0.957,1.12,0.471,0.11,0.956
2441.0,-9.742,0.957,1.12,0.471,0.11,0.956
2445.0,-10.092,0.789,1.059,0.188,0.085,0.826
2448.0,-10.092,0.789,1.059,0.188,0.085,0.826
2452.0,-10.092,0.789,0.869,0.188,0.085,0.826
2456.0,-10.516,0.533,0.869,-0.093,0.052,0.708
2460.0,-10.516,0.533,0.869,-0.093,0.052,0.708
2464.0,-10.842,0.258,0.69,-0.364,0.032,0.602
2468.0,-10.842,0.258,0.69,-0.364,0.032,0.602
2472.0,-10.842,0.258,0.69,-0.364,0.032,0.602
2476.0,-10.921,0.019,0.609,-0.63,0.024,0.517
2480.0,-10.921,0.019,0.609,-0.63,0.024,0.517
2483.0,-10.685,-0.224,0.637,-0.893,0.02,0.45
2487.0,-10.685,-0.224,0.637,-0.893,0.02,0.45
2491.0,-10.685,-0.224,0.637,-0.893,0.02,0.45
2495.0,-10.183,-0.414,0.642,-1.149,0.013,0.394
2499.0,-10.183,-0.414,0.642,-1.149,0.013,0.394
2503.0,-9.673,-0.639,0.67,-1.398,0.004,0.331
2507.0,-9.673,-0.639,0.67,-1.398,0.004,0.331
2511.0,-9.673,-0.639,0.67,-1.398,0.004,0.331
2515.0,-9.156,-0.827,0.654,-1.614,0.007,0.268
2519.0,-9.156,-0.827,0.654,-1.614,0.007,0.268
2523.0,-8.672,-0.915,0.635,-1.794,0.015,0.204
2527.0,-8.672,-0.915,0.635,-1.794,0.015,0.204
2531.0,-8.672,-0.915,0.635,-1.794,0.015,0.204
2535.0,-8.16,-0.954,0.634,-1.948,0.033,0.14
2539.0,-8.16,-0.954,0.634,-1.948,0.033,0.14
2542.0,-7.733,-0.978,0.711,-2.073,0.065,0.079
2546.0,-7.733,-0.978,0.711,-2.073,0.065,0.079
2550.0,-7.733,-0.978,0.711,-2.073,0.065,0.079
2554.0,-7.427,-0.994,0.861,-2.166,0.109,0.031
2558.0,-7.427,-0.994,0.861,-2.166,0.109,0.031
2562.0,-7.213,-1.041,0.981,-2.222,0.158,-0.009
2566.0,-7.213,-1.041,0.981,-2.222,0.158,-0.009
2570.0,-7.213,-1.041,0.981,-2.222,0.158,-0.009
2574.0,-6.996,-1.121,1.088,-2.244,0.198,-0.045
2578.0,-6.996,-1.121,1.088,-2.244,0.198,-0.045
2582.0,-6.756,-1.221,1.175,-2.23,0.227,-0.081
2586.0,-6.756,-1.221,1.175,-2.23,0.227,-0.081
2590.0,-6.756,-1.221,1.175,-2.23,0.227,-0.081
2594.0,-6.449,-1.323,1.278,-2.181,0.246,-0.124
2598.0,-6.449,-1.323,1.278,-2.181,0.246,-0.124
2602.0,-6.062,-1.403,1.341,-2.099,0.258,-0.171
2606.0,-6.062,-1.403,1.341,-2.099,0.258,-0.171
2610.0,-6.062,-1.403,1.341,-2.099,0.258,-0.171
2614.0,-5.662,-1.469,1.381,-1.993,0.268,-0.215
2618.0,-5.662,-1.469,1.381,-1.993,0.268,-0.215
2622.0,-5.282,-1.499,1.449,-1.872,0.282,-0.259
2626.0,-5.282,-1.499,1.449,-1.872,0.282,-0.259
2630.0,-5.282,-1.499,1.449,-1.872,0.282,-0.259
2634.0,-5.009,-1.488,1.52,-1.737,0.291,-0.298
2638.0,-5.009,-1.488,1.52,-1.737,0.291,-0.298
2642.0,-4.789,-1.44,1.58,-1.597,0.291,-0.33
2646.0,-4.789,-1.44,1.58,-1.597,0.291,-0.33
2650.0,-4.789,-1.44,1.597,-1.597,0.291,-0.33
2654.0,-4.608,-1.404,1.597,-1.458,0.284,-0.351
2658.0,-4.608,-1.404,1.597,-1.458,0.284,-0.351
2662.0,-4.45,-1.368,1.57,-1.327,0.278,-0.359
2666.0,-4.45,-1.368,1.57,-1.327,0.278,-0.359
2670.0,-4.274,-1.336,1.513,-1.327,0.278,-0.359
2674.0,-4.274,-1.336,1.513,-1.208,0.278,-0.354
2678.0,-4.274,-1.336,1.513,-1.208,0.278,-0.354
2682.0,-4.099,-1.306,1.53,-1.107,0.287,-0.342
2686.0,-4.099,-1.306,1.53,-1.107,0.287,-0.342
2690.0,-3.954,-1.269,1.607,-1.107,0.287,-0.324
2694.0,-3.954,-1.269,1.607,-1.018,0.299,-0.324
2698.0,-3.954,-1.269,1.607,-1.018,0.299,-0.324
2702.0,-3.818,-1.225,1.668,-0.939,0.308,-0.307
2706.0,-3.818,-1.225,1.668,-0.939,0.308,-0.307
2710.0,-3.699,-1.19,1.717,-0.939,0.316,-0.292
2714.0,-3.699,-1.19,1.717,-0.873,0.316,-0.292
2718.0,-3.699,-1.19,1.717,-0.873,0.316,-0.292
2722.0,-3.54,-1.148,1.786,-0.817,0.322,-0.284
2726.0,-3.54,-1.148,1.786,-0.817,0.322,-0.284
2730.0,-3.34,-1.092,1.951,-0.766,0.334,-0.29
2734.0,-3.34,-1.092,1.951,-0.766,0.334,-0.29
2738.0,-3.34,-1.092,1.951,-0.766,0.334,-0.29
2742.0,-3.047,-1.062,2.255,-0.709,0.358,-0.313
2746.0,-3.047,-1.062,2.255,-0.709,0.358,-0.313
2750.0,-2.629,-1.051,2.794,-0.632,0.402,-0.366
2754.0,-2.629,-1.051,2.794,-0.632,0.402,-0.366
2758.0,-2.629,-1.051,2.794,-0.632,0.402,-0.366
2762.0,-2.204,-1.064,3.693,-0.504,0.472,-0.466
2766.0,-2.204,-1.064,3.693,-0.504,0.472,-0.466
2770.0,-2.01,-0.977,5.078,-0.296,0.56,-0.608
2774.0,-2.01,-0.977,5.078,-0.296,0.56,-0.608
2778.0,-2.01,-0.977,5.078,-0.296,0.56,-0.608
2782.0,-2.339,-0.831,6.811,0.011,0.624,-0.747
2785.0,-2.339,-0.831,6.811,0.011,0.624,-0.747
2789.0,-3.38,-0.705,8.331,0.414,0.603,-0.811
2793.0,-3.38,-0.705,8.331,0.414,0.603,-0.811
2797.0,-3.38,-0.705,8.331,0.414,0.603,-0.811
2801.0,-4.756,-0.733,8.877,0.892,0.491,-0.775
2805.0,-4.756,-0.733,8.877,0.892,0.491,-0.775
2809.0,-6.313,-0.799,8.549,1.409,0.356,-0.679
2813.0,-6.313,-0.799,8.549,1.409,0.356,-0.679
2817.0,-6.313,-0.799,8.549,1.409,0.356,-0.679
2821.0,-7.943,-0.881,7.736,1.914,0.251,-0.57
2825.0,-7.943,-0.881,7.736,1.914,0.251,-0.57
2828.0,-9.3,-0.742,6.891,2.364,0.17,-0.472
2832.0,-9.3,-0.742,6.891,2.364,0.17,-0.472
2836.0,-9.3,-0.742,6.891,2.364,0.17,-0.472
2840.0,-10.207,-0.283,6.114,2.709,0.079,-0.371
2844.0,-10.207,-0.283,6.114,2.709,0.079,-0.371
2848.0,-10.93,0.265,5.274,2.915,-0.022,-0.27
2852.0,-10.93,0.265,5.274,2.915,-0.022,-0.27
2856.0,-10.93,0.265,5.274,2.915,-0.022,-0.27
2860.0,-11.78,0.765,4.366,2.983,-0.101,-0.196
2864.0,-11.78,0.765,4.366,2.983,-0.101,-0.196
2868.0,-12.649,1.281,3.549,2.93,-0.14,-0.163
2872.0,-12.649,1.281,3.549,2.93,-0.14,-0.163
2876.0,-12.649,1.281,3.549,2.93,-0.14,-0.163
2880.0,-13.586,1.921,3.053,2.768,-0.152,-0.173
2884.0,-13.586,1.921,3.053,2.768,-0.152,-0.173
2888.0,-14.344,2.518,2.748,2.52,-0.161,-0.205
2892.0,-14.344,2.518,2.748,2.52,-0.161,-0.205
2896.0,-14.344,2.518,2.748,2.52,-0.161,-0.205
2900.0,-14.992,3.086,2.653,2.212,-0.171,-0.253
2904.0,-14.992,3.086,2.653,2.212,-0.171,-0.253
2908.0,-15.492,3.539,2.742,1.87,-0.176,-0.316
2912.0,-15.492,3.539,2.742,1.87,-0.176,-0.316
2916.0,-15.492,3.539,2.742,1.87,-0.176,-0.316
2920.0,-15.821,3.983,3.047,1.516,-0.183,-0.391
2924.0,-15.821,3.983,3.047,1.516,-0.183,-0.391
2928.0,-15.842,4.251,3.441,1.168,-0.209,-0.458
2932.0,-15.842,4.251,3.441,1.168,-0.209,-0.458
2936.0,-15.842,4.251,3.7,1.168,-0.209,-0.458
2940.0,-15.456,4.289,3.7,0.827,-0.271,-0.508
2944.0,-15.456,4.289,3.7,0.827,-0.271,-0.508
2948.0,-14.882,4.198,3.776,0.498,-0.356,-0.552
2952.0,-14.882,4.198,3.776,0.498,-0.356,-0.552
2956.0,-14.882,3.964,3.68,0.498,-0.356,-0.552
2960.0,-14.552,3.964,3.68,0.178,-0.424,-0.595
2964.0,-14.552,3.964,3.68,0.178,-0.424,-0.595
2968.0,-14.478,3.589,3.43,-0.136,-0.44,-0.637
2972.0,-14.478,3.589,3.43,-0.136,-0.44,-0.637
2976.0,-14.273,3.139,3.203,-0.136,-0.44,-0.673
2980.0,-14.273,3.139,3.203,-0.453,-0.395,-0.673
2984.0,-14.273,3.139,3.203,-0.453,-0.395,-0.673
2988.0,-13.974,2.615,3.047,-0.776,-0.305,-0.693
2992.0,-13.974,2.615,3.047,-0.776,-0.305,-0.693
2997.0,-13.659,2.063,2.85,-1.1,-0.182,-0.694
