deltaTime,Acc_X,Acc_Y,Acc_Z,Gyro_X,Gyro_Y,Gyro_Z
0.0,-2.415,-3.927,8.827,0.492,-0.927,1.233
3.0,-2.415,-3.927,8.827,0.688,-0.947,1.223
6.0,-2.415,-3.927,8.827,0.688,-0.947,1.223
9.0,-2.415,-3.927,8.827,0.688,-0.947,1.223
12.0,-1.933,-3.622,8.553,0.858,-0.953,1.224
15.0,-1.933,-3.622,8.553,0.858,-0.953,1.224
18.0,-1.933,-3.622,8.553,0.858,-0.953,1.224
21.0,-1.738,-3.2,8.662,0.906,-0.91,1.24
24.0,-1.738,-3.2,8.662,0.906,-0.91,1.24
27.0,-1.738,-3.2,8.662,0.906,-0.91,1.24
30.0,-2.136,-3.062,8.932,0.906,-0.841,1.27
33.0,-2.136,-3.062,8.932,0.811,-0.841,1.27
36.0,-2.136,-3.062,8.932,0.811,-0.841,1.27
40.0,-2.954,-2.889,9.227,0.811,-0.798,1.293
44.0,-2.954,-2.889,9.227,0.652,-0.798,1.293
48.0,-2.954,-2.889,9.227,0.652,-0.798,1.293
51.0,-3.323,-2.538,9.293,0.508,-0.789,1.293
55.0,-3.323,-2.538,9.293,0.508,-0.789,1.293
59.0,-3.323,-2.538,9.293,0.508,-0.789,1.293
63.0,-3.189,-2.332,9.241,0.367,-0.789,1.296
66.0,-3.189,-2.332,9.241,0.367,-0.789,1.296
70.0,-3.345,-2.436,9.136,0.229,-0.775,1.312
74.0,-3.345,-2.436,9.136,0.229,-0.775,1.312
77.0,-3.345,-2.436,9.136,0.229,-0.775,1.312
81.0,-3.264,-2.719,8.91,0.131,-0.76,1.324
85.0,-3.264,-2.719,8.91,0.131,-0.76,1.324
89.0,-3.264,-2.719,8.91,0.131,-0.76,1.324
92.0,-2.754,-3.117,8.924,0.047,-0.718,1.328
96.0,-2.754,-3.117,8.924,0.047,-0.718,1.328
100.0,-2.892,-3.397,9.282,-0.064,-0.627,1.349
104.0,-2.892,-3.397,9.282,-0.064,-0.627,1.349
108.0,-2.892,-3.397,9.282,-0.064,-0.627,1.349
112.0,-2.82,-3.486,9.668,-0.157,-0.532,1.381
116.0,-2.82,-3.486,9.668,-0.157,-0.532,1.381
119.0,-3.0,-3.199,10.29,-0.218,-0.439,1.409
123.0,-3.0,-3.199,10.29,-0.218,-0.439,1.409
127.0,-3.0,-3.199,10.29,-0.218,-0.439,1.409
131.0,-3.834,-3.367,10.658,-0.269,-0.401,1.4
135.0,-3.834,-3.367,10.658,-0.269,-0.401,1.4
139.0,-3.583,-3.275,10.888,-0.257,-0.393,1.373
143.0,-3.583,-3.275,10.888,-0.257,-0.393,1.373
147.0,-3.583,-3.275,10.888,-0.257,-0.393,1.373
151.0,-3.639,-3.078,11.332,-0.239,-0.362,1.365
155.0,-3.639,-3.078,11.332,-0.239,-0.362,1.365
159.0,-3.805,-2.818,11.425,-0.245,-0.34,1.381
163.0,-3.805,-2.818,11.425,-0.245,-0.34,1.381
167.0,-3.805,-2.818,11.425,-0.245,-0.34,1.381
171.0,-3.732,-2.77,11.354,-0.295,-0.341,1.372
175.0,-3.732,-2.77,11.354,-0.295,-0.341,1.372
179.0,-3.824,-2.918,11.1,-0.352,-0.347,1.349
183.0,-3.824,-2.918,11.1,-0.352,-0.347,1.349
187.0,-3.824,-2.918,11.1,-0.352,-0.347,1.349
191.0,-3.631,-3.252,10.622,-0.351,-0.364,1.328
195.0,-3.631,-3.252,10.622,-0.351,-0.364,1.328
199.0,-3.657,-3.742,10.11,-0.245,-0.385,1.316
203.0,-3.657,-3.742,10.11,-0.245,-0.385,1.316
207.0,-3.657,-3.742,9.874,-0.245,-0.385,1.316
211.0,-3.588,-3.989,9.874,-0.058,-0.419,1.327
215.0,-3.588,-3.989,9.874,-0.058,-0.419,1.327
219.0,-2.776,-3.62,9.252,0.194,-0.458,1.326
223.0,-2.776,-3.62,9.252,0.194,-0.458,1.326
227.0,-2.776,-3.62,9.252,0.194,-0.458,1.326
230.0,-1.819,-3.242,8.902,0.359,-0.443,1.318
234.0,-1.819,-3.242,8.902,0.359,-0.443,1.318
238.0,-1.496,-2.611,8.823,0.362,-0.388,1.312
242.0,-1.496,-2.611,8.823,0.362,-0.388,1.312
246.0,-1.496,-2.611,8.823,0.362,-0.388,1.312
250.0,-1.7,-2.352,8.822,0.231,-0.325,1.296
253.0,-1.7,-2.352,8.822,0.231,-0.325,1.296
257.0,-1.683,-2.678,9.087,0.231,-0.325,1.257
261.0,-1.683,-2.678,9.087,0.04,-0.267,1.257
265.0,-1.683,-2.678,9.087,0.04,-0.267,1.257
269.0,-2.236,-2.797,9.462,-0.152,-0.217,1.216
273.0,-2.236,-2.797,9.462,-0.152,-0.217,1.216
276.0,-2.236,-2.797,9.614,-0.152,-0.217,1.216
280.0,-3.113,-3.051,9.614,-0.33,-0.217,1.185
284.0,-3.113,-3.051,9.614,-0.33,-0.217,1.185
288.0,-3.635,-3.205,9.543,-0.468,-0.27,1.133
292.0,-3.635,-3.205,9.543,-0.468,-0.27,1.133
296.0,-3.635,-3.205,9.543,-0.468,-0.27,1.133
300.0,-3.534,-3.234,9.476,-0.559,-0.347,1.072
304.0,-3.534,-3.234,9.476,-0.559,-0.347,1.072
308.0,-3.255,-3.253,9.265,-0.643,-0.422,1.033
312.0,-3.255,-3.253,9.265,-0.643,-0.422,1.033
316.0,-3.255,-3.253,9.265,-0.643,-0.422,1.033
319.0,-2.981,-3.674,8.908,-0.732,-0.483,1.007
323.0,-2.981,-3.674,8.908,-0.732,-0.483,1.007
327.0,-2.618,-4.133,8.676,-0.77,-0.526,0.983
331.0,-2.618,-4.133,8.676,-0.77,-0.526,0.983
335.0,-2.618,-4.133,8.676,-0.77,-0.526,0.983
339.0,-2.368,-4.322,8.511,-0.756,-0.558,0.951
343.0,-2.368,-4.322,8.511,-0.756,-0.558,0.951
347.0,-2.233,-4.417,8.434,-0.721,-0.586,0.916
351.0,-2.233,-4.417,8.434,-0.721,-0.586,0.916
355.0,-2.233,-4.417,8.434,-0.721,-0.586,0.916
358.0,-2.155,-4.482,8.429,-0.674,-0.611,0.898
362.0,-2.155,-4.482,8.429,-0.674,-0.611,0.898
366.0,-2.076,-4.492,8.445,-0.608,-0.629,0.896
370.0,-2.076,-4.492,8.445,-0.608,-0.629,0.896
374.0,-2.076,-4.492,8.445,-0.608,-0.629,0.896
378.0,-2.062,-4.451,8.456,-0.524,-0.645,0.91
382.0,-2.062,-4.451,8.456,-0.524,-0.645,0.91
386.0,-2.085,-4.337,8.412,-0.425,-0.662,0.933
390.0,-2.085,-4.337,8.412,-0.425,-0.662,0.933
394.0,-2.085,-4.337,8.412,-0.425,-0.662,0.933
398.0,-2.034,-4.201,8.305,-0.318,-0.682,0.966
401.0,-2.034,-4.201,8.305,-0.318,-0.682,0.966
405.0,-1.832,-4.08,8.304,-0.318,-0.682,1.003
409.0,-1.832,-4.08,8.304,-0.219,-0.692,1.003
413.0,-1.832,-4.08,8.304,-0.219,-0.692,1.003
417.0,-1.721,-4.081,8.379,-0.143,-0.683,1.043
421.0,-1.721,-4.081,8.379,-0.143,-0.683,1.043
425.0,-1.732,-4.109,8.508,-0.143,-0.683,1.043
429.0,-1.732,-4.109,8.508,-0.095,-0.656,1.084
433.0,-1.732,-4.109,8.508,-0.095,-0.656,1.084
437.0,-1.83,-4.155,8.661,-0.074,-0.621,1.123
441.0,-1.83,-4.155,8.661,-0.074,-0.621,1.123
444.0,-1.83,-4.193,8.882,-0.074,-0.621,1.123
448.0,-1.974,-4.193,8.882,-0.076,-0.585,1.15
452.0,-1.974,-4.193,8.882,-0.076,-0.585,1.15
456.0,-2.135,-4.36,9.147,-0.09,-0.557,1.161
460.0,-2.135,-4.36,9.147,-0.09,-0.557,1.161
464.0,-2.135,-4.36,9.374,-0.09,-0.557,1.161
468.0,-2.317,-4.524,9.374,-0.101,-0.536,1.151
472.0,-2.317,-4.524,9.374,-0.101,-0.536,1.151
476.0,-2.457,-4.652,9.613,-0.106,-0.525,1.119
480.0,-2.457,-4.652,9.613,-0.106,-0.525,1.119
483.0,-2.457,-4.652,9.613,-0.106,-0.525,1.119
487.0,-2.556,-4.708,9.8,-0.11,-0.518,1.071
491.0,-2.556,-4.708,9.8,-0.11,-0.518,1.071
495.0,-2.685,-4.743,9.922,-0.118,-0.517,1.015
499.0,-2.685,-4.743,9.922,-0.118,-0.517,1.015
503.0,-2.685,-4.743,9.922,-0.118,-0.517,1.015
507.0,-2.739,-4.826,10.141,-0.128,-0.525,0.956
511.0,-2.739,-4.826,10.141,-0.128,-0.525,0.956
515.0,-2.769,-5.039,10.476,-0.134,-0.545,0.892
519.0,-2.769,-5.039,10.476,-0.134,-0.545,0.892
523.0,-2.769,-5.039,10.476,-0.134,-0.545,0.892
527.0,-2.842,-5.377,10.955,-0.135,-0.58,0.818
531.0,-2.842,-5.377,10.955,-0.135,-0.58,0.818
535.0,-2.992,-5.618,11.333,-0.138,-0.631,0.73
539.0,-2.992,-5.618,11.333,-0.138,-0.631,0.73
543.0,-2.992,-5.618,11.425,-0.138,-0.631,0.73
547.0,-3.05,-5.587,11.425,-0.15,-0.696,0.642
551.0,-3.05,-5.587,11.425,-0.15,-0.696,0.642
555.0,-2.838,-5.498,11.324,-0.168,-0.764,0.565
559.0,-2.838,-5.498,11.324,-0.168,-0.764,0.565
563.0,-2.838,-5.323,11.089,-0.168,-0.764,0.565
567.0,-2.508,-5.323,11.089,-0.17,-0.82,0.498
571.0,-2.508,-5.323,11.089,-0.17,-0.82,0.498
575.0,-2.288,-5.139,10.822,-0.15,-0.864,0.44
579.0,-2.288,-5.139,10.822,-0.15,-0.864,0.44
583.0,-2.205,-4.985,10.565,-0.15,-0.864,0.44
587.0,-2.205,-4.985,10.565,-0.108,-0.902,0.39
591.0,-2.205,-4.985,10.565,-0.108,-0.902,0.39
595.0,-2.143,-4.799,10.257,-0.045,-0.94,0.349
599.0,-2.143,-4.799,10.257,-0.045,-0.94,0.349
603.0,-2.016,-4.579,9.924,-0.045,-0.94,0.324
607.0,-2.016,-4.579,9.924,0.037,-0.979,0.324
610.0,-2.016,-4.579,9.924,0.037,-0.979,0.324
614.0,-1.79,-4.346,9.608,0.129,-1.015,0.317
618.0,-1.79,-4.346,9.608,0.129,-1.015,0.317
622.0,-1.79,-4.346,9.314,0.129,-1.015,0.317
626.0,-1.549,-4.104,9.314,0.219,-1.039,0.331
630.0,-1.549,-4.104,9.314,0.219,-1.039,0.331
633.0,-1.37,-3.918,9.057,0.295,-1.05,0.366
637.0,-1.37,-3.918,9.057,0.295,-1.05,0.366
641.0,-1.37,-3.918,9.057,0.295,-1.05,0.366
645.0,-1.275,-3.833,8.92,0.342,-1.048,0.414
649.0,-1.275,-3.833,8.92,0.342,-1.048,0.414
652.0,-1.269,-3.785,8.826,0.361,-1.04,0.468
656.0,-1.269,-3.785,8.826,0.361,-1.04,0.468
660.0,-1.269,-3.785,8.826,0.361,-1.04,0.468
664.0,-1.33,-3.698,8.696,0.351,-1.028,0.521
668.0,-1.33,-3.698,8.696,0.351,-1.028,0.521
672.0,-1.381,-3.621,8.551,0.351,-1.028,0.521
675.0,-1.381,-3.621,8.551,0.318,-1.017,0.575
679.0,-1.381,-3.621,8.551,0.318,-1.017,0.575
683.0,-1.432,-3.622,8.396,0.272,-1.007,0.627
687.0,-1.432,-3.622,8.396,0.272,-1.007,0.627
691.0,-1.432,-3.622,8.396,0.272,-1.007,0.627
694.0,-1.465,-3.722,8.312,0.229,-0.996,0.673
698.0,-1.465,-3.722,8.312,0.229,-0.996,0.673
702.0,-1.514,-3.859,8.219,0.193,-0.98,0.714
706.0,-1.514,-3.859,8.219,0.193,-0.98,0.714
710.0,-1.514,-3.859,8.219,0.193,-0.98,0.714
714.0,-1.494,-4.005,8.11,0.166,-0.959,0.753
717.0,-1.494,-4.005,8.11,0.166,-0.959,0.753
721.0,-1.37,-4.18,8.071,0.166,-0.931,0.789
725.0,-1.37,-4.18,8.071,0.147,-0.931,0.789
729.0,-1.37,-4.18,8.071,0.147,-0.931,0.789
733.0,-1.253,-4.311,8.075,0.132,-0.894,0.822
737.0,-1.253,-4.311,8.075,0.132,-0.894,0.822
740.0,-1.253,-4.311,8.106,0.132,-0.894,0.822
744.0,-1.187,-4.387,8.106,0.118,-0.845,0.856
748.0,-1.187,-4.387,8.106,0.118,-0.845,0.856
752.0,-1.183,-4.427,8.158,0.101,-0.791,0.892
756.0,-1.183,-4.427,8.158,0.101,-0.791,0.892
759.0,-1.183,-4.427,8.158,0.101,-0.791,0.892
763.0,-1.25,-4.44,8.272,0.081,-0.737,0.925
767.0,-1.25,-4.44,8.272,0.081,-0.737,0.925
771.0,-1.367,-4.439,8.404,0.062,-0.691,0.955
775.0,-1.367,-4.439,8.404,0.062,-0.691,0.955
779.0,-1.367,-4.439,8.404,0.062,-0.691,0.955
782.0,-1.521,-4.461,8.496,0.049,-0.653,0.983
786.0,-1.521,-4.461,8.496,0.049,-0.653,0.983
790.0,-1.658,-4.527,8.536,0.049,-0.653,0.983
794.0,-1.658,-4.527,8.536,0.049,-0.622,1.015
798.0,-1.658,-4.527,8.536,0.049,-0.622,1.015
801.0,-1.66,-4.539,8.458,0.061,-0.594,1.048
805.0,-1.66,-4.539,8.458,0.061,-0.594,1.048
809.0,-1.66,-4.539,8.458,0.061,-0.594,1.048
813.0,-1.564,-4.463,8.28,0.081,-0.559,1.083
817.0,-1.564,-4.463,8.28,0.081,-0.559,1.083
821.0,-1.482,-4.363,8.141,0.105,-0.514,1.119
824.0,-1.482,-4.363,8.141,0.105,-0.514,1.119
828.0,-1.482,-4.363,8.141,0.105,-0.514,1.119
832.0,-1.415,-4.228,7.996,0.123,-0.462,1.154
836.0,-1.415,-4.228,7.996,0.123,-0.462,1.154
840.0,-1.323,-4.053,7.909,0.123,-0.462,1.188
843.0,-1.323,-4.053,7.909,0.131,-0.401,1.188
847.0,-1.323,-4.053,7.909,0.131,-0.401,1.188
851.0,-1.239,-3.806,7.871,0.122,-0.33,1.218
855.0,-1.239,-3.806,7.871,0.122,-0.33,1.218
859.0,-1.239,-3.806,7.944,0.122,-0.33,1.218
863.0,-1.219,-3.567,7.944,0.088,-0.258,1.247
866.0,-1.219,-3.567,7.944,0.088,-0.258,1.247
870.0,-1.314,-3.386,8.07,0.036,-0.189,1.28
874.0,-1.314,-3.386,8.07,0.036,-0.189,1.28
878.0,-1.314,-3.386,8.07,0.036,-0.189,1.28
882.0,-1.5,-3.199,8.166,-0.022,-0.132,1.321
886.0,-1.5,-3.199,8.166,-0.022,-0.132,1.321
889.0,-1.671,-3.048,8.212,-0.075,-0.09,1.374
893.0,-1.671,-3.048,8.212,-0.075,-0.09,1.374
897.0,-1.671,-3.048,8.212,-0.075,-0.09,1.374
901.0,-1.797,-2.875,8.221,-0.12,-0.065,1.436
905.0,-1.797,-2.875,8.221,-0.12,-0.065,1.436
909.0,-1.877,-2.727,8.221,-0.152,-0.051,1.51
913.0,-1.877,-2.727,8.221,-0.152,-0.051,1.51
917.0,-1.877,-2.727,8.221,-0.152,-0.051,1.51
921.0,-1.906,-2.593,8.174,-0.176,-0.041,1.595
925.0,-1.906,-2.593,8.174,-0.176,-0.041,1.595
929.0,-1.989,-2.608,8.152,-0.176,-0.026,1.691
932.0,-1.989,-2.608,8.152,-0.194,-0.026,1.691
936.0,-1.989,-2.608,8.152,-0.194,-0.026,1.691
940.0,-2.133,-2.684,8.154,-0.201,-0.008,1.794
944.0,-2.133,-2.684,8.154,-0.201,-0.008,1.794
948.0,-2.333,-2.796,8.204,-0.201,-0.008,1.794
952.0,-2.333,-2.796,8.204,-0.196,0.008,1.899
956.0,-2.333,-2.796,8.204,-0.196,0.008,1.899
960.0,-2.54,-2.753,8.181,-0.183,0.016,1.999
963.0,-2.54,-2.753,8.181,-0.183,0.016,1.999
967.0,-2.54,-2.753,8.191,-0.183,0.016,1.999
971.0,-2.681,-2.601,8.191,-0.183,0.021,2.1
975.0,-2.681,-2.601,8.191,-0.183,0.021,2.1
979.0,-2.849,-2.478,8.285,-0.217,0.016,2.198
983.0,-2.849,-2.478,8.285,-0.217,0.016,2.198
986.0,-2.849,-2.478,8.285,-0.217,0.016,2.198
990.0,-2.989,-2.316,8.233,-0.295,0.001,2.292
994.0,-2.989,-2.316,8.233,-0.295,0.001,2.292
998.0,-3.028,-2.132,8.107,-0.416,-0.011,2.385
1002.0,-3.028,-2.132,8.107,-0.416,-0.011,2.385
1006.0,-3.028,-2.132,8.107,-0.416,-0.011,2.385
1010.0,-3.049,-2.121,8.057,-0.571,-0.015,2.49
1014.0,-3.049,-2.121,8.057,-0.571,-0.015,2.49
1018.0,-3.155,-2.189,7.947,-0.749,-0.014,2.597
1022.0,-3.155,-2.189,7.947,-0.749,-0.014,2.597
1026.0,-3.155,-2.189,7.947,-0.749,-0.014,2.597
1030.0,-3.291,-2.308,7.832,-0.938,-0.002,2.713
1034.0,-3.291,-2.308,7.832,-0.938,-0.002,2.713
1038.0,-3.466,-2.46,7.644,-1.127,0.02,2.838
1042.0,-3.466,-2.46,7.644,-1.127,0.02,2.838
1045.0,-3.466,-2.46,7.644,-1.127,0.02,2.838
1049.0,-3.702,-2.642,7.481,-1.303,0.049,2.969
1053.0,-3.702,-2.642,7.481,-1.303,0.049,2.969
1057.0,-3.974,-2.886,7.317,-1.46,0.072,3.096
1061.0,-3.974,-2.886,7.317,-1.46,0.072,3.096
1065.0,-3.974,-2.886,7.317,-1.46,0.072,3.096
1069.0,-4.218,-3.06,7.061,-1.589,0.094,3.22
1073.0,-4.218,-3.06,7.061,-1.589,0.094,3.22
1077.0,-4.512,-3.468,7.004,-1.589,0.123,3.344
1081.0,-4.512,-3.468,7.004,-1.686,0.123,3.344
1085.0,-4.512,-3.468,7.004,-1.686,0.123,3.344
1088.0,-4.896,-3.864,6.871,-1.754,0.147,3.453
1092.0,-4.896,-3.864,6.871,-1.754,0.147,3.453
1096.0,-5.344,-4.28,6.812,-1.754,0.147,3.553
1100.0,-5.344,-4.28,6.812,-1.796,0.167,3.553
1104.0,-5.344,-4.28,6.812,-1.796,0.167,3.553
1108.0,-5.722,-4.6,6.691,-1.824,0.174,3.643
1112.0,-5.722,-4.6,6.691,-1.824,0.174,3.643
1116.0,-5.955,-4.746,6.503,-1.824,0.174,3.643
1120.0,-5.955,-4.746,6.503,-1.849,0.178,3.724
1124.0,-5.955,-4.746,6.503,-1.849,0.178,3.724
1127.0,-6.114,-4.839,6.381,-1.883,0.185,3.804
1131.0,-6.114,-4.839,6.381,-1.883,0.185,3.804
1135.0,-6.114,-4.771,6.118,-1.883,0.185,3.804
1139.0,-6.23,-4.771,6.118,-1.933,0.19,3.869
1143.0,-6.23,-4.771,6.118,-1.933,0.19,3.869
1147.0,-6.368,-4.793,5.913,-2.007,0.194,3.922
1151.0,-6.368,-4.793,5.913,-2.007,0.194,3.922
1155.0,-6.368,-4.793,5.737,-2.007,0.194,3.922
1159.0,-6.581,-4.844,5.737,-2.103,0.2,3.958
1163.0,-6.581,-4.844,5.737,-2.103,0.2,3.958
1167.0,-6.801,-4.822,5.403,-2.213,0.209,3.98
1170.0,-6.801,-4.822,5.403,-2.213,0.209,3.98
1174.0,-6.801,-4.822,5.403,-2.213,0.209,3.98
1178.0,-7.08,-4.901,5.221,-2.329,0.225,3.996
1182.0,-7.08,-4.901,5.221,-2.329,0.225,3.996
1186.0,-7.47,-5.118,5.077,-2.449,0.232,3.996
1190.0,-7.47,-5.118,5.077,-2.449,0.232,3.996
1194.0,-7.47,-5.118,5.077,-2.449,0.232,3.996
1198.0,-7.828,-5.134,4.714,-2.565,0.24,3.978
1202.0,-7.828,-5.134,4.714,-2.565,0.24,3.978
1206.0,-8.049,-5.112,4.372,-2.676,0.263,3.952
1210.0,-8.049,-5.112,4.372,-2.676,0.263,3.952
1213.0,-8.049,-5.112,4.372,-2.676,0.263,3.952
1217.0,-8.264,-5.383,4.378,-2.783,0.288,3.91
1221.0,-8.264,-5.383,4.378,-2.783,0.288,3.91
1225.0,-8.484,-5.584,4.267,-2.884,0.304,3.841
1229.0,-8.484,-5.584,4.267,-2.884,0.304,3.841
1233.0,-8.484,-5.584,4.267,-2.884,0.304,3.841
1237.0,-8.679,-5.62,3.992,-2.977,0.323,3.76
1241.0,-8.679,-5.62,3.992,-2.977,0.323,3.76
1245.0,-8.781,-5.682,3.781,-3.065,0.359,3.691
1249.0,-8.781,-5.682,3.781,-3.065,0.359,3.691
1252.0,-8.781,-5.682,3.781,-3.065,0.359,3.691
1256.0,-8.809,-5.654,3.552,-3.147,0.41,3.635
1260.0,-8.809,-5.654,3.552,-3.147,0.41,3.635
1264.0,-8.864,-5.645,3.369,-3.147,0.479,3.605
1268.0,-8.864,-5.645,3.369,-3.22,0.479,3.605
1272.0,-8.864,-5.645,3.369,-3.22,0.479,3.605
1276.0,-9.056,-5.852,3.372,-3.28,0.556,3.59
1280.0,-9.056,-5.852,3.372,-3.28,0.556,3.59
1284.0,-9.354,-5.928,3.226,-3.28,0.556,3.578
1288.0,-9.354,-5.928,3.226,-3.322,0.627,3.578
1292.0,-9.354,-5.928,3.226,-3.322,0.627,3.578
1295.0,-9.653,-5.991,3.044,-3.343,0.694,3.574
1299.0,-9.653,-5.991,3.044,-3.343,0.694,3.574
1303.0,-10.006,-6.185,2.999,-3.343,0.694,3.574
1307.0,-10.006,-6.185,2.999,-3.347,0.751,3.569
1311.0,-10.006,-6.185,2.999,-3.347,0.751,3.569
1315.0,-10.323,-6.196,2.796,-3.331,0.79,3.556
1319.0,-10.323,-6.196,2.796,-3.331,0.79,3.556
1323.0,-10.506,-6.103,2.522,-3.331,0.79,3.551
1327.0,-10.506,-6.103,2.522,-3.295,0.819,3.551
1331.0,-10.506,-6.103,2.522,-3.295,0.819,3.551
1335.0,-10.607,-5.977,2.258,-3.239,0.843,3.566
1339.0,-10.607,-5.977,2.258,-3.239,0.843,3.566
1343.0,-10.71,-5.858,2.034,-3.239,0.87,3.606
1347.0,-10.71,-5.858,2.034,-3.16,0.87,3.606
1351.0,-10.71,-5.858,2.034,-3.16,0.87,3.606
1355.0,-10.915,-5.78,1.886,-3.056,0.898,3.67
1359.0,-10.915,-5.78,1.886,-3.056,0.898,3.67
1363.0,-11.129,-5.763,1.789,-2.922,0.915,3.752
1367.0,-11.129,-5.763,1.789,-2.922,0.915,3.752
1371.0,-11.129,-5.763,1.789,-2.922,0.915,3.752
1375.0,-11.488,-5.796,1.746,-2.757,0.916,3.844
1379.0,-11.488,-5.796,1.746,-2.757,0.916,3.844
1383.0,-11.952,-5.916,1.759,-2.563,0.895,3.932
1387.0,-11.952,-5.916,1.759,-2.563,0.895,3.932
1391.0,-11.952,-5.916,1.759,-2.563,0.895,3.932
1395.0,-12.413,-6.065,1.828,-2.334,0.848,4.008
1399.0,-12.413,-6.065,1.828,-2.334,0.848,4.008
1403.0,-12.81,-6.243,1.973,-2.069,0.768,4.06
1407.0,-12.81,-6.243,1.973,-2.069,0.768,4.06
1411.0,-12.81,-6.243,1.973,-2.069,0.768,4.06
1415.0,-13.201,-6.461,2.104,-1.765,0.656,4.077
1419.0,-13.201,-6.461,2.104,-1.765,0.656,4.077
1423.0,-13.543,-6.636,2.133,-1.424,0.525,4.052
1427.0,-13.543,-6.636,2.133,-1.424,0.525,4.052
1431.0,-13.543,-6.636,2.133,-1.424,0.525,4.052
1435.0,-13.644,-6.684,2.005,-1.056,0.391,3.983
1439.0,-13.644,-6.684,2.005,-1.056,0.391,3.983
1443.0,-13.455,-6.553,1.796,-0.681,0.273,3.872
1447.0,-13.455,-6.553,1.796,-0.681,0.273,3.872
1451.0,-13.455,-6.553,1.585,-0.681,0.273,3.872
1455.0,-13.077,-6.313,1.585,-0.315,0.193,3.719
1459.0,-13.077,-6.313,1.585,-0.315,0.193,3.719
1463.0,-12.549,-5.982,1.4,0.029,0.156,3.527
1467.0,-12.549,-5.982,1.4,0.029,0.156,3.527
1471.0,-12.549,-5.982,1.3,0.029,0.156,3.527
1475.0,-12.017,-5.619,1.3,0.339,0.157,3.292
1479.0,-12.017,-5.619,1.3,0.339,0.157,3.292
1483.0,-11.521,-5.273,1.322,0.616,0.186,3.02
1486.0,-11.521,-5.273,1.322,0.616,0.186,3.02
1490.0,-11.521,-5.273,1.322,0.616,0.186,3.02
1494.0,-11.137,-4.863,1.481,0.861,0.227,2.715
1498.0,-11.137,-4.863,1.481,0.861,0.227,2.715
1502.0,-10.805,-4.42,1.628,1.072,0.262,2.382
1506.0,-10.805,-4.42,1.628,1.072,0.262,2.382
1510.0,-10.805,-4.42,1.628,1.072,0.262,2.382
1514.0,-10.46,-3.912,1.771,1.246,0.278,2.038
1518.0,-10.46,-3.912,1.771,1.246,0.278,2.038
1522.0,-10.069,-3.331,1.945,1.375,0.279,1.7
1525.0,-10.069,-3.331,1.945,1.375,0.279,1.7
1529.0,-10.069,-3.331,1.945,1.375,0.279,1.7
1533.0,-9.658,-2.752,2.118,1.458,0.264,1.381
1537.0,-9.658,-2.752,2.118,1.458,0.264,1.381
1541.0,-9.235,-2.211,2.237,1.494,0.233,1.095
1545.0,-9.235,-2.211,2.237,1.494,0.233,1.095
1549.0,-9.235,-2.211,2.237,1.494,0.233,1.095
1552.0,-8.757,-1.817,2.298,1.483,0.192,0.848
1556.0,-8.757,-1.817,2.298,1.483,0.192,0.848
1560.0,-8.297,-1.513,2.359,1.483,0.192,0.848
1564.0,-8.297,-1.513,2.359,1.424,0.148,0.632
1568.0,-8.297,-1.513,2.359,1.424,0.148,0.632
1571.0,-7.902,-1.269,2.423,1.322,0.102,0.439
1575.0,-7.902,-1.269,2.423,1.322,0.102,0.439
1579.0,-7.902,-1.269,2.423,1.322,0.102,0.439
1583.0,-7.566,-1.102,2.425,1.182,0.052,0.269
1587.0,-7.566,-1.102,2.425,1.182,0.052,0.269
1591.0,-7.361,-0.992,2.445,1.012,0.005,0.119
1594.0,-7.361,-0.992,2.445,1.012,0.005,0.119
1598.0,-7.361,-0.992,2.445,1.012,0.005,0.119
1602.0,-7.301,-0.957,2.468,0.823,-0.041,-0.014
1606.0,-7.301,-0.957,2.468,0.823,-0.041,-0.014
1610.0,-7.326,-0.964,2.482,0.622,-0.092,-0.131
1614.0,-7.326,-0.964,2.482,0.622,-0.092,-0.131
1618.0,-7.326,-0.964,2.482,0.622,-0.092,-0.131
1622.0,-7.334,-1.011,2.513,0.419,-0.155,-0.234
1626.0,-7.334,-1.011,2.513,0.419,-0.155,-0.234
1630.0,-7.216,-1.082,2.55,0.224,-0.233,-0.32
1634.0,-7.216,-1.082,2.55,0.224,-0.233,-0.32
1638.0,-7.216,-1.082,2.55,0.224,-0.233,-0.32
1642.0,-6.899,-1.162,2.564,0.047,-0.328,-0.394
1646.0,-6.899,-1.162,2.564,0.047,-0.328,-0.394
1650.0,-6.476,-1.216,2.414,-0.109,-0.428,-0.458
1654.0,-6.476,-1.216,2.414,-0.109,-0.428,-0.458
1658.0,-6.476,-1.216,2.414,-0.109,-0.428,-0.458
1662.0,-6.251,-1.251,2.104,-0.247,-0.492,-0.518
1666.0,-6.251,-1.251,2.104,-0.247,-0.492,-0.518
1670.0,-6.651,-1.3,1.816,-0.372,-0.487,-0.567
1674.0,-6.651,-1.3,1.816,-0.372,-0.487,-0.567
1679.0,-7.814,-1.386,1.746,-0.372,-0.487,-0.591
1683.0,-7.814,-1.386,1.746,-0.483,-0.408,-0.591
1687.0,-7.814,-1.386,1.746,-0.483,-0.408,-0.591
1691.0,-9.357,-1.586,1.766,-0.573,-0.302,-0.572
1695.0,-9.357,-1.586,1.766,-0.573,-0.302,-0.572
1699.0,-11.047,-1.824,1.935,-0.636,-0.211,-0.513
1703.0,-11.047,-1.824,1.935,-0.636,-0.211,-0.513
1707.0,-11.047,-1.824,1.935,-0.636,-0.211,-0.513
1711.0,-12.812,-2.039,2.255,-0.667,-0.164,-0.421
1716.0,-12.812,-2.039,2.255,-0.667,-0.164,-0.421
1720.0,-14.332,-2.268,2.445,-0.665,-0.17,-0.306
1724.0,-14.332,-2.268,2.445,-0.665,-0.17,-0.306
1728.0,-15.025,-2.383,2.626,-0.665,-0.227,-0.183
1732.0,-15.025,-2.383,2.626,-0.642,-0.227,-0.183
1736.0,-15.025,-2.383,2.626,-0.642,-0.227,-0.183
1741.0,-14.142,-2.408,2.84,-0.609,-0.333,-0.077
1745.0,-14.142,-2.408,2.84,-0.609,-0.333,-0.077
1749.0,-11.991,-2.337,2.897,-0.562,-0.468,-0.028
1753.0,-11.991,-2.337,2.897,-0.562,-0.468,-0.028
1757.0,-9.911,-2.217,2.663,-0.562,-0.468,-0.028
1761.0,-9.911,-2.217,2.663,-0.493,-0.575,-0.072
1765.0,-9.911,-2.217,2.663,-0.493,-0.575,-0.072
1769.0,-8.49,-2.018,2.354,-0.405,-0.613,-0.202
1774.0,-8.49,-2.018,2.354,-0.405,-0.613,-0.202
1778.0,-7.578,-1.803,2.121,-0.299,-0.591,-0.383
1782.0,-7.578,-1.803,2.121,-0.299,-0.591,-0.383
1786.0,-7.578,-1.803,2.121,-0.299,-0.591,-0.383
1790.0,-6.991,-1.574,1.984,-0.185,-0.55,-0.565
1794.0,-6.991,-1.574,1.984,-0.185,-0.55,-0.565
1798.0,-6.708,-1.368,1.899,-0.067,-0.507,-0.705
1802.0,-6.708,-1.368,1.899,-0.067,-0.507,-0.705
1806.0,-6.708,-1.368,1.899,-0.067,-0.507,-0.705
1810.0,-6.735,-1.195,1.866,0.052,-0.45,-0.787
1814.0,-6.735,-1.195,1.866,0.052,-0.45,-0.787
1818.0,-6.971,-1.171,1.856,0.177,-0.384,-0.808
1822.0,-6.971,-1.171,1.856,0.177,-0.384,-0.808
1826.0,-6.971,-1.281,1.866,0.177,-0.384,-0.808
1830.0,-7.345,-1.281,1.866,0.304,-0.322,-0.776
1834.0,-7.345,-1.281,1.866,0.304,-0.322,-0.776
1838.0,-7.71,-1.451,1.877,0.429,-0.272,-0.711
1842.0,-7.71,-1.451,1.877,0.429,-0.272,-0.711
1846.0,-8.148,-1.646,1.939,0.429,-0.272,-0.711
1850.0,-8.148,-1.646,1.939,0.544,-0.236,-0.628
1854.0,-8.148,-1.646,1.939,0.544,-0.236,-0.628
1858.0,-8.542,-1.811,1.981,0.644,-0.214,-0.537
1862.0,-8.542,-1.811,1.981,0.644,-0.214,-0.537
1866.0,-8.885,-1.939,1.996,0.644,-0.214,-0.436
1870.0,-8.885,-1.939,1.996,0.721,-0.212,-0.436
1874.0,-8.885,-1.939,1.996,0.721,-0.212,-0.436
1878.0,-9.203,-2.065,2.006,0.774,-0.222,-0.322
1882.0,-9.203,-2.065,2.006,0.774,-0.222,-0.322
1886.0,-9.498,-2.185,1.938,0.802,-0.235,-0.198
1890.0,-9.498,-2.185,1.938,0.802,-0.235,-0.198
1894.0,-9.498,-2.185,1.938,0.802,-0.235,-0.198
1898.0,-9.842,-2.287,1.837,0.804,-0.242,-0.074
1902.0,-9.842,-2.287,1.837,0.804,-0.242,-0.074
1906.0,-10.225,-2.363,1.759,0.785,-0.233,0.045
1910.0,-10.225,-2.363,1.759,0.785,-0.233,0.045
1914.0,-10.225,-2.363,1.759,0.785,-0.233,0.045
1918.0,-10.604,-2.393,1.762,0.751,-0.217,0.152
1922.0,-10.604,-2.393,1.762,0.751,-0.217,0.152
1926.0,-10.775,-2.359,1.816,0.708,-0.207,0.242
1930.0,-10.775,-2.359,1.816,0.708,-0.207,0.242
1934.0,-10.775,-2.359,1.816,0.708,-0.207,0.242
1938.0,-10.685,-2.279,1.85,0.666,-0.213,0.304
1942.0,-10.685,-2.279,1.85,0.666,-0.213,0.304
1946.0,-10.446,-2.155,1.822,0.632,-0.225,0.325
1950.0,-10.446,-2.155,1.822,0.632,-0.225,0.325
1954.0,-10.446,-2.155,1.822,0.632,-0.225,0.325
1958.0,-10.151,-2.017,1.788,0.612,-0.226,0.305
1962.0,-10.151,-2.017,1.788,0.612,-0.226,0.305
1966.0,-9.77,-1.908,1.825,0.61,-0.221,0.254
1970.0,-9.77,-1.908,1.825,0.61,-0.221,0.254
1974.0,-9.77,-1.908,1.825,0.61,-0.221,0.254
1978.0,-9.341,-1.781,1.837,0.628,-0.219,0.183
1982.0,-9.341,-1.781,1.837,0.628,-0.219,0.183
1986.0,-9.039,-1.658,1.817,0.667,-0.215,0.101
1989.0,-9.039,-1.658,1.817,0.667,-0.215,0.101
1993.0,-9.039,-1.658,1.817,0.667,-0.215,0.101
1997.0,-8.923,-1.565,1.799,0.724,-0.205,0.018
2001.0,-8.923,-1.565,1.799,0.724,-0.205,0.018
2005.0,-9.026,-1.509,1.769,0.796,-0.193,-0.051
2009.0,-9.026,-1.509,1.769,0.796,-0.193,-0.051
2013.0,-9.026,-1.509,1.769,0.796,-0.193,-0.051
2017.0,-9.207,-1.512,1.697,0.879,-0.183,-0.094
2021.0,-9.207,-1.512,1.697,0.879,-0.183,-0.094
2025.0,-9.463,-1.574,1.61,0.966,-0.173,-0.11
2029.0,-9.463,-1.574,1.61,0.966,-0.173,-0.11
2033.0,-9.463,-1.574,1.61,0.966,-0.173,-0.11
2037.0,-9.786,-1.703,1.563,1.049,-0.161,-0.106
2041.0,-9.786,-1.703,1.563,1.049,-0.161,-0.106
2045.0,-10.035,-1.865,1.519,1.121,-0.154,-0.092
2049.0,-10.035,-1.865,1.519,1.121,-0.154,-0.092
2053.0,-10.035,-1.865,1.524,1.121,-0.154,-0.092
2057.0,-10.144,-2.006,1.524,1.18,-0.16,-0.079
2061.0,-10.144,-2.006,1.524,1.18,-0.16,-0.079
2065.0,-10.175,-2.072,1.473,1.221,-0.174,-0.072
2069.0,-10.175,-2.072,1.473,1.221,-0.174,-0.072
2074.0,-10.264,-2.128,1.433,1.221,-0.186,-0.072
2078.0,-10.264,-2.128,1.433,1.244,-0.186,-0.072
2082.0,-10.264,-2.128,1.433,1.244,-0.186,-0.072
2086.0,-10.283,-2.113,1.401,1.255,-0.189,-0.074
2090.0,-10.283,-2.113,1.401,1.255,-0.189,-0.074
2094.0,-10.158,-2.051,1.392,1.249,-0.196,-0.079
2098.0,-10.158,-2.051,1.392,1.249,-0.196,-0.079
2102.0,-10.158,-2.051,1.392,1.249,-0.196,-0.079
2106.0,-9.839,-1.983,1.388,1.229,-0.211,-0.088
2110.0,-9.839,-1.983,1.388,1.229,-0.211,-0.088
2114.0,-9.495,-1.888,1.33,1.202,-0.227,-0.101
2118.0,-9.495,-1.888,1.33,1.202,-0.227,-0.101
2122.0,-9.495,-1.888,1.202,1.202,-0.227,-0.101
2126.0,-9.361,-1.787,1.202,1.176,-0.228,-0.117
2130.0,-9.361,-1.787,1.202,1.176,-0.228,-0.117
2134.0,-9.381,-1.725,1.145,1.158,-0.21,-0.124
2138.0,-9.381,-1.725,1.145,1.158,-0.21,-0.124
2142.0,-9.381,-1.693,1.142,1.158,-0.21,-0.124
2146.0,-9.348,-1.693,1.142,1.149,-0.188,-0.114
2150.0,-9.348,-1.693,1.142,1.149,-0.188,-0.114
2154.0,-9.311,-1.699,1.082,1.147,-0.177,-0.093
2158.0,-9.311,-1.699,1.082,1.147,-0.177,-0.093
2162.0,-9.435,-1.698,0.97,1.147,-0.177,-0.093
2166.0,-9.435,-1.698,0.97,1.147,-0.163,-0.072
2170.0,-9.435,-1.698,0.97,1.147,-0.163,-0.072
2174.0,-9.575,-1.734,0.916,1.146,-0.14,-0.054
2178.0,-9.575,-1.734,0.916,1.146,-0.14,-0.054
2182.0,-9.577,-1.78,0.916,1.146,-0.14,-0.038
2186.0,-9.577,-1.78,0.916,1.144,-0.122,-0.038
2190.0,-9.577,-1.78,0.916,1.144,-0.122,-0.038
2194.0,-9.398,-1.832,0.906,1.145,-0.117,-0.025
2198.0,-9.398,-1.832,0.906,1.145,-0.117,-0.025
2202.0,-9.22,-1.855,0.858,1.151,-0.115,-0.023
2206.0,-9.22,-1.855,0.858,1.151,-0.115,-0.023
2210.0,-9.22,-1.855,0.858,1.151,-0.115,-0.023
2214.0,-9.135,-1.841,0.756,1.165,-0.111,-0.036
2218.0,-9.135,-1.841,0.756,1.165,-0.111,-0.036
2222.0,-9.173,-1.83,0.617,1.183,-0.1,-0.056
2226.0,-9.173,-1.83,0.617,1.183,-0.1,-0.056
2230.0,-9.173,-1.83,0.617,1.183,-0.1,-0.056
2234.0,-9.325,-1.813,0.495,1.204,-0.083,-0.072
2238.0,-9.325,-1.813,0.495,1.204,-0.083,-0.072
2242.0,-9.584,-1.811,0.408,1.223,-0.057,-0.076
2246.0,-9.584,-1.811,0.408,1.223,-0.057,-0.076
2250.0,-9.584,-1.811,0.408,1.223,-0.057,-0.076
2254.0,-9.848,-1.841,0.402,1.24,-0.028,-0.067
2258.0,-9.848,-1.841,0.402,1.24,-0.028,-0.067
2262.0,-9.954,-1.904,0.443,1.258,-0.012,-0.051
2266.0,-9.954,-1.904,0.443,1.258,-0.012,-0.051
2270.0,-9.954,-1.904,0.443,1.258,-0.012,-0.051
2274.0,-9.933,-1.961,0.491,1.28,-0.012,-0.033
2278.0,-9.933,-1.961,0.491,1.28,-0.012,-0.033
2282.0,-9.84,-2.001,0.457,1.308,-0.023,-0.026
2286.0,-9.84,-2.001,0.457,1.308,-0.023,-0.026
2290.0,-9.84,-2.001,0.381,1.308,-0.023,-0.026
2294.0,-9.754,-1.99,0.381,1.339,-0.036,-0.027
2298.0,-9.754,-1.99,0.381,1.339,-0.036,-0.027
2302.0,-9.696,-1.954,0.325,1.369,-0.045,-0.036
2306.0,-9.696,-1.954,0.325,1.369,-0.045,-0.036
2310.0,-9.696,-1.906,0.267,1.369,-0.045,-0.036
2314.0,-9.666,-1.906,0.267,1.394,-0.049,-0.046
2318.0,-9.666,-1.906,0.267,1.394,-0.049,-0.046
2322.0,-9.845,-1.863,0.14,1.407,-0.044,-0.052
2326.0,-9.845,-1.863,0.14,1.407,-0.044,-0.052
2330.0,-10.149,-1.856,0.087,1.407,-0.044,-0.052
2334.0,-10.149,-1.856,0.087,1.405,-0.028,-0.049
2338.0,-10.149,-1.856,0.087,1.405,-0.028,-0.049
2342.0,-10.368,-1.896,0.143,1.39,-0.011,-0.037
2346.0,-10.368,-1.896,0.143,1.39,-0.011,-0.037
2350.0,-10.479,-1.956,0.203,1.368,-0.005,-0.022
2354.0,-10.479,-1.956,0.203,1.368,-0.005,-0.022
2358.0,-10.479,-1.956,0.203,1.368,-0.005,-0.022
2362.0,-10.476,-2.015,0.248,1.346,-0.008,-0.008
2367.0,-10.476,-2.015,0.248,1.346,-0.008,-0.008
2371.0,-10.453,-2.048,0.266,1.326,-0.014,-0.004
2375.0,-10.453,-2.048,0.266,1.326,-0.014,-0.004
2379.0,-10.453,-2.048,0.232,1.326,-0.014,-0.004
2383.0,-10.491,-2.06,0.232,1.309,-0.017,-0.008
2387.0,-10.491,-2.06,0.232,1.309,-0.017,-0.008
2391.0,-10.519,-2.06,0.224,1.292,-0.016,-0.014
2395.0,-10.519,-2.06,0.224,1.292,-0.016,-0.014
2399.0,-10.503,-2.068,0.266,1.292,-0.016,-0.02
2403.0,-10.503,-2.068,0.266,1.275,-0.01,-0.02
2407.0,-10.503,-2.068,0.266,1.275,-0.01,-0.02
2411.0,-10.469,-2.093,0.318,1.259,-0.008,-0.026
2415.0,-10.469,-2.093,0.318,1.259,-0.008,-0.026
2420.0,-10.519,-2.124,0.305,1.247,-0.009,-0.038
2424.0,-10.519,-2.124,0.305,1.247,-0.009,-0.038
2428.0,-10.519,-2.124,0.305,1.247,-0.009,-0.038
2432.0,-10.627,-2.159,0.285,1.239,-0.009,-0.055
2436.0,-10.627,-2.159,0.285,1.239,-0.009,-0.055
2440.0,-10.717,-2.208,0.307,1.236,-0.01,-0.074
2444.0,-10.717,-2.208,0.307,1.236,-0.01,-0.074
2448.0,-10.717,-2.256,0.304,1.236,-0.01,-0.074
2452.0,-10.811,-2.256,0.304,1.237,-0.014,-0.092
2456.0,-10.811,-2.256,0.304,1.237,-0.014,-0.092
2460.0,-10.819,-2.277,0.34,1.243,-0.021,-0.109
2464.0,-10.819,-2.277,0.34,1.243,-0.021,-0.109
2469.0,-10.848,-2.295,0.351,1.255,-0.031,-0.129
2473.0,-10.848,-2.295,0.351,1.255,-0.031,-0.129
2477.0,-10.848,-2.295,0.351,1.255,-0.031,-0.129
2481.0,-10.922,-2.311,0.348,1.271,-0.042,-0.155
2485.0,-10.922,-2.311,0.348,1.271,-0.042,-0.155
2489.0,-10.999,-2.326,0.334,1.29,-0.054,-0.18
2493.0,-10.999,-2.326,0.334,1.29,-0.054,-0.18
2497.0,-10.999,-2.326,0.334,1.29,-0.054,-0.18
2501.0,-11.056,-2.337,0.365,1.312,-0.065,-0.204
2505.0,-11.056,-2.337,0.365,1.312,-0.065,-0.204
2509.0,-11.014,-2.376,0.43,1.337,-0.081,-0.226
2513.0,-11.014,-2.376,0.43,1.337,-0.081,-0.226
2517.0,-10.993,-2.383,0.444,1.337,-0.081,-0.226
2522.0,-10.993,-2.383,0.444,1.366,-0.102,-0.246
2526.0,-10.993,-2.383,0.444,1.366,-0.102,-0.246
2530.0,-10.994,-2.389,0.432,1.399,-0.122,-0.27
2534.0,-10.994,-2.389,0.432,1.399,-0.122,-0.27
2538.0,-10.959,-2.375,0.423,1.432,-0.144,-0.295
2542.0,-10.959,-2.375,0.423,1.432,-0.144,-0.295
2546.0,-10.959,-2.375,0.423,1.432,-0.144,-0.295
2550.0,-10.913,-2.35,0.386,1.461,-0.166,-0.32
2554.0,-10.913,-2.35,0.386,1.461,-0.166,-0.32
2558.0,-10.853,-2.283,0.385,1.484,-0.186,-0.344
2562.0,-10.853,-2.283,0.385,1.484,-0.186,-0.344
2566.0,-10.853,-2.283,0.432,1.484,-0.186,-0.344
2571.0,-10.736,-2.265,0.432,1.5,-0.203,-0.364
2575.0,-10.736,-2.265,0.432,1.5,-0.203,-0.364
2579.0,-10.574,-2.234,0.443,1.512,-0.224,-0.383
2583.0,-10.574,-2.234,0.443,1.512,-0.224,-0.383
2587.0,-10.485,-2.179,0.444,1.512,-0.245,-0.404
2591.0,-10.485,-2.179,0.444,1.52,-0.245,-0.404
2595.0,-10.485,-2.179,0.444,1.52,-0.245,-0.404
2599.0,-10.576,-2.149,0.369,1.522,-0.259,-0.422
2603.0,-10.576,-2.149,0.369,1.522,-0.259,-0.422
2607.0,-10.756,-2.151,0.362,1.514,-0.264,-0.435
2611.0,-10.756,-2.151,0.362,1.514,-0.264,-0.435
2615.0,-10.756,-2.151,0.362,1.514,-0.264,-0.435
2619.0,-10.841,-2.154,0.425,1.501,-0.272,-0.439
2624.0,-10.841,-2.154,0.425,1.501,-0.272,-0.439
2628.0,-11.012,-2.165,0.424,1.486,-0.286,-0.437
2632.0,-11.012,-2.165,0.424,1.486,-0.286,-0.437
2636.0,-11.223,-2.21,0.381,1.486,-0.286,-0.437
2640.0,-11.223,-2.21,0.381,1.469,-0.296,-0.43
2644.0,-11.223,-2.21,0.381,1.469,-0.296,-0.43
2648.0,-11.362,-2.271,0.338,1.453,-0.305,-0.421
2652.0,-11.362,-2.271,0.338,1.453,-0.305,-0.421
2656.0,-11.41,-2.325,0.32,1.44,-0.313,-0.406
2660.0,-11.41,-2.325,0.32,1.44,-0.313,-0.406
2664.0,-11.41,-2.325,0.32,1.44,-0.313,-0.406
2668.0,-11.318,-2.383,0.361,1.432,-0.317,-0.39
2673.0,-11.318,-2.383,0.361,1.432,-0.317,-0.39
2677.0,-11.233,-2.424,0.342,1.432,-0.318,-0.374
2681.0,-11.233,-2.424,0.342,1.432,-0.318,-0.374
2685.0,-11.233,-2.424,0.336,1.432,-0.318,-0.374
2689.0,-11.223,-2.433,0.336,1.439,-0.315,-0.359
2693.0,-11.223,-2.433,0.336,1.439,-0.315,-0.359
2697.0,-11.214,-2.488,0.36,1.452,-0.306,-0.345
2701.0,-11.214,-2.488,0.36,1.452,-0.306,-0.345
2705.0,-11.193,-2.51,0.374,1.452,-0.306,-0.332
2709.0,-11.193,-2.51,0.374,1.473,-0.3,-0.332
2713.0,-11.193,-2.51,0.374,1.473,-0.3,-0.332
2717.0,-11.23,-2.523,0.389,1.497,-0.295,-0.318
2721.0,-11.23,-2.523,0.389,1.497,-0.295,-0.318
2726.0,-11.188,-2.588,0.415,1.526,-0.289,-0.299
2730.0,-11.188,-2.588,0.415,1.526,-0.289,-0.299
2734.0,-11.188,-2.588,0.415,1.526,-0.289,-0.299
2738.0,-11.009,-2.618,0.468,1.562,-0.291,-0.284
2742.0,-11.009,-2.618,0.468,1.562,-0.291,-0.284
2746.0,-10.928,-2.634,0.422,1.601,-0.3,-0.278
2750.0,-10.928,-2.634,0.422,1.601,-0.3,-0.278
2754.0,-10.928,-2.641,0.365,1.601,-0.3,-0.278
2758.0,-10.981,-2.641,0.365,1.642,-0.304,-0.277
2762.0,-10.981,-2.641,0.365,1.642,-0.304,-0.277
2766.0,-10.783,-2.676,0.443,1.685,-0.309,-0.273
2770.0,-10.783,-2.676,0.443,1.685,-0.309,-0.273
2775.0,-10.402,-2.683,0.502,1.733,-0.332,-0.27
2779.0,-10.402,-2.683,0.502,1.733,-0.332,-0.27
2783.0,-10.402,-2.683,0.502,1.733,-0.332,-0.27
2787.0,-10.18,-2.653,0.42,1.785,-0.359,-0.279
2791.0,-10.18,-2.653,0.42,1.785,-0.359,-0.279
2795.0,-10.173,-2.608,0.297,1.835,-0.372,-0.298
2799.0,-10.173,-2.608,0.297,1.835,-0.372,-0.298
2803.0,-10.173,-2.608,0.297,1.835,-0.372,-0.298
2807.0,-10.365,-2.554,0.198,1.876,-0.375,-0.317
2811.0,-10.365,-2.554,0.198,1.876,-0.375,-0.317
2815.0,-10.671,-2.531,0.186,1.907,-0.375,-0.323
2819.0,-10.671,-2.531,0.186,1.907,-0.375,-0.323
2823.0,-11.017,-2.553,0.237,1.907,-0.375,-0.323
2828.0,-11.017,-2.553,0.237,1.927,-0.376,-0.316
2832.0,-11.017,-2.553,0.237,1.927,-0.376,-0.316
2836.0,-11.33,-2.591,0.304,1.938,-0.386,-0.3
2840.0,-11.33,-2.591,0.304,1.938,-0.386,-0.3
2844.0,-11.502,-2.63,0.339,1.943,-0.412,-0.284
2848.0,-11.502,-2.63,0.339,1.943,-0.412,-0.284
2852.0,-11.502,-2.63,0.339,1.943,-0.412,-0.284
2856.0,-11.535,-2.639,0.329,1.942,-0.447,-0.276
2860.0,-11.535,-2.639,0.329,1.942,-0.447,-0.276
2864.0,-11.468,-2.611,0.271,1.938,-0.482,-0.277
2868.0,-11.468,-2.611,0.271,1.938,-0.482,-0.277
2872.0,-11.468,-2.611,0.167,1.938,-0.482,-0.277
2877.0,-11.407,-2.541,0.167,1.928,-0.51,-0.287
2881.0,-11.407,-2.541,0.167,1.928,-0.51,-0.287
2885.0,-11.406,-2.483,0.079,1.914,-0.529,-0.303
2889.0,-11.406,-2.483,0.079,1.914,-0.529,-0.303
2893.0,-11.527,-2.434,0.026,1.914,-0.541,-0.321
2897.0,-11.527,-2.434,0.026,1.896,-0.541,-0.321
2901.0,-11.527,-2.434,0.026,1.896,-0.541,-0.321
2905.0,-11.647,-2.426,-0.029,1.873,-0.552,-0.342
2909.0,-11.647,-2.426,-0.029,1.873,-0.552,-0.342
2913.0,-11.707,-2.42,-0.015,1.851,-0.566,-0.366
2918.0,-11.707,-2.42,-0.015,1.851,-0.566,-0.366
2922.0,-11.707,-2.42,0.018,1.851,-0.566,-0.366
2926.0,-11.682,-2.438,0.018,1.831,-0.585,-0.396
2930.0,-11.682,-2.438,0.018,1.831,-0.585,-0.396
2934.0,-11.544,-2.437,0.039,1.814,-0.608,-0.434
2938.0,-11.544,-2.437,0.039,1.814,-0.608,-0.434
2942.0,-11.408,-2.41,0.016,1.814,-0.63,-0.481
2946.0,-11.408,-2.41,0.016,1.803,-0.63,-0.481
2950.0,-11.408,-2.41,0.016,1.803,-0.63,-0.481
2954.0,-11.367,-2.359,-0.026,1.795,-0.646,-0.532
2959.0,-11.367,-2.359,-0.026,1.795,-0.646,-0.532
2963.0,-11.331,-2.332,-0.04,1.788,-0.658,-0.579
2967.0,-11.331,-2.332,-0.04,1.788,-0.658,-0.579
2971.0,-11.331,-2.332,-0.072,1.788,-0.658,-0.579
2975.0,-11.407,-2.304,-0.072,1.78,-0.665,-0.618
2979.0,-11.407,-2.304,-0.072,1.78,-0.665,-0.618
2984.0,-11.531,-2.317,-0.05,1.771,-0.67,-0.648
2988.0,-11.531,-2.317,-0.05,1.771,-0.67,-0.648
2992.0,-11.617,-2.35,-0.046,1.758,-0.676,-0.668
2996.0,-11.617,-2.35,-0.046,1.758,-0.676,-0.668
3000.0,-11.617,-2.35,-0.046,1.758,-0.676,-0.668
