deltaTime,Acc_X,Acc_Y,Acc_Z,Gyro_X,Gyro_Y,Gyro_Z
0.0,-9.811,-1.834,1.656,-0.013,0.048,-0.009
3.0,-9.811,-1.834,1.656,-0.013,0.048,-0.009
6.0,-9.811,-1.834,1.656,-0.013,0.048,-0.009
9.0,-10.163,-1.78,1.571,-0.013,0.048,-0.009
12.0,-10.163,-1.78,1.571,-0.07,0.06,-0.015
15.0,-10.163,-1.78,1.571,-0.07,0.06,-0.015
18.0,-10.163,-1.78,1.571,-0.07,0.06,-0.015
21.0,-10.356,-1.853,1.606,-0.152,0.086,-0.012
24.0,-10.356,-1.853,1.606,-0.152,0.086,-0.012
27.0,-10.356,-1.853,1.606,-0.152,0.086,-0.012
30.0,-9.945,-1.896,1.61,-0.223,0.112,-0.018
34.0,-9.945,-1.896,1.61,-0.223,0.112,-0.018
38.0,-9.945,-1.896,1.61,-0.223,0.112,-0.018
42.0,-9.513,-1.926,1.569,-0.282,0.157,-0.054
45.0,-9.513,-1.926,1.569,-0.282,0.157,-0.054
49.0,-9.537,-1.954,1.776,-0.315,0.206,-0.098
53.0,-9.537,-1.954,1.776,-0.315,0.206,-0.098
57.0,-9.537,-1.954,1.776,-0.315,0.206,-0.098
61.0,-9.755,-1.816,1.96,-0.31,0.238,-0.134
64.0,-9.755,-1.816,1.96,-0.31,0.238,-0.134
68.0,-9.9,-1.546,2.029,-0.31,0.238,-0.134
72.0,-9.9,-1.546,2.029,-0.296,0.252,-0.168
76.0,-9.9,-1.546,2.029,-0.296,0.252,-0.168
80.0,-9.866,-1.299,2.111,-0.3,0.263,-0.186
84.0,-9.866,-1.299,2.111,-0.3,0.263,-0.186
87.0,-9.866,-1.299,2.111,-0.3,0.263,-0.186
91.0,-9.813,-1.134,2.204,-0.328,0.279,-0.183
95.0,-9.813,-1.134,2.204,-0.328,0.279,-0.183
99.0,-9.668,-1.127,2.378,-0.376,0.296,-0.171
103.0,-9.668,-1.127,2.378,-0.376,0.296,-0.171
107.0,-9.668,-1.127,2.378,-0.376,0.296,-0.171
110.0,-9.698,-1.136,2.387,-0.419,0.299,-0.141
114.0,-9.698,-1.136,2.387,-0.419,0.299,-0.141
118.0,-9.857,-1.131,2.487,-0.471,0.294,-0.102
122.0,-9.857,-1.131,2.487,-0.471,0.294,-0.102
126.0,-9.857,-1.131,2.487,-0.471,0.294,-0.102
130.0,-9.535,-1.317,2.651,-0.525,0.274,-0.064
134.0,-9.535,-1.317,2.651,-0.525,0.274,-0.064
138.0,-9.112,-1.604,2.697,-0.554,0.24,-0.025
142.0,-9.112,-1.604,2.697,-0.554,0.24,-0.025
146.0,-9.112,-1.604,2.697,-0.554,0.24,-0.025
149.0,-9.086,-1.829,2.7,-0.547,0.221,0.012
153.0,-9.086,-1.829,2.7,-0.547,0.221,0.012
157.0,-9.136,-1.939,2.67,-0.547,0.221,0.039
161.0,-9.136,-1.939,2.67,-0.518,0.21,0.039
165.0,-9.136,-1.939,2.67,-0.518,0.21,0.039
169.0,-9.133,-1.905,2.401,-0.491,0.203,0.048
172.0,-9.133,-1.905,2.401,-0.491,0.203,0.048
176.0,-9.133,-1.905,2.401,-0.491,0.203,0.048
180.0,-9.512,-1.927,2.34,-0.481,0.22,0.056
184.0,-9.512,-1.927,2.34,-0.481,0.22,0.056
188.0,-10.027,-2.14,2.628,-0.455,0.244,0.077
192.0,-10.027,-2.14,2.628,-0.455,0.244,0.077
195.0,-10.027,-2.14,2.628,-0.455,0.244,0.077
199.0,-10.022,-2.352,2.891,-0.368,0.225,0.084
203.0,-10.022,-2.352,2.891,-0.368,0.225,0.084
207.0,-9.939,-2.384,2.941,-0.221,0.173,0.084
211.0,-9.939,-2.384,2.941,-0.221,0.173,0.084
215.0,-9.939,-2.384,2.941,-0.221,0.173,0.084
219.0,-10.021,-2.202,2.972,-0.061,0.134,0.092
223.0,-10.021,-2.202,2.972,-0.061,0.134,0.092
226.0,-9.839,-1.852,2.813,-0.061,0.088,0.089
230.0,-9.839,-1.852,2.813,0.068,0.088,0.089
234.0,-9.839,-1.852,2.813,0.068,0.088,0.089
238.0,-9.687,-1.511,2.728,0.141,0.045,0.081
241.0,-9.687,-1.511,2.728,0.141,0.045,0.081
245.0,-9.687,-1.511,2.728,0.141,0.045,0.081
249.0,-9.478,-1.324,2.74,0.166,0.018,0.081
253.0,-9.478,-1.324,2.74,0.166,0.018,0.081
256.0,-9.323,-1.386,2.702,0.169,0.009,0.078
260.0,-9.323,-1.386,2.702,0.169,0.009,0.078
264.0,-9.323,-1.386,2.702,0.169,0.009,0.078
268.0,-9.291,-1.394,2.64,0.18,0.008,0.07
271.0,-9.291,-1.394,2.64,0.18,0.008,0.07
275.0,-9.291,-1.394,2.716,0.18,0.008,0.07
279.0,-9.918,-1.235,2.716,0.197,0.019,0.053
283.0,-9.918,-1.235,2.716,0.197,0.019,0.053
286.0,-10.409,-1.11,2.63,0.194,0.004,0.014
290.0,-10.409,-1.11,2.63,0.194,0.004,0.014
294.0,-10.409,-1.11,2.63,0.194,0.004,0.014
298.0,-9.84,-0.804,2.66,0.171,-0.033,-0.033
302.0,-9.84,-0.804,2.66,0.171,-0.033,-0.033
306.0,-9.8,-0.858,2.755,0.171,0.014,-0.048
309.0,-9.8,-0.858,2.755,0.117,0.014,-0.048
313.0,-9.8,-0.858,2.755,0.117,0.014,-0.048
317.0,-9.737,-0.806,2.833,0.089,0.022,-0.069
321.0,-9.737,-0.806,2.833,0.089,0.022,-0.069
325.0,-9.737,-0.739,2.843,0.089,0.022,-0.069
328.0,-9.61,-0.739,2.843,0.064,0.035,-0.103
332.0,-9.61,-0.739,2.843,0.064,0.035,-0.103
336.0,-9.395,-0.624,2.559,0.035,0.046,-0.137
340.0,-9.395,-0.624,2.559,0.035,0.046,-0.137
344.0,-9.395,-0.624,2.559,0.035,0.046,-0.137
348.0,-9.575,-0.482,2.198,-0.02,-0.002,-0.151
352.0,-9.575,-0.482,2.198,-0.02,-0.002,-0.151
356.0,-10.237,-0.532,2.095,-0.099,-0.144,-0.132
360.0,-10.237,-0.532,2.095,-0.099,-0.144,-0.132
364.0,-10.237,-0.532,2.095,-0.099,-0.144,-0.132
368.0,-10.555,-0.69,2.009,-0.166,-0.278,-0.107
372.0,-10.555,-0.69,2.009,-0.166,-0.278,-0.107
376.0,-9.876,-0.717,1.735,-0.207,-0.373,-0.097
380.0,-9.876,-0.717,1.735,-0.207,-0.373,-0.097
384.0,-9.265,-0.736,1.421,-0.207,-0.373,-0.097
388.0,-9.265,-0.736,1.421,-0.247,-0.408,-0.085
392.0,-9.265,-0.736,1.421,-0.247,-0.408,-0.085
396.0,-8.979,-0.779,1.232,-0.295,-0.394,-0.058
400.0,-8.979,-0.779,1.232,-0.295,-0.394,-0.058
404.0,-8.98,-0.819,1.132,-0.295,-0.394,-0.058
408.0,-8.98,-0.819,1.132,-0.353,-0.353,-0.018
412.0,-8.98,-0.819,1.132,-0.353,-0.353,-0.018
416.0,-9.147,-0.815,1.121,-0.419,-0.307,0.026
420.0,-9.147,-0.815,1.121,-0.419,-0.307,0.026
424.0,-9.328,-0.851,1.14,-0.419,-0.307,0.074
428.0,-9.328,-0.851,1.14,-0.492,-0.27,0.074
432.0,-9.328,-0.851,1.14,-0.492,-0.27,0.074
435.0,-9.387,-0.865,1.221,-0.566,-0.243,0.128
439.0,-9.387,-0.865,1.221,-0.566,-0.243,0.128
443.0,-9.308,-0.883,1.285,-0.566,-0.243,0.128
447.0,-9.308,-0.883,1.285,-0.641,-0.228,0.188
451.0,-9.308,-0.883,1.285,-0.641,-0.228,0.188
455.0,-9.174,-0.943,1.329,-0.711,-0.218,0.248
459.0,-9.174,-0.943,1.329,-0.711,-0.218,0.248
463.0,-9.174,-0.986,1.333,-0.711,-0.218,0.248
467.0,-9.1,-0.986,1.333,-0.775,-0.209,0.308
471.0,-9.1,-0.986,1.333,-0.775,-0.209,0.308
474.0,-9.314,-1.041,1.313,-0.837,-0.199,0.365
478.0,-9.314,-1.041,1.313,-0.837,-0.199,0.365
482.0,-9.314,-1.041,1.168,-0.837,-0.199,0.365
486.0,-9.644,-1.105,1.168,-0.897,-0.185,0.425
490.0,-9.644,-1.105,1.168,-0.897,-0.185,0.425
494.0,-9.955,-1.141,1.062,-0.957,-0.162,0.491
498.0,-9.955,-1.141,1.062,-0.957,-0.162,0.491
502.0,-9.955,-1.141,1.062,-0.957,-0.162,0.491
506.0,-10.099,-1.174,1.067,-1.015,-0.14,0.561
510.0,-10.099,-1.174,1.067,-1.015,-0.14,0.561
514.0,-9.982,-1.196,1.035,-1.069,-0.128,0.63
518.0,-9.982,-1.196,1.035,-1.069,-0.128,0.63
522.0,-9.982,-1.196,1.035,-1.069,-0.128,0.63
525.0,-9.633,-1.199,0.964,-1.116,-0.126,0.685
529.0,-9.633,-1.199,0.964,-1.116,-0.126,0.685
533.0,-9.401,-1.204,0.882,-1.155,-0.119,0.725
537.0,-9.401,-1.204,0.882,-1.155,-0.119,0.725
541.0,-9.401,-1.204,0.882,-1.155,-0.119,0.725
545.0,-9.369,-1.203,0.771,-1.184,-0.098,0.748
549.0,-9.369,-1.203,0.771,-1.184,-0.098,0.748
553.0,-9.634,-1.191,0.704,-1.206,-0.06,0.766
557.0,-9.634,-1.191,0.704,-1.206,-0.06,0.766
561.0,-9.634,-1.191,0.704,-1.206,-0.06,0.766
564.0,-10.058,-1.214,0.72,-1.22,-0.013,0.794
568.0,-10.058,-1.214,0.72,-1.22,-0.013,0.794
572.0,-10.296,-1.282,0.921,-1.227,0.027,0.835
576.0,-10.296,-1.282,0.921,-1.227,0.027,0.835
580.0,-10.296,-1.282,0.921,-1.227,0.027,0.835
584.0,-10.386,-1.369,1.098,-1.224,0.04,0.876
588.0,-10.386,-1.369,1.098,-1.224,0.04,0.876
592.0,-10.355,-1.427,1.19,-1.207,0.034,0.904
596.0,-10.355,-1.427,1.19,-1.207,0.034,0.904
600.0,-10.355,-1.427,1.19,-1.207,0.034,0.904
604.0,-10.351,-1.456,1.178,-1.179,0.021,0.91
608.0,-10.351,-1.456,1.178,-1.179,0.021,0.91
612.0,-10.362,-1.428,1.07,-1.179,0.01,0.893
615.0,-10.362,-1.428,1.07,-1.15,0.01,0.893
619.0,-10.362,-1.428,1.07,-1.15,0.01,0.893
623.0,-10.303,-1.35,0.986,-1.127,0.005,0.866
627.0,-10.303,-1.35,0.986,-1.127,0.005,0.866
631.0,-10.192,-1.262,0.97,-1.127,0.005,0.837
635.0,-10.192,-1.262,0.97,-1.114,0.012,0.837
639.0,-10.192,-1.262,0.97,-1.114,0.012,0.837
643.0,-10.015,-1.223,0.98,-1.105,0.02,0.806
647.0,-10.015,-1.223,0.98,-1.105,0.02,0.806
651.0,-9.864,-1.2,0.979,-1.105,0.02,0.806
654.0,-9.864,-1.2,0.979,-1.096,0.026,0.772
658.0,-9.864,-1.2,0.979,-1.096,0.026,0.772
662.0,-9.744,-1.184,1.03,-1.08,0.034,0.734
666.0,-9.744,-1.184,1.03,-1.08,0.034,0.734
670.0,-9.744,-1.184,1.03,-1.08,0.034,0.734
674.0,-9.715,-1.195,1.044,-1.057,0.039,0.69
677.0,-9.715,-1.195,1.044,-1.057,0.039,0.69
681.0,-9.79,-1.192,1.015,-1.028,0.049,0.645
685.0,-9.79,-1.192,1.015,-1.028,0.049,0.645
689.0,-9.79,-1.192,1.015,-1.028,0.049,0.645
693.0,-9.973,-1.191,1.036,-0.998,0.063,0.601
696.0,-9.973,-1.191,1.036,-0.998,0.063,0.601
700.0,-10.14,-1.205,1.088,-0.998,0.083,0.563
704.0,-10.14,-1.205,1.088,-0.967,0.083,0.563
708.0,-10.14,-1.205,1.088,-0.967,0.083,0.563
712.0,-10.158,-1.242,1.187,-0.937,0.098,0.539
716.0,-10.158,-1.242,1.187,-0.937,0.098,0.539
720.0,-10.09,-1.327,1.336,-0.937,0.098,0.539
724.0,-10.09,-1.327,1.336,-0.904,0.103,0.523
728.0,-10.09,-1.327,1.336,-0.904,0.103,0.523
732.0,-10.24,-1.357,1.387,-0.86,0.103,0.51
735.0,-10.24,-1.357,1.387,-0.86,0.103,0.51
739.0,-10.442,-1.376,1.345,-0.86,0.103,0.51
743.0,-10.442,-1.376,1.345,-0.813,0.102,0.499
747.0,-10.442,-1.376,1.345,-0.813,0.102,0.499
751.0,-10.66,-1.387,1.276,-0.765,0.1,0.492
755.0,-10.66,-1.387,1.276,-0.765,0.1,0.492
759.0,-10.66,-1.387,1.202,-0.765,0.1,0.492
763.0,-10.886,-1.366,1.202,-0.72,0.101,0.488
767.0,-10.886,-1.366,1.202,-0.72,0.101,0.488
771.0,-10.909,-1.32,1.21,-0.682,0.103,0.49
774.0,-10.909,-1.32,1.21,-0.682,0.103,0.49
778.0,-10.909,-1.32,1.21,-0.682,0.103,0.49
782.0,-10.638,-1.23,1.257,-0.649,0.096,0.496
786.0,-10.638,-1.23,1.257,-0.649,0.096,0.496
790.0,-10.091,-1.177,1.369,-0.622,0.079,0.498
794.0,-10.091,-1.177,1.369,-0.622,0.079,0.498
798.0,-10.091,-1.177,1.369,-0.622,0.079,0.498
802.0,-9.591,-1.151,1.362,-0.597,0.059,0.488
806.0,-9.591,-1.151,1.362,-0.597,0.059,0.488
809.0,-9.473,-1.078,1.28,-0.573,0.055,0.463
813.0,-9.473,-1.078,1.28,-0.573,0.055,0.463
817.0,-9.473,-1.078,1.28,-0.573,0.055,0.463
821.0,-9.627,-1.015,1.191,-0.553,0.072,0.435
825.0,-9.627,-1.015,1.191,-0.553,0.072,0.435
829.0,-9.813,-0.967,1.174,-0.553,0.072,0.418
832.0,-9.813,-0.967,1.174,-0.544,0.093,0.418
836.0,-9.813,-0.967,1.174,-0.544,0.093,0.418
840.0,-9.943,-0.974,1.21,-0.542,0.107,0.417
844.0,-9.943,-0.974,1.21,-0.542,0.107,0.417
848.0,-9.943,-0.974,1.293,-0.542,0.107,0.417
851.0,-9.945,-1.04,1.293,-0.542,0.117,0.427
855.0,-9.945,-1.04,1.293,-0.542,0.117,0.427
859.0,-9.847,-1.137,1.408,-0.537,0.121,0.443
863.0,-9.847,-1.137,1.408,-0.537,0.121,0.443
867.0,-9.847,-1.137,1.408,-0.537,0.121,0.443
871.0,-9.698,-1.225,1.449,-0.523,0.119,0.463
874.0,-9.698,-1.225,1.449,-0.523,0.119,0.463
878.0,-9.503,-1.262,1.523,-0.499,0.115,0.483
882.0,-9.503,-1.262,1.523,-0.499,0.115,0.483
886.0,-9.503,-1.262,1.523,-0.499,0.115,0.483
890.0,-9.321,-1.271,1.523,-0.471,0.106,0.497
893.0,-9.321,-1.271,1.523,-0.471,0.106,0.497
897.0,-9.235,-1.22,1.466,-0.471,0.106,0.497
901.0,-9.235,-1.22,1.466,-0.435,0.1,0.505
905.0,-9.235,-1.22,1.466,-0.435,0.1,0.505
909.0,-9.31,-1.174,1.406,-0.399,0.099,0.511
913.0,-9.31,-1.174,1.406,-0.399,0.099,0.511
916.0,-9.31,-1.174,1.406,-0.399,0.099,0.511
920.0,-9.436,-1.153,1.338,-0.368,0.102,0.519
924.0,-9.436,-1.153,1.338,-0.368,0.102,0.519
928.0,-9.55,-1.146,1.294,-0.343,0.106,0.53
932.0,-9.55,-1.146,1.294,-0.343,0.106,0.53
936.0,-9.55,-1.146,1.294,-0.343,0.106,0.53
939.0,-9.459,-1.126,1.334,-0.326,0.108,0.542
943.0,-9.459,-1.126,1.334,-0.326,0.108,0.542
947.0,-9.325,-1.116,1.372,-0.326,0.108,0.554
951.0,-9.325,-1.116,1.372,-0.314,0.106,0.554
955.0,-9.325,-1.116,1.372,-0.314,0.106,0.554
958.0,-9.268,-1.083,1.366,-0.311,0.103,0.56
962.0,-9.268,-1.083,1.366,-0.311,0.103,0.56
966.0,-9.268,-1.083,1.396,-0.311,0.103,0.56
970.0,-9.148,-1.056,1.396,-0.318,0.105,0.562
974.0,-9.148,-1.056,1.396,-0.318,0.105,0.562
978.0,-9.008,-1.016,1.373,-0.333,0.107,0.56
981.0,-9.008,-1.016,1.373,-0.333,0.107,0.56
985.0,-9.008,-1.016,1.373,-0.333,0.107,0.56
989.0,-9.005,-0.992,1.344,-0.36,0.117,0.559
993.0,-9.005,-0.992,1.344,-0.36,0.117,0.559
997.0,-8.941,-1.0,1.321,-0.394,0.136,0.558
1000.0,-8.941,-1.0,1.321,-0.394,0.136,0.558
1004.0,-8.941,-1.0,1.321,-0.394,0.136,0.558
1008.0,-8.93,-1.025,1.285,-0.433,0.156,0.561
1012.0,-8.93,-1.025,1.285,-0.433,0.156,0.561
1016.0,-9.06,-1.089,1.266,-0.433,0.156,0.569
1020.0,-9.06,-1.089,1.266,-0.473,0.185,0.569
1024.0,-9.06,-1.089,1.266,-0.473,0.185,0.569
1028.0,-9.23,-1.189,1.297,-0.508,0.218,0.585
1032.0,-9.23,-1.189,1.297,-0.508,0.218,0.585
1036.0,-9.472,-1.31,1.305,-0.508,0.218,0.585
1039.0,-9.472,-1.31,1.305,-0.536,0.25,0.611
1043.0,-9.472,-1.31,1.305,-0.536,0.25,0.611
1047.0,-9.747,-1.421,1.421,-0.554,0.276,0.645
1051.0,-9.747,-1.421,1.421,-0.554,0.276,0.645
1055.0,-9.747,-1.524,1.569,-0.554,0.276,0.645
1059.0,-9.801,-1.524,1.569,-0.557,0.282,0.678
1063.0,-9.801,-1.524,1.569,-0.557,0.282,0.678
1067.0,-9.768,-1.582,1.615,-0.545,0.261,0.698
1071.0,-9.768,-1.582,1.615,-0.545,0.261,0.698
1075.0,-9.768,-1.582,1.598,-0.545,0.261,0.698
1079.0,-9.785,-1.6,1.598,-0.521,0.226,0.69
1082.0,-9.785,-1.6,1.598,-0.521,0.226,0.69
1086.0,-9.734,-1.573,1.499,-0.487,0.184,0.648
1090.0,-9.734,-1.573,1.499,-0.487,0.184,0.648
1094.0,-9.734,-1.573,1.499,-0.487,0.184,0.648
1098.0,-9.632,-1.467,1.38,-0.453,0.144,0.575
1102.0,-9.632,-1.467,1.38,-0.453,0.144,0.575
1106.0,-9.553,-1.309,1.357,-0.428,0.111,0.482
1110.0,-9.553,-1.309,1.357,-0.428,0.111,0.482
1114.0,-9.553,-1.309,1.357,-0.428,0.111,0.482
1118.0,-9.452,-1.213,1.275,-0.414,0.083,0.376
1122.0,-9.452,-1.213,1.275,-0.414,0.083,0.376
1125.0,-9.372,-1.129,1.21,-0.408,0.066,0.261
1129.0,-9.372,-1.129,1.21,-0.408,0.066,0.261
1133.0,-9.372,-1.129,1.21,-0.408,0.066,0.261
1137.0,-9.5,-1.077,1.234,-0.409,0.06,0.144
1141.0,-9.5,-1.077,1.234,-0.409,0.06,0.144
1145.0,-9.772,-1.032,1.315,-0.409,0.056,0.032
1149.0,-9.772,-1.032,1.315,-0.409,0.056,0.032
1153.0,-9.772,-1.032,1.315,-0.409,0.056,0.032
1157.0,-10.146,-0.976,1.493,-0.409,0.042,-0.068
1161.0,-10.146,-0.976,1.493,-0.409,0.042,-0.068
1165.0,-10.242,-0.912,1.728,-0.409,0.008,-0.156
1169.0,-10.242,-0.912,1.728,-0.409,0.008,-0.156
1173.0,-10.242,-0.912,1.728,-0.409,0.008,-0.156
1177.0,-9.668,-0.861,1.815,-0.415,-0.064,-0.236
1181.0,-9.668,-0.861,1.815,-0.415,-0.064,-0.236
1185.0,-9.132,-0.83,1.707,-0.435,-0.141,-0.327
1189.0,-9.132,-0.83,1.707,-0.435,-0.141,-0.327
1193.0,-8.96,-0.811,1.555,-0.435,-0.141,-0.327
1197.0,-8.96,-0.811,1.555,-0.473,-0.174,-0.43
1202.0,-8.96,-0.811,1.555,-0.473,-0.174,-0.43
1206.0,-9.045,-0.817,1.5,-0.519,-0.176,-0.526
1210.0,-9.045,-0.817,1.5,-0.519,-0.176,-0.526
1214.0,-9.324,-0.855,1.492,-0.567,-0.166,-0.601
1218.0,-9.324,-0.855,1.492,-0.567,-0.166,-0.601
1222.0,-9.324,-0.855,1.492,-0.567,-0.166,-0.601
1226.0,-9.746,-0.967,1.656,-0.607,-0.158,-0.651
1230.0,-9.746,-0.967,1.656,-0.607,-0.158,-0.651
1234.0,-10.174,-1.073,1.763,-0.63,-0.166,-0.683
1238.0,-10.174,-1.073,1.763,-0.63,-0.166,-0.683
1243.0,-10.174,-1.073,1.9,-0.63,-0.166,-0.683
1247.0,-10.41,-1.181,1.9,-0.632,-0.187,-0.697
1251.0,-10.41,-1.181,1.9,-0.632,-0.187,-0.697
1255.0,-10.549,-1.272,2.04,-0.62,-0.207,-0.701
1259.0,-10.549,-1.272,2.04,-0.62,-0.207,-0.701
1263.0,-10.595,-1.37,2.137,-0.59,-0.224,-0.698
1268.0,-10.595,-1.37,2.137,-0.59,-0.224,-0.698
1272.0,-10.595,-1.37,2.137,-0.59,-0.224,-0.698
1276.0,-10.518,-1.416,2.28,-0.544,-0.237,-0.694
1280.0,-10.518,-1.416,2.28,-0.544,-0.237,-0.694
1284.0,-10.085,-1.42,2.422,-0.479,-0.259,-0.696
1288.0,-10.085,-1.42,2.422,-0.479,-0.259,-0.696
1293.0,-9.29,-1.397,2.447,-0.479,-0.259,-0.71
1297.0,-9.29,-1.397,2.447,-0.396,-0.301,-0.71
1301.0,-9.29,-1.397,2.447,-0.396,-0.301,-0.71
1305.0,-8.655,-1.335,2.375,-0.3,-0.34,-0.741
1309.0,-8.655,-1.335,2.375,-0.3,-0.34,-0.741
1313.0,-8.414,-1.319,2.211,-0.194,-0.35,-0.783
1317.0,-8.414,-1.319,2.211,-0.194,-0.35,-0.783
1321.0,-8.414,-1.319,2.211,-0.194,-0.35,-0.783
1325.0,-8.656,-1.363,2.046,-0.074,-0.326,-0.814
1329.0,-8.656,-1.363,2.046,-0.074,-0.326,-0.814
1333.0,-9.293,-1.466,1.979,0.056,-0.286,-0.815
1337.0,-9.293,-1.466,1.979,0.056,-0.286,-0.815
1341.0,-9.293,-1.466,2.061,0.056,-0.286,-0.815
1345.0,-10.071,-1.633,2.061,0.199,-0.25,-0.785
1349.0,-10.071,-1.633,2.061,0.199,-0.25,-0.785
1353.0,-10.607,-1.784,2.218,0.357,-0.244,-0.733
1358.0,-10.607,-1.784,2.218,0.357,-0.244,-0.733
1362.0,-10.473,-1.883,2.357,0.357,-0.244,-0.671
1366.0,-10.473,-1.883,2.357,0.526,-0.28,-0.671
1370.0,-10.473,-1.883,2.357,0.526,-0.28,-0.671
1374.0,-9.815,-1.888,2.389,0.696,-0.343,-0.616
1378.0,-9.815,-1.888,2.389,0.696,-0.343,-0.616
1382.0,-9.144,-1.808,2.241,0.857,-0.396,-0.589
1386.0,-9.144,-1.808,2.241,0.857,-0.396,-0.589
1390.0,-9.144,-1.808,2.241,0.857,-0.396,-0.589
1394.0,-8.916,-1.676,1.884,1.0,-0.409,-0.59
1398.0,-8.916,-1.676,1.884,1.0,-0.409,-0.59
1402.0,-9.59,-1.554,1.714,1.117,-0.362,-0.59
1406.0,-9.59,-1.554,1.714,1.117,-0.362,-0.59
1410.0,-9.59,-1.554,1.714,1.117,-0.362,-0.59
1414.0,-10.751,-1.532,1.791,1.216,-0.288,-0.563
1418.0,-10.751,-1.532,1.791,1.216,-0.288,-0.563
1422.0,-11.581,-1.592,1.896,1.307,-0.247,-0.498
1426.0,-11.581,-1.592,1.896,1.307,-0.247,-0.498
1430.0,-11.581,-1.592,2.055,1.307,-0.247,-0.498
1434.0,-12.055,-1.672,2.055,1.4,-0.244,-0.416
1438.0,-12.055,-1.672,2.055,1.4,-0.244,-0.416
1442.0,-11.856,-1.686,2.24,1.499,-0.282,-0.341
1446.0,-11.856,-1.686,2.24,1.499,-0.282,-0.341
1451.0,-10.946,-1.624,2.067,1.499,-0.355,-0.284
1455.0,-10.946,-1.624,2.067,1.596,-0.355,-0.284
1459.0,-10.946,-1.624,2.067,1.596,-0.355,-0.284
1463.0,-10.446,-1.495,1.8,1.671,-0.393,-0.256
1467.0,-10.446,-1.495,1.8,1.671,-0.393,-0.256
1471.0,-10.392,-1.332,1.683,1.721,-0.365,-0.247
1475.0,-10.392,-1.332,1.683,1.721,-0.365,-0.247
1479.0,-10.392,-1.332,1.683,1.721,-0.365,-0.247
1483.0,-10.178,-1.171,1.784,1.743,-0.333,-0.228
1487.0,-10.178,-1.171,1.784,1.743,-0.333,-0.228
1491.0,-9.638,-1.079,1.843,1.737,-0.336,-0.202
1495.0,-9.638,-1.079,1.843,1.737,-0.336,-0.202
1499.0,-9.638,-1.063,1.936,1.737,-0.336,-0.202
1503.0,-9.248,-1.063,1.936,1.716,-0.347,-0.193
1507.0,-9.248,-1.063,1.936,1.716,-0.347,-0.193
1511.0,-9.054,-1.076,1.931,1.692,-0.348,-0.212
1515.0,-9.054,-1.076,1.931,1.692,-0.348,-0.212
1519.0,-9.101,-1.12,2.017,1.692,-0.348,-0.212
1523.0,-9.101,-1.12,2.017,1.669,-0.339,-0.237
1527.0,-9.101,-1.12,2.017,1.669,-0.339,-0.237
1531.0,-9.075,-1.181,2.168,1.651,-0.34,-0.249
1535.0,-9.075,-1.181,2.168,1.651,-0.34,-0.249
1539.0,-8.913,-1.22,2.268,1.651,-0.34,-0.246
1543.0,-8.913,-1.22,2.268,1.639,-0.366,-0.246
1547.0,-8.913,-1.22,2.268,1.639,-0.366,-0.246
1551.0,-8.904,-1.287,2.236,1.63,-0.396,-0.239
1555.0,-8.904,-1.287,2.236,1.63,-0.396,-0.239
1559.0,-9.01,-1.326,2.101,1.63,-0.413,-0.233
1563.0,-9.01,-1.326,2.101,1.622,-0.413,-0.233
1567.0,-9.01,-1.326,2.101,1.622,-0.413,-0.233
1571.0,-9.396,-1.357,2.018,1.605,-0.408,-0.224
1575.0,-9.396,-1.357,2.018,1.605,-0.408,-0.224
1579.0,-9.736,-1.356,2.048,1.579,-0.402,-0.204
1583.0,-9.736,-1.356,2.048,1.579,-0.402,-0.204
1587.0,-9.736,-1.356,2.048,1.579,-0.402,-0.204
1591.0,-9.829,-1.403,2.036,1.545,-0.408,-0.178
1595.0,-9.829,-1.403,2.036,1.545,-0.408,-0.178
1599.0,-9.671,-1.408,2.106,1.508,-0.422,-0.153
1603.0,-9.671,-1.408,2.106,1.508,-0.422,-0.153
1607.0,-9.671,-1.408,2.106,1.508,-0.422,-0.153
1611.0,-9.438,-1.405,2.115,1.472,-0.44,-0.136
1615.0,-9.438,-1.405,2.115,1.472,-0.44,-0.136
1619.0,-9.472,-1.378,2.006,1.438,-0.447,-0.125
1623.0,-9.472,-1.378,2.006,1.438,-0.447,-0.125
1627.0,-9.472,-1.378,2.006,1.438,-0.447,-0.125
1631.0,-9.86,-1.372,1.951,1.4,-0.43,-0.107
1635.0,-9.86,-1.372,1.951,1.4,-0.43,-0.107
1639.0,-10.284,-1.406,1.895,1.352,-0.413,-0.072
1643.0,-10.284,-1.406,1.895,1.352,-0.413,-0.072
1647.0,-10.284,-1.406,1.901,1.352,-0.413,-0.072
1651.0,-10.637,-1.492,1.901,1.295,-0.404,-0.021
1655.0,-10.637,-1.492,1.901,1.295,-0.404,-0.021
1659.0,-10.689,-1.56,1.968,1.235,-0.412,0.034
1663.0,-10.689,-1.56,1.968,1.235,-0.412,0.034
1667.0,-10.278,-1.581,1.9,1.235,-0.412,0.034
1671.0,-10.278,-1.581,1.9,1.173,-0.45,0.077
1675.0,-10.278,-1.581,1.9,1.173,-0.45,0.077
1679.0,-9.635,-1.557,1.739,1.109,-0.486,0.099
1683.0,-9.635,-1.557,1.739,1.109,-0.486,0.099
1687.0,-9.072,-1.506,1.433,1.109,-0.486,0.089
1691.0,-9.072,-1.506,1.433,1.042,-0.497,0.089
1695.0,-9.072,-1.506,1.433,1.042,-0.497,0.089
1699.0,-9.056,-1.421,1.247,0.968,-0.46,0.061
1703.0,-9.056,-1.421,1.247,0.968,-0.46,0.061
1707.0,-9.119,-1.303,1.294,0.968,-0.46,0.061
1711.0,-9.119,-1.303,1.294,0.889,-0.407,0.032
1715.0,-9.119,-1.303,1.294,0.889,-0.407,0.032
1718.0,-8.792,-1.213,1.466,0.809,-0.387,0.009
1722.0,-8.792,-1.213,1.466,0.809,-0.387,0.009
1726.0,-8.792,-1.213,1.574,0.809,-0.387,0.009
1730.0,-8.262,-1.16,1.574,0.732,-0.399,-0.021
1734.0,-8.262,-1.16,1.574,0.732,-0.399,-0.021
1738.0,-7.895,-1.172,1.437,0.667,-0.408,-0.069
1742.0,-7.895,-1.172,1.437,0.667,-0.408,-0.069
1746.0,-7.895,-1.187,1.366,0.667,-0.408,-0.069
1750.0,-8.146,-1.187,1.366,0.609,-0.376,-0.121
1754.0,-8.146,-1.187,1.366,0.609,-0.376,-0.121
1758.0,-8.668,-1.242,1.33,0.556,-0.318,-0.151
1762.0,-8.668,-1.242,1.33,0.556,-0.318,-0.151
1766.0,-9.001,-1.32,1.373,0.556,-0.318,-0.151
1770.0,-9.001,-1.32,1.373,0.502,-0.271,-0.15
1774.0,-9.001,-1.32,1.373,0.502,-0.271,-0.15
1778.0,-9.33,-1.448,1.478,0.448,-0.24,-0.133
1782.0,-9.33,-1.448,1.478,0.448,-0.24,-0.133
1786.0,-9.708,-1.628,1.453,0.448,-0.24,-0.111
1790.0,-9.708,-1.628,1.453,0.406,-0.215,-0.111
1794.0,-9.708,-1.628,1.453,0.406,-0.215,-0.111
1798.0,-9.995,-1.766,1.452,0.378,-0.186,-0.083
1802.0,-9.995,-1.766,1.452,0.378,-0.186,-0.083
1806.0,-9.986,-1.889,1.5,0.361,-0.163,-0.045
1810.0,-9.986,-1.889,1.5,0.361,-0.163,-0.045
1814.0,-9.986,-1.889,1.5,0.361,-0.163,-0.045
1818.0,-9.483,-1.956,1.371,0.353,-0.151,-0.006
1822.0,-9.483,-1.956,1.371,0.353,-0.151,-0.006
1826.0,-9.038,-1.941,1.257,0.35,-0.117,0.018
1830.0,-9.038,-1.941,1.257,0.35,-0.117,0.018
1834.0,-9.038,-1.941,1.257,0.35,-0.117,0.018
1838.0,-9.013,-1.923,1.307,0.353,-0.043,0.031
1842.0,-9.013,-1.923,1.307,0.353,-0.043,0.031
1846.0,-9.068,-1.909,1.387,0.37,0.038,0.046
1849.0,-9.068,-1.909,1.387,0.37,0.038,0.046
1853.0,-9.068,-1.909,1.387,0.37,0.038,0.046
1857.0,-9.002,-1.902,1.589,0.401,0.104,0.068
1861.0,-9.002,-1.902,1.589,0.401,0.104,0.068
1865.0,-8.985,-1.939,1.796,0.401,0.104,0.068
1868.0,-8.985,-1.939,1.796,0.446,0.151,0.089
1872.0,-8.985,-1.939,1.796,0.446,0.151,0.089
1876.0,-9.073,-2.053,1.862,0.508,0.182,0.107
1880.0,-9.073,-2.053,1.862,0.508,0.182,0.107
1884.0,-9.073,-2.053,1.862,0.508,0.182,0.107
1888.0,-9.292,-2.146,1.764,0.583,0.207,0.128
1891.0,-9.292,-2.146,1.764,0.583,0.207,0.128
1895.0,-9.994,-2.192,1.819,0.662,0.242,0.161
1899.0,-9.994,-2.192,1.819,0.662,0.242,0.161
1903.0,-9.994,-2.192,1.819,0.662,0.242,0.161
1907.0,-10.759,-2.267,1.692,0.737,0.257,0.213
1911.0,-10.759,-2.267,1.692,0.737,0.257,0.213
1914.0,-11.175,-2.288,1.554,0.737,0.252,0.278
1918.0,-11.175,-2.288,1.554,0.799,0.252,0.278
1922.0,-11.175,-2.288,1.554,0.799,0.252,0.278
1926.0,-10.719,-2.249,1.435,0.841,0.232,0.331
1930.0,-10.719,-2.249,1.435,0.841,0.232,0.331
1934.0,-9.565,-2.129,1.327,0.841,0.232,0.35
1938.0,-9.565,-2.129,1.327,0.858,0.206,0.35
1942.0,-9.565,-2.129,1.327,0.858,0.206,0.35
1945.0,-8.564,-1.929,1.323,0.865,0.199,0.332
1949.0,-8.564,-1.929,1.323,0.865,0.199,0.332
1953.0,-8.564,-1.929,1.323,0.865,0.199,0.332
1957.0,-8.065,-1.778,1.078,0.873,0.235,0.291
1961.0,-8.065,-1.778,1.078,0.873,0.235,0.291
1965.0,-8.349,-1.582,1.177,0.874,0.313,0.247
1968.0,-8.349,-1.582,1.177,0.874,0.313,0.247
1972.0,-8.349,-1.582,1.177,0.874,0.313,0.247
1976.0,-9.323,-1.476,1.283,0.864,0.393,0.224
1980.0,-9.323,-1.476,1.283,0.864,0.393,0.224
1984.0,-10.562,-1.507,1.506,0.864,0.449,0.223
1988.0,-10.562,-1.507,1.506,0.845,0.449,0.223
1991.0,-10.562,-1.507,1.506,0.845,0.449,0.223
1995.0,-11.237,-1.6,1.537,0.817,0.452,0.231
1999.0,-11.237,-1.6,1.537,0.817,0.452,0.231
2003.0,-10.856,-1.614,1.562,0.817,0.452,0.229
2007.0,-10.856,-1.614,1.562,0.775,0.416,0.229
2011.0,-10.856,-1.614,1.562,0.775,0.416,0.229
2015.0,-9.741,-1.536,1.54,0.721,0.365,0.203
2019.0,-9.741,-1.536,1.54,0.721,0.365,0.203
2023.0,-9.741,-1.378,1.393,0.721,0.365,0.203
2026.0,-8.73,-1.378,1.393,0.658,0.341,0.141
2030.0,-8.73,-1.378,1.393,0.658,0.341,0.141
2034.0,-8.064,-1.146,1.308,0.592,0.355,0.06
2038.0,-8.064,-1.146,1.308,0.592,0.355,0.06
2042.0,-8.064,-1.146,1.308,0.592,0.355,0.06
2045.0,-7.855,-0.959,1.442,0.517,0.374,-0.015
2049.0,-7.855,-0.959,1.442,0.517,0.374,-0.015
2053.0,-7.984,-0.882,1.463,0.433,0.369,-0.073
2057.0,-7.984,-0.882,1.463,0.433,0.369,-0.073
2061.0,-7.984,-0.882,1.463,0.433,0.369,-0.073
2065.0,-8.241,-0.954,1.33,0.347,0.347,-0.119
2069.0,-8.241,-0.954,1.33,0.347,0.347,-0.119
2073.0,-8.684,-1.124,1.278,0.256,0.332,-0.163
2077.0,-8.684,-1.124,1.278,0.256,0.332,-0.163
2081.0,-8.684,-1.124,1.278,0.256,0.332,-0.163
2085.0,-9.029,-1.334,1.065,0.167,0.308,-0.207
2088.0,-9.029,-1.334,1.065,0.167,0.308,-0.207
2092.0,-9.383,-1.5,0.896,0.081,0.291,-0.254
2096.0,-9.383,-1.5,0.896,0.081,0.291,-0.254
2100.0,-9.383,-1.5,0.896,0.081,0.291,-0.254
2104.0,-9.715,-1.655,0.934,-0.004,0.299,-0.302
2108.0,-9.715,-1.655,0.934,-0.004,0.299,-0.302
2112.0,-9.977,-1.896,1.054,-0.004,0.309,-0.35
2116.0,-9.977,-1.896,1.054,-0.093,0.309,-0.35
2120.0,-9.977,-1.896,1.054,-0.093,0.309,-0.35
2124.0,-10.017,-2.268,1.169,-0.191,0.312,-0.409
2128.0,-10.017,-2.268,1.169,-0.191,0.312,-0.409
2132.0,-10.065,-2.611,1.109,-0.304,0.321,-0.497
2136.0,-10.065,-2.611,1.109,-0.304,0.321,-0.497
2140.0,-10.065,-2.611,1.109,-0.304,0.321,-0.497
2144.0,-10.464,-2.882,1.099,-0.422,0.361,-0.607
2149.0,-10.464,-2.882,1.099,-0.422,0.361,-0.607
2153.0,-10.831,-3.27,1.369,-0.518,0.414,-0.715
2157.0,-10.831,-3.27,1.369,-0.518,0.414,-0.715
2161.0,-10.831,-4.091,1.616,-0.518,0.414,-0.715
2165.0,-10.777,-4.091,1.616,-0.569,0.447,-0.804
2169.0,-10.777,-4.091,1.616,-0.569,0.447,-0.804
2173.0,-10.714,-5.037,1.983,-0.561,0.463,-0.892
2177.0,-10.714,-5.037,1.983,-0.561,0.463,-0.892
2181.0,-11.302,-5.86,2.056,-0.561,0.483,-0.984
2185.0,-11.302,-5.86,2.056,-0.484,0.483,-0.984
2189.0,-11.302,-5.86,2.056,-0.484,0.483,-0.984
2193.0,-12.963,-6.546,2.067,-0.338,0.531,-1.045
2197.0,-12.963,-6.546,2.067,-0.338,0.531,-1.045
2202.0,-14.694,-7.14,2.021,-0.138,0.557,-1.05
2206.0,-14.694,-7.14,2.021,-0.138,0.557,-1.05
2210.0,-14.694,-7.14,2.021,-0.138,0.557,-1.05
2214.0,-15.223,-7.459,1.87,0.096,0.498,-1.016
2218.0,-15.223,-7.459,1.87,0.096,0.498,-1.016
2222.0,-14.558,-7.501,1.732,0.341,0.405,-0.996
2226.0,-14.558,-7.501,1.732,0.341,0.405,-0.996
2230.0,-14.558,-7.501,1.782,0.341,0.405,-0.996
2234.0,-13.378,-7.318,1.782,0.582,0.349,-1.013
2238.0,-13.378,-7.318,1.782,0.582,0.349,-1.013
2242.0,-11.874,-6.878,1.711,0.794,0.298,-1.077
2246.0,-11.874,-6.878,1.711,0.794,0.298,-1.077
2250.0,-10.401,-6.261,1.53,0.794,0.298,-1.077
2254.0,-10.401,-6.261,1.53,0.947,0.242,-1.197
2258.0,-10.401,-6.261,1.53,0.947,0.242,-1.197
2262.0,-9.549,-5.605,1.492,1.038,0.22,-1.348
2266.0,-9.549,-5.605,1.492,1.038,0.22,-1.348
2270.0,-9.42,-5.025,1.61,1.038,0.22,-1.348
2273.0,-9.42,-5.025,1.61,1.08,0.242,-1.482
2277.0,-9.42,-5.025,1.61,1.08,0.242,-1.482
2281.0,-9.354,-4.604,1.712,1.083,0.245,-1.575
2285.0,-9.354,-4.604,1.712,1.083,0.245,-1.575
2289.0,-9.354,-4.236,1.862,1.083,0.245,-1.575
2293.0,-9.145,-4.236,1.862,1.053,0.195,-1.64
2297.0,-9.145,-4.236,1.862,1.053,0.195,-1.64
2301.0,-9.057,-4.0,1.947,1.011,0.123,-1.687
2305.0,-9.057,-4.0,1.947,1.011,0.123,-1.687
2309.0,-9.057,-4.0,1.78,1.011,0.123,-1.687
2312.0,-9.15,-3.87,1.78,0.966,0.068,-1.713
2316.0,-9.15,-3.87,1.78,0.966,0.068,-1.713
2320.0,-8.831,-3.727,1.677,0.906,0.009,-1.719
2324.0,-8.831,-3.727,1.677,0.906,0.009,-1.719
2328.0,-8.831,-3.727,1.677,0.906,0.009,-1.719
2332.0,-8.143,-3.477,1.524,0.824,-0.076,-1.724
2336.0,-8.143,-3.477,1.524,0.824,-0.076,-1.724
2340.0,-7.644,-3.165,1.325,0.714,-0.135,-1.747
2344.0,-7.644,-3.165,1.325,0.714,-0.135,-1.747
2348.0,-7.644,-3.165,1.325,0.714,-0.135,-1.747
2352.0,-7.363,-2.952,1.194,0.58,-0.135,-1.768
2356.0,-7.363,-2.952,1.194,0.58,-0.135,-1.768
2360.0,-7.295,-2.761,1.141,0.429,-0.098,-1.77
2364.0,-7.295,-2.761,1.141,0.429,-0.098,-1.77
2368.0,-7.295,-2.761,1.2,0.429,-0.098,-1.77
2372.0,-7.558,-2.641,1.2,0.266,-0.042,-1.744
2376.0,-7.558,-2.641,1.2,0.266,-0.042,-1.744
2380.0,-8.138,-2.634,1.272,0.11,0.014,-1.685
2384.0,-8.138,-2.634,1.272,0.11,0.014,-1.685
2388.0,-8.138,-2.73,1.276,0.11,0.014,-1.685
2392.0,-8.897,-2.73,1.276,-0.028,0.06,-1.587
2396.0,-8.897,-2.73,1.276,-0.028,0.06,-1.587
2400.0,-9.763,-2.856,1.204,-0.138,0.096,-1.447
2404.0,-9.763,-2.856,1.204,-0.138,0.096,-1.447
2408.0,-10.656,-2.999,1.116,-0.138,0.096,-1.447
2412.0,-10.656,-2.999,1.116,-0.218,0.127,-1.259
2416.0,-10.656,-2.999,1.116,-0.218,0.127,-1.259
2420.0,-11.404,-3.156,1.12,-0.273,0.15,-1.033
2424.0,-11.404,-3.156,1.12,-0.273,0.15,-1.033
2428.0,-11.733,-3.309,1.222,-0.3,0.152,-0.787
2432.0,-11.733,-3.309,1.222,-0.3,0.152,-0.787
2436.0,-11.733,-3.309,1.222,-0.3,0.152,-0.787
2440.0,-11.451,-3.427,1.387,-0.296,0.128,-0.561
2444.0,-11.451,-3.427,1.387,-0.296,0.128,-0.561
2448.0,-10.925,-3.466,1.532,-0.263,0.08,-0.386
2453.0,-10.925,-3.466,1.532,-0.263,0.08,-0.386
2457.0,-10.925,-3.466,1.532,-0.263,0.08,-0.386
2461.0,-10.571,-3.364,1.458,-0.209,0.027,-0.269
2465.0,-10.571,-3.364,1.458,-0.209,0.027,-0.269
2469.0,-10.508,-3.093,1.217,-0.141,-0.012,-0.193
2473.0,-10.508,-3.093,1.217,-0.141,-0.012,-0.193
2477.0,-10.678,-2.79,1.054,-0.141,-0.025,-0.125
2481.0,-10.678,-2.79,1.054,-0.071,-0.025,-0.125
2485.0,-10.678,-2.79,1.054,-0.071,-0.025,-0.125
2490.0,-10.691,-2.568,0.985,0.002,-0.031,-0.052
2494.0,-10.691,-2.568,0.985,0.002,-0.031,-0.052
2498.0,-10.362,-2.355,0.931,0.086,-0.048,0.018
2502.0,-10.362,-2.355,0.931,0.086,-0.048,0.018
2506.0,-10.362,-2.355,0.931,0.086,-0.048,0.018
2510.0,-10.279,-2.195,0.905,0.181,-0.062,0.071
2514.0,-10.279,-2.195,0.905,0.181,-0.062,0.071
2518.0,-10.464,-2.087,0.951,0.287,-0.071,0.103
2522.0,-10.464,-2.087,0.951,0.287,-0.071,0.103
2526.0,-10.464,-2.087,0.988,0.287,-0.071,0.103
2530.0,-10.695,-1.902,0.988,0.405,-0.098,0.114
2534.0,-10.695,-1.902,0.988,0.405,-0.098,0.114
2538.0,-10.711,-1.694,0.986,0.521,-0.149,0.108
2542.0,-10.711,-1.694,0.986,0.521,-0.149,0.108
2546.0,-10.711,-1.464,0.882,0.521,-0.149,0.108
2550.0,-10.596,-1.464,0.882,0.623,-0.209,0.084
2554.0,-10.596,-1.464,0.882,0.623,-0.209,0.084
2558.0,-10.522,-1.25,0.758,0.704,-0.263,0.041
2562.0,-10.522,-1.25,0.758,0.704,-0.263,0.041
2566.0,-10.401,-1.024,0.558,0.704,-0.263,0.041
2570.0,-10.401,-1.024,0.558,0.757,-0.303,-0.012
2574.0,-10.401,-1.024,0.558,0.757,-0.303,-0.012
2578.0,-10.433,-0.829,0.452,0.78,-0.321,-0.062
2582.0,-10.433,-0.829,0.452,0.78,-0.321,-0.062
2586.0,-10.489,-0.669,0.388,0.766,-0.319,-0.103
2590.0,-10.489,-0.669,0.388,0.766,-0.319,-0.103
2594.0,-10.489,-0.669,0.388,0.766,-0.319,-0.103
2598.0,-10.459,-0.516,0.435,0.718,-0.306,-0.13
2602.0,-10.459,-0.516,0.435,0.718,-0.306,-0.13
2606.0,-10.46,-0.407,0.525,0.643,-0.286,-0.141
2610.0,-10.46,-0.407,0.525,0.643,-0.286,-0.141
2615.0,-10.46,-0.407,0.631,0.643,-0.286,-0.141
2619.0,-10.571,-0.333,0.631,0.545,-0.253,-0.136
2623.0,-10.571,-0.333,0.631,0.545,-0.253,-0.136
2627.0,-10.594,-0.258,0.759,0.427,-0.209,-0.111
2631.0,-10.594,-0.258,0.759,0.427,-0.209,-0.111
2635.0,-10.519,-0.261,0.976,0.427,-0.209,-0.06
2639.0,-10.519,-0.261,0.976,0.292,-0.166,-0.06
2643.0,-10.519,-0.261,0.976,0.292,-0.166,-0.06
2647.0,-10.333,-0.261,1.168,0.149,-0.132,0.008
2651.0,-10.333,-0.261,1.168,0.149,-0.132,0.008
2655.0,-10.047,-0.303,1.357,0.004,-0.111,0.097
2659.0,-10.047,-0.303,1.357,0.004,-0.111,0.097
2663.0,-10.047,-0.303,1.357,0.004,-0.111,0.097
2667.0,-9.674,-0.369,1.46,-0.139,-0.103,0.195
2671.0,-9.674,-0.369,1.46,-0.139,-0.103,0.195
2675.0,-9.144,-0.386,1.406,-0.278,-0.109,0.291
2679.0,-9.144,-0.386,1.406,-0.278,-0.109,0.291
2683.0,-9.144,-0.386,1.406,-0.278,-0.109,0.291
2687.0,-8.661,-0.395,1.298,-0.417,-0.116,0.384
2691.0,-8.661,-0.395,1.298,-0.417,-0.116,0.384
2695.0,-8.346,-0.425,1.12,-0.555,-0.104,0.472
2699.0,-8.346,-0.425,1.12,-0.555,-0.104,0.472
2703.0,-8.346,-0.425,1.12,-0.555,-0.104,0.472
2707.0,-8.107,-0.474,0.93,-0.689,-0.072,0.561
2711.0,-8.107,-0.474,0.93,-0.689,-0.072,0.561
2715.0,-7.984,-0.588,0.819,-0.817,-0.024,0.664
2719.0,-7.984,-0.588,0.819,-0.817,-0.024,0.664
2723.0,-7.984,-0.588,0.819,-0.817,-0.024,0.664
2727.0,-8.052,-0.753,0.851,-0.933,0.042,0.779
2731.0,-8.052,-0.753,0.851,-0.933,0.042,0.779
2735.0,-8.319,-0.915,0.949,-1.033,0.116,0.894
2739.0,-8.319,-0.915,0.949,-1.033,0.116,0.894
2743.0,-8.319,-0.915,0.949,-1.033,0.116,0.894
2747.0,-8.714,-1.038,1.225,-1.112,0.189,1.015
2751.0,-8.714,-1.038,1.225,-1.112,0.189,1.015
2754.0,-9.035,-1.138,1.545,-1.165,0.246,1.139
2758.0,-9.035,-1.138,1.545,-1.165,0.246,1.139
2762.0,-9.035,-1.138,1.545,-1.165,0.246,1.139
2766.0,-9.187,-1.313,1.854,-1.188,0.273,1.258
2770.0,-9.187,-1.313,1.854,-1.188,0.273,1.258
2774.0,-9.227,-1.553,1.981,-1.18,0.272,1.368
2778.0,-9.227,-1.553,1.981,-1.18,0.272,1.368
2782.0,-9.227,-1.553,1.981,-1.18,0.272,1.368
2786.0,-9.273,-1.796,1.884,-1.143,0.259,1.464
2790.0,-9.273,-1.796,1.884,-1.143,0.259,1.464
2793.0,-9.222,-2.017,1.9,-1.076,0.228,1.545
2797.0,-9.222,-2.017,1.9,-1.076,0.228,1.545
2801.0,-9.222,-2.017,1.9,-1.076,0.228,1.545
2805.0,-9.133,-2.122,1.969,-0.98,0.164,1.602
2809.0,-9.133,-2.122,1.969,-0.98,0.164,1.602
2813.0,-9.096,-2.067,1.964,-0.859,0.085,1.624
2817.0,-9.096,-2.067,1.964,-0.859,0.085,1.624
2821.0,-9.096,-2.067,1.964,-0.859,0.085,1.624
2825.0,-9.016,-1.942,2.023,-0.732,0.009,1.627
2829.0,-9.016,-1.942,2.023,-0.732,0.009,1.627
2833.0,-8.79,-1.738,2.05,-0.732,-0.066,1.624
2837.0,-8.79,-1.738,2.05,-0.616,-0.066,1.624
2841.0,-8.79,-1.738,2.05,-0.616,-0.066,1.624
2845.0,-8.512,-1.574,2.08,-0.524,-0.127,1.622
2849.0,-8.512,-1.574,2.08,-0.524,-0.127,1.622
2852.0,-8.2,-1.456,2.198,-0.449,-0.167,1.618
2856.0,-8.2,-1.456,2.198,-0.449,-0.167,1.618
2860.0,-8.2,-1.456,2.198,-0.449,-0.167,1.618
2864.0,-8.149,-1.295,2.402,-0.386,-0.195,1.603
2868.0,-8.149,-1.295,2.402,-0.386,-0.195,1.603
2872.0,-8.783,-1.02,2.617,-0.34,-0.198,1.578
2876.0,-8.783,-1.02,2.617,-0.34,-0.198,1.578
2880.0,-8.783,-1.02,2.617,-0.34,-0.198,1.578
2884.0,-10.134,-0.766,2.868,-0.323,-0.158,1.565
2889.0,-10.134,-0.766,2.868,-0.323,-0.158,1.565
2893.0,-11.601,-0.586,3.246,-0.347,-0.101,1.588
2897.0,-11.601,-0.586,3.246,-0.347,-0.101,1.588
2901.0,-11.601,-0.586,3.246,-0.347,-0.101,1.588
2905.0,-11.923,-0.513,3.651,-0.407,-0.063,1.632
2909.0,-11.923,-0.513,3.651,-0.407,-0.063,1.632
2913.0,-10.666,-0.561,4.019,-0.486,-0.076,1.644
2917.0,-10.666,-0.561,4.019,-0.486,-0.076,1.644
2921.0,-9.426,-0.574,4.021,-0.486,-0.076,1.644
2925.0,-9.426,-0.574,4.021,-0.571,-0.131,1.586
2929.0,-9.426,-0.574,4.021,-0.571,-0.131,1.586
2933.0,-9.094,-0.383,3.492,-0.659,-0.176,1.453
2937.0,-9.094,-0.383,3.492,-0.659,-0.176,1.453
2941.0,-9.497,-0.143,2.914,-0.659,-0.163,1.293
2945.0,-9.497,-0.143,2.914,-0.765,-0.163,1.293
2949.0,-9.497,-0.143,2.914,-0.765,-0.163,1.293
2953.0,-10.152,0.099,2.521,-0.902,-0.104,1.158
2957.0,-10.152,0.099,2.521,-0.902,-0.104,1.158
2961.0,-10.377,0.276,2.479,-1.058,-0.031,1.072
2965.0,-10.377,0.276,2.479,-1.058,-0.031,1.072
2969.0,-10.377,0.276,2.479,-1.058,-0.031,1.072
2973.0,-10.082,0.388,2.805,-1.21,0.014,1.022
2977.0,-10.082,0.388,2.805,-1.21,0.014,1.022
2981.0,-9.692,0.438,3.118,-1.342,0.006,0.987
2985.0,-9.692,0.438,3.118,-1.342,0.006,0.987
2989.0,-9.692,0.438,3.118,-1.342,0.006,0.987
2992.0,-9.41,0.443,3.279,-1.446,-0.034,0.953
2996.0,-9.41,0.443,3.279,-1.446,-0.034,0.953
3000.0,-9.184,0.316,3.271,-1.446,-0.034,0.923
