deltaTime,Acc_X,Acc_Y,Acc_Z,Gyro_X,Gyro_Y,Gyro_Z
0.0,-12.302,-5.001,3.955,0.564,0.429,0.261
3.0,-12.302,-5.001,3.955,0.564,0.429,0.261
6.0,-12.302,-5.001,3.955,0.564,0.429,0.261
9.0,-12.021,-5.547,4.094,0.564,0.442,0.229
12.0,-12.021,-5.547,4.094,0.611,0.442,0.229
15.0,-12.021,-5.547,4.094,0.611,0.442,0.229
18.0,-12.021,-5.547,4.094,0.611,0.442,0.229
21.0,-12.074,-6.164,4.093,0.802,0.431,0.219
24.0,-12.074,-6.164,4.093,0.802,0.431,0.219
27.0,-12.074,-6.164,4.093,0.802,0.431,0.219
30.0,-12.296,-6.246,3.714,1.132,0.409,0.188
33.0,-12.296,-6.246,3.714,1.132,0.409,0.188
36.0,-12.296,-6.246,3.714,1.132,0.409,0.188
39.0,-12.224,-5.802,3.131,1.504,0.399,0.101
43.0,-12.224,-5.802,3.131,1.504,0.399,0.101
47.0,-12.224,-5.802,3.131,1.504,0.399,0.101
51.0,-11.872,-5.11,2.618,1.832,0.403,-0.028
54.0,-11.872,-5.11,2.618,1.832,0.403,-0.028
58.0,-11.791,-4.254,2.332,2.083,0.461,-0.163
62.0,-11.791,-4.254,2.332,2.083,0.461,-0.163
66.0,-11.791,-4.254,2.332,2.083,0.461,-0.163
70.0,-11.802,-3.266,2.147,2.258,0.498,-0.29
74.0,-11.802,-3.266,2.147,2.258,0.498,-0.29
77.0,-11.907,-2.331,2.045,2.258,0.498,-0.29
81.0,-11.907,-2.331,2.045,2.345,0.507,-0.393
85.0,-11.907,-2.331,2.045,2.345,0.507,-0.393
89.0,-11.941,-1.514,1.845,2.354,0.476,-0.464
93.0,-11.941,-1.514,1.845,2.354,0.476,-0.464
96.0,-11.941,-1.514,1.845,2.354,0.476,-0.464
100.0,-11.819,-0.805,1.589,2.278,0.404,-0.512
104.0,-11.819,-0.805,1.589,2.278,0.404,-0.512
108.0,-11.685,-0.389,1.299,2.123,0.317,-0.542
112.0,-11.685,-0.389,1.299,2.123,0.317,-0.542
116.0,-11.685,-0.389,1.299,2.123,0.317,-0.542
120.0,-11.532,0.167,0.89,1.9,0.254,-0.547
124.0,-11.532,0.167,0.89,1.9,0.254,-0.547
127.0,-11.742,0.684,0.564,1.569,0.227,-0.544
131.0,-11.742,0.684,0.564,1.569,0.227,-0.544
135.0,-11.742,0.684,0.564,1.569,0.227,-0.544
139.0,-11.984,0.891,0.572,1.14,0.232,-0.527
143.0,-11.984,0.891,0.572,1.14,0.232,-0.527
147.0,-11.965,0.901,0.856,1.14,0.232,-0.527
150.0,-11.965,0.901,0.856,0.681,0.264,-0.484
154.0,-11.965,0.901,0.856,0.681,0.264,-0.484
158.0,-11.614,0.997,1.286,0.235,0.303,-0.43
162.0,-11.614,0.997,1.286,0.235,0.303,-0.43
166.0,-11.614,0.997,1.286,0.235,0.303,-0.43
169.0,-11.343,1.225,1.662,-0.205,0.332,-0.392
173.0,-11.343,1.225,1.662,-0.205,0.332,-0.392
177.0,-11.233,1.134,1.914,-0.651,0.345,-0.346
181.0,-11.233,1.134,1.914,-0.651,0.345,-0.346
185.0,-11.233,1.134,1.914,-0.651,0.345,-0.346
189.0,-10.907,0.748,2.192,-1.065,0.34,-0.293
193.0,-10.907,0.748,2.192,-1.065,0.34,-0.293
197.0,-10.536,0.145,2.456,-1.394,0.324,-0.24
201.0,-10.536,0.145,2.456,-1.394,0.324,-0.24
205.0,-10.536,0.145,2.456,-1.394,0.324,-0.24
208.0,-10.0,-0.349,2.559,-1.619,0.289,-0.222
212.0,-10.0,-0.349,2.559,-1.619,0.289,-0.222
216.0,-9.56,-0.77,2.723,-1.745,0.238,-0.262
220.0,-9.56,-0.77,2.723,-1.745,0.238,-0.262
224.0,-9.56,-0.77,2.723,-1.745,0.238,-0.262
228.0,-9.136,-0.959,2.742,-1.786,0.2,-0.31
232.0,-9.136,-0.959,2.742,-1.786,0.2,-0.31
236.0,-8.62,-1.129,2.631,-1.793,0.214,-0.337
240.0,-8.62,-1.129,2.631,-1.793,0.214,-0.337
244.0,-8.62,-1.129,2.631,-1.793,0.214,-0.337
248.0,-8.349,-1.389,2.431,-1.763,0.264,-0.327
252.0,-8.349,-1.389,2.431,-1.763,0.264,-0.327
256.0,-8.534,-1.722,2.146,-1.763,0.282,-0.289
259.0,-8.534,-1.722,2.146,-1.678,0.282,-0.289
263.0,-8.534,-1.722,2.146,-1.678,0.282,-0.289
267.0,-8.971,-1.967,1.985,-1.531,0.233,-0.23
271.0,-8.971,-1.967,1.985,-1.531,0.233,-0.23
275.0,-9.27,-2.472,2.018,-1.531,0.233,-0.173
279.0,-9.27,-2.472,2.018,-1.338,0.152,-0.173
283.0,-9.27,-2.472,2.018,-1.338,0.152,-0.173
287.0,-9.314,-2.674,1.918,-1.065,0.065,-0.118
291.0,-9.314,-2.674,1.918,-1.065,0.065,-0.118
295.0,-8.946,-2.133,1.715,-1.065,0.065,-0.118
299.0,-8.946,-2.133,1.715,-0.784,-0.036,-0.101
302.0,-8.946,-2.133,1.715,-0.784,-0.036,-0.101
306.0,-8.376,-1.893,1.588,-0.585,-0.122,-0.129
310.0,-8.376,-1.893,1.588,-0.585,-0.122,-0.129
314.0,-7.745,-1.826,1.398,-0.585,-0.122,-0.146
318.0,-7.745,-1.826,1.398,-0.425,-0.189,-0.146
322.0,-7.745,-1.826,1.398,-0.425,-0.189,-0.146
326.0,-7.25,-1.783,1.258,-0.285,-0.245,-0.144
330.0,-7.25,-1.783,1.258,-0.285,-0.245,-0.144
334.0,-6.849,-1.767,1.17,-0.285,-0.282,-0.135
338.0,-6.849,-1.767,1.17,-0.15,-0.282,-0.135
342.0,-6.849,-1.767,1.17,-0.15,-0.282,-0.135
346.0,-6.475,-1.7,1.113,-0.015,-0.305,-0.13
350.0,-6.475,-1.7,1.113,-0.015,-0.305,-0.13
354.0,-6.141,-1.632,1.086,0.111,-0.328,-0.135
358.0,-6.141,-1.632,1.086,0.111,-0.328,-0.135
362.0,-6.141,-1.632,1.086,0.111,-0.328,-0.135
366.0,-5.833,-1.546,1.046,0.226,-0.357,-0.154
370.0,-5.833,-1.546,1.046,0.226,-0.357,-0.154
374.0,-5.58,-1.456,0.993,0.226,-0.39,-0.184
378.0,-5.58,-1.456,0.993,0.327,-0.39,-0.184
382.0,-5.58,-1.456,0.993,0.327,-0.39,-0.184
386.0,-5.404,-1.345,0.915,0.411,-0.42,-0.223
390.0,-5.404,-1.345,0.915,0.411,-0.42,-0.223
393.0,-5.288,-1.244,0.841,0.411,-0.42,-0.263
397.0,-5.288,-1.244,0.841,0.477,-0.444,-0.263
401.0,-5.288,-1.244,0.841,0.477,-0.444,-0.263
405.0,-5.189,-1.136,0.755,0.525,-0.463,-0.293
409.0,-5.189,-1.136,0.755,0.525,-0.463,-0.293
413.0,-5.102,-1.082,0.666,0.525,-0.463,-0.293
417.0,-5.102,-1.082,0.666,0.556,-0.478,-0.313
421.0,-5.102,-1.082,0.666,0.556,-0.478,-0.313
425.0,-5.04,-1.04,0.587,0.572,-0.486,-0.321
429.0,-5.04,-1.04,0.587,0.572,-0.486,-0.321
433.0,-5.04,-1.012,0.516,0.572,-0.486,-0.321
436.0,-4.984,-1.012,0.516,0.578,-0.486,-0.319
440.0,-4.984,-1.012,0.516,0.578,-0.486,-0.319
444.0,-4.959,-1.016,0.446,0.575,-0.478,-0.307
448.0,-4.959,-1.016,0.446,0.575,-0.478,-0.307
452.0,-4.959,-1.016,0.378,0.575,-0.478,-0.307
456.0,-4.953,-1.018,0.378,0.564,-0.461,-0.282
460.0,-4.953,-1.018,0.378,0.564,-0.461,-0.282
464.0,-4.98,-1.029,0.338,0.545,-0.435,-0.244
468.0,-4.98,-1.029,0.338,0.545,-0.435,-0.244
472.0,-4.98,-1.029,0.338,0.545,-0.435,-0.244
475.0,-5.049,-1.076,0.303,0.52,-0.401,-0.193
479.0,-5.049,-1.076,0.303,0.52,-0.401,-0.193
483.0,-5.171,-1.135,0.251,0.49,-0.353,-0.126
487.0,-5.171,-1.135,0.251,0.49,-0.353,-0.126
491.0,-5.171,-1.135,0.251,0.49,-0.353,-0.126
495.0,-5.375,-1.205,0.203,0.459,-0.291,-0.041
499.0,-5.375,-1.205,0.203,0.459,-0.291,-0.041
503.0,-5.635,-1.278,0.121,0.425,-0.212,0.064
507.0,-5.635,-1.278,0.121,0.425,-0.212,0.064
510.0,-5.635,-1.278,0.121,0.425,-0.212,0.064
514.0,-6.008,-1.369,0.038,0.384,-0.114,0.194
518.0,-6.008,-1.369,0.038,0.384,-0.114,0.194
522.0,-6.553,-1.487,0.033,0.384,0.007,0.353
526.0,-6.553,-1.487,0.033,0.338,0.007,0.353
529.0,-6.553,-1.487,0.033,0.338,0.007,0.353
533.0,-7.386,-1.606,0.153,0.292,0.143,0.551
537.0,-7.386,-1.606,0.153,0.292,0.143,0.551
541.0,-7.386,-1.606,0.153,0.292,0.143,0.551
544.0,-8.591,-1.741,0.319,0.245,0.279,0.794
548.0,-8.591,-1.741,0.319,0.245,0.279,0.794
552.0,-10.227,-1.96,0.563,0.2,0.398,1.088
556.0,-10.227,-1.96,0.563,0.2,0.398,1.088
559.0,-10.227,-1.96,0.563,0.2,0.398,1.088
563.0,-12.333,-2.343,0.881,0.158,0.479,1.437
567.0,-12.333,-2.343,0.881,0.158,0.479,1.437
571.0,-14.808,-2.846,1.177,0.158,0.479,1.437
575.0,-14.808,-2.846,1.177,0.124,0.493,1.826
579.0,-14.808,-2.846,1.177,0.124,0.493,1.826
582.0,-16.972,-3.422,1.293,0.101,0.43,2.243
586.0,-16.972,-3.422,1.293,0.101,0.43,2.243
590.0,-16.972,-3.422,1.293,0.101,0.43,2.243
594.0,-18.278,-3.936,1.218,0.086,0.305,2.65
598.0,-18.278,-3.936,1.218,0.086,0.305,2.65
601.0,-18.907,-4.314,0.932,0.068,0.159,3.004
605.0,-18.907,-4.314,0.932,0.068,0.159,3.004
609.0,-18.907,-4.314,0.932,0.068,0.159,3.004
613.0,-19.126,-4.356,0.309,0.032,0.031,3.268
617.0,-19.126,-4.356,0.309,0.032,0.031,3.268
621.0,-19.182,-4.029,-0.456,0.032,0.031,3.435
624.0,-19.182,-4.029,-0.456,-0.038,-0.041,3.435
629.0,-19.182,-4.029,-0.456,-0.038,-0.041,3.435
633.0,-18.86,-3.565,-1.124,-0.148,-0.052,3.529
637.0,-18.86,-3.565,-1.124,-0.148,-0.052,3.529
641.0,-18.547,-3.088,-1.397,-0.284,-0.013,3.551
645.0,-18.547,-3.088,-1.397,-0.284,-0.013,3.551
649.0,-18.547,-3.088,-1.397,-0.284,-0.013,3.551
653.0,-18.59,-2.692,-1.389,-0.415,0.048,3.496
657.0,-18.59,-2.692,-1.389,-0.415,0.048,3.496
661.0,-18.855,-2.353,-1.274,-0.519,0.093,3.369
665.0,-18.855,-2.353,-1.274,-0.519,0.093,3.369
669.0,-18.855,-2.353,-1.274,-0.519,0.093,3.369
673.0,-19.109,-2.062,-1.129,-0.593,0.105,3.18
677.0,-19.109,-2.062,-1.129,-0.593,0.105,3.18
681.0,-19.075,-1.729,-1.059,-0.645,0.091,2.948
685.0,-19.075,-1.729,-1.059,-0.645,0.091,2.948
689.0,-19.075,-1.729,-0.905,-0.645,0.091,2.948
693.0,-18.598,-1.411,-0.905,-0.694,0.072,2.672
697.0,-18.598,-1.411,-0.905,-0.694,0.072,2.672
701.0,-17.635,-1.156,-0.592,-0.743,0.069,2.36
705.0,-17.635,-1.156,-0.592,-0.743,0.069,2.36
709.0,-17.635,-0.94,-0.227,-0.743,0.069,2.36
713.0,-16.283,-0.94,-0.227,-0.791,0.07,2.022
717.0,-16.283,-0.94,-0.227,-0.791,0.07,2.022
721.0,-14.731,-0.648,0.102,-0.844,0.065,1.666
725.0,-14.731,-0.648,0.102,-0.844,0.065,1.666
729.0,-14.731,-0.425,0.355,-0.844,0.065,1.666
733.0,-13.172,-0.425,0.355,-0.916,0.054,1.314
737.0,-13.172,-0.425,0.355,-0.916,0.054,1.314
740.0,-11.91,-0.263,0.567,-1.01,0.038,0.985
744.0,-11.91,-0.263,0.567,-1.01,0.038,0.985
748.0,-11.91,-0.263,0.705,-1.01,0.038,0.985
752.0,-10.804,-0.278,0.705,-1.12,0.012,0.692
756.0,-10.804,-0.278,0.705,-1.12,0.012,0.692
760.0,-9.765,-0.447,0.809,-1.234,-0.032,0.438
764.0,-9.765,-0.447,0.809,-1.234,-0.032,0.438
768.0,-9.765,-0.447,0.809,-1.234,-0.032,0.438
772.0,-8.723,-0.71,0.793,-1.332,-0.095,0.205
776.0,-8.723,-0.71,0.793,-1.332,-0.095,0.205
779.0,-8.045,-0.943,0.66,-1.403,-0.147,-0.031
783.0,-8.045,-0.943,0.66,-1.403,-0.147,-0.031
787.0,-8.045,-0.943,0.66,-1.403,-0.147,-0.031
791.0,-8.037,-1.181,0.419,-1.437,-0.157,-0.276
795.0,-8.037,-1.181,0.419,-1.437,-0.157,-0.276
799.0,-8.723,-1.395,0.025,-1.427,-0.119,-0.522
803.0,-8.723,-1.395,0.025,-1.427,-0.119,-0.522
807.0,-8.723,-1.395,-0.363,-1.427,-0.119,-0.522
812.0,-9.79,-1.539,-0.363,-1.381,-0.058,-0.752
816.0,-9.79,-1.539,-0.363,-1.381,-0.058,-0.752
820.0,-10.734,-1.626,-0.578,-1.316,-0.012,-0.944
824.0,-10.734,-1.626,-0.578,-1.316,-0.012,-0.944
828.0,-11.115,-1.75,-0.606,-1.316,-0.012,-1.087
832.0,-11.115,-1.75,-0.606,-1.237,-0.012,-1.087
836.0,-11.115,-1.75,-0.606,-1.237,-0.012,-1.087
841.0,-10.822,-1.935,-0.487,-1.14,-0.064,-1.184
845.0,-10.822,-1.935,-0.487,-1.14,-0.064,-1.184
849.0,-10.03,-2.11,-0.334,-1.014,-0.137,-1.247
853.0,-10.03,-2.11,-0.334,-1.014,-0.137,-1.247
857.0,-9.205,-2.221,-0.146,-1.014,-0.137,-1.247
861.0,-9.205,-2.221,-0.146,-0.854,-0.198,-1.286
865.0,-9.205,-2.221,-0.146,-0.854,-0.198,-1.286
869.0,-8.608,-2.258,0.022,-0.667,-0.238,-1.298
873.0,-8.608,-2.258,0.022,-0.667,-0.238,-1.298
877.0,-8.274,-2.253,0.175,-0.667,-0.262,-1.278
881.0,-8.274,-2.253,0.175,-0.463,-0.262,-1.278
885.0,-8.274,-2.253,0.175,-0.463,-0.262,-1.278
889.0,-8.186,-2.185,0.267,-0.258,-0.28,-1.225
893.0,-8.186,-2.185,0.267,-0.258,-0.28,-1.225
897.0,-8.109,-2.087,0.3,-0.067,-0.299,-1.144
901.0,-8.109,-2.087,0.3,-0.067,-0.299,-1.144
905.0,-8.109,-2.087,0.3,-0.067,-0.299,-1.144
909.0,-7.923,-1.966,0.399,0.097,-0.329,-1.043
913.0,-7.923,-1.966,0.399,0.097,-0.329,-1.043
917.0,-7.711,-1.819,0.549,0.232,-0.375,-0.938
921.0,-7.711,-1.819,0.549,0.232,-0.375,-0.938
925.0,-7.711,-1.819,0.549,0.232,-0.375,-0.938
929.0,-7.595,-1.665,0.62,0.338,-0.433,-0.839
933.0,-7.595,-1.665,0.62,0.338,-0.433,-0.839
937.0,-7.549,-1.505,0.666,0.338,-0.495,-0.75
941.0,-7.549,-1.505,0.666,0.42,-0.495,-0.75
945.0,-7.549,-1.505,0.666,0.42,-0.495,-0.75
948.0,-7.476,-1.317,0.684,0.484,-0.57,-0.669
952.0,-7.476,-1.317,0.684,0.484,-0.57,-0.669
956.0,-7.381,-1.085,0.646,0.484,-0.57,-0.594
960.0,-7.381,-1.085,0.646,0.529,-0.657,-0.594
964.0,-7.381,-1.085,0.646,0.529,-0.657,-0.594
968.0,-7.271,-0.833,0.527,0.557,-0.748,-0.528
972.0,-7.271,-0.833,0.527,0.557,-0.748,-0.528
976.0,-7.159,-0.568,0.332,0.557,-0.748,-0.528
980.0,-7.159,-0.568,0.332,0.565,-0.83,-0.472
984.0,-7.159,-0.568,0.332,0.565,-0.83,-0.472
987.0,-6.995,-0.297,0.105,0.554,-0.899,-0.426
991.0,-6.995,-0.297,0.105,0.554,-0.899,-0.426
995.0,-6.995,-0.026,-0.091,0.554,-0.899,-0.426
999.0,-6.761,-0.026,-0.091,0.521,-0.958,-0.394
1003.0,-6.761,-0.026,-0.091,0.521,-0.958,-0.394
1007.0,-6.527,0.218,-0.278,0.464,-0.999,-0.376
1011.0,-6.527,0.218,-0.278,0.464,-0.999,-0.376
1015.0,-6.376,0.43,-0.48,0.464,-0.999,-0.374
1019.0,-6.376,0.43,-0.48,0.383,-1.017,-0.374
1023.0,-6.376,0.43,-0.48,0.383,-1.017,-0.374
1027.0,-6.285,0.629,-0.611,0.276,-1.007,-0.383
1031.0,-6.285,0.629,-0.611,0.276,-1.007,-0.383
1035.0,-6.233,0.791,-0.648,0.276,-0.976,-0.397
1039.0,-6.233,0.791,-0.648,0.145,-0.976,-0.397
1043.0,-6.233,0.791,-0.648,0.145,-0.976,-0.397
1047.0,-6.572,0.935,-0.085,-0.011,-0.936,-0.416
1051.0,-6.572,0.935,-0.085,-0.011,-0.936,-0.416
1055.0,-6.508,1.109,-0.687,-0.228,-0.917,-0.452
1060.0,-6.508,1.109,-0.687,-0.228,-0.917,-0.452
1064.0,-6.508,1.109,-0.687,-0.228,-0.917,-0.452
1068.0,-6.733,1.127,-0.265,-0.451,-0.856,-0.471
1072.0,-6.733,1.127,-0.265,-0.451,-0.856,-0.471
1076.0,-6.832,0.928,-0.309,-0.683,-0.796,-0.484
1080.0,-6.832,0.928,-0.309,-0.683,-0.796,-0.484
1084.0,-6.832,0.928,-0.2,-0.683,-0.796,-0.484
1088.0,-7.223,0.885,-0.2,-0.912,-0.725,-0.501
1092.0,-7.223,0.885,-0.2,-0.912,-0.725,-0.501
1096.0,-7.695,0.808,-0.042,-1.137,-0.653,-0.514
1100.0,-7.695,0.808,-0.042,-1.137,-0.653,-0.514
1104.0,-8.085,0.735,0.028,-1.137,-0.593,-0.521
1108.0,-8.085,0.735,0.028,-1.356,-0.593,-0.521
1112.0,-8.085,0.735,0.028,-1.356,-0.593,-0.521
1116.0,-8.386,0.612,0.129,-1.569,-0.542,-0.52
1120.0,-8.386,0.612,0.129,-1.569,-0.542,-0.52
1124.0,-8.505,0.407,0.179,-1.767,-0.496,-0.505
1128.0,-8.505,0.407,0.179,-1.767,-0.496,-0.505
1132.0,-8.505,0.407,0.179,-1.767,-0.496,-0.505
1136.0,-8.485,0.247,0.214,-1.937,-0.445,-0.485
1140.0,-8.485,0.247,0.214,-1.937,-0.445,-0.485
1144.0,-8.455,0.189,0.217,-2.075,-0.38,-0.449
1148.0,-8.455,0.189,0.217,-2.075,-0.38,-0.449
1152.0,-8.455,0.189,0.217,-2.075,-0.38,-0.449
1156.0,-8.472,0.12,0.211,-2.184,-0.298,-0.389
1160.0,-8.472,0.12,0.211,-2.184,-0.298,-0.389
1164.0,-8.475,-0.01,0.167,-2.27,-0.192,-0.309
1168.0,-8.475,-0.01,0.167,-2.27,-0.192,-0.309
1172.0,-8.475,-0.01,0.167,-2.27,-0.192,-0.309
1177.0,-8.398,-0.113,0.181,-2.339,-0.07,-0.217
1181.0,-8.398,-0.113,0.181,-2.339,-0.07,-0.217
1185.0,-8.314,-0.217,0.209,-2.396,0.06,-0.12
1189.0,-8.314,-0.217,0.209,-2.396,0.06,-0.12
1193.0,-8.314,-0.328,0.244,-2.396,0.06,-0.12
1197.0,-8.308,-0.328,0.244,-2.446,0.2,-0.018
1201.0,-8.308,-0.328,0.244,-2.446,0.2,-0.018
1205.0,-8.311,-0.488,0.33,-2.491,0.35,0.087
1209.0,-8.311,-0.488,0.33,-2.491,0.35,0.087
1212.0,-8.311,-0.673,0.501,-2.491,0.35,0.087
1216.0,-8.303,-0.673,0.501,-2.527,0.505,0.195
1220.0,-8.303,-0.673,0.501,-2.527,0.505,0.195
1224.0,-8.278,-0.885,0.739,-2.552,0.656,0.309
1228.0,-8.278,-0.885,0.739,-2.552,0.656,0.309
1232.0,-8.278,-0.885,0.999,-2.552,0.656,0.309
1236.0,-8.262,-1.101,0.999,-2.562,0.8,0.429
1240.0,-8.262,-1.101,0.999,-2.562,0.8,0.429
1244.0,-8.228,-1.302,1.274,-2.553,0.934,0.555
1248.0,-8.228,-1.302,1.274,-2.553,0.934,0.555
1252.0,-8.228,-1.302,1.274,-2.553,0.934,0.555
1255.0,-8.177,-1.485,1.545,-2.523,1.056,0.688
1259.0,-8.177,-1.485,1.545,-2.523,1.056,0.688
1263.0,-8.158,-1.673,1.813,-2.468,1.163,0.823
1267.0,-8.158,-1.673,1.813,-2.468,1.163,0.823
1271.0,-8.158,-1.673,1.813,-2.468,1.163,0.823
1275.0,-8.184,-1.859,2.048,-2.386,1.251,0.962
1279.0,-8.184,-1.859,2.048,-2.386,1.251,0.962
1283.0,-8.221,-2.037,2.216,-2.279,1.315,1.1
1287.0,-8.221,-2.037,2.216,-2.279,1.315,1.1
1291.0,-8.221,-2.037,2.216,-2.279,1.315,1.1
1295.0,-8.315,-2.208,2.298,-2.149,1.357,1.236
1298.0,-8.315,-2.208,2.298,-2.149,1.357,1.236
1302.0,-8.489,-2.371,2.343,-1.999,1.385,1.364
1306.0,-8.489,-2.371,2.343,-1.999,1.385,1.364
1310.0,-8.489,-2.371,2.343,-1.999,1.385,1.364
1314.0,-8.704,-2.55,2.431,-1.83,1.404,1.49
1318.0,-8.704,-2.55,2.431,-1.83,1.404,1.49
1322.0,-8.755,-2.657,2.477,-1.643,1.406,1.616
1326.0,-8.755,-2.657,2.477,-1.643,1.406,1.616
1330.0,-8.755,-2.657,2.477,-1.643,1.406,1.616
1334.0,-8.941,-2.719,2.484,-1.449,1.392,1.733
1337.0,-8.941,-2.719,2.484,-1.449,1.392,1.733
1341.0,-9.217,-2.746,2.451,-1.449,1.378,1.854
1345.0,-9.217,-2.746,2.451,-1.257,1.378,1.854
1349.0,-9.217,-2.746,2.451,-1.257,1.378,1.854
1353.0,-9.48,-2.734,2.399,-1.069,1.366,1.982
1357.0,-9.48,-2.734,2.399,-1.069,1.366,1.982
1361.0,-9.746,-2.754,2.267,-1.069,1.366,2.11
1365.0,-9.746,-2.754,2.267,-0.894,1.362,2.11
1369.0,-9.746,-2.754,2.267,-0.894,1.362,2.11
1373.0,-10.064,-2.725,2.148,-0.737,1.377,2.229
1377.0,-10.064,-2.725,2.148,-0.737,1.377,2.229
1381.0,-10.573,-2.676,2.035,-0.737,1.377,2.326
1385.0,-10.573,-2.676,2.035,-0.611,1.426,2.326
1389.0,-10.573,-2.676,2.035,-0.611,1.426,2.326
1393.0,-11.357,-2.736,2.035,-0.506,1.486,2.402
1397.0,-11.357,-2.736,2.035,-0.506,1.486,2.402
1401.0,-12.113,-2.708,2.305,-0.506,1.541,2.457
1405.0,-12.113,-2.708,2.305,-0.413,1.541,2.457
1409.0,-12.113,-2.708,2.305,-0.413,1.541,2.457
1413.0,-12.729,-2.652,2.773,-0.331,1.565,2.483
1417.0,-12.729,-2.652,2.773,-0.331,1.565,2.483
1421.0,-12.988,-2.609,3.173,-0.252,1.533,2.466
1425.0,-12.988,-2.609,3.173,-0.252,1.533,2.466
1429.0,-12.988,-2.609,3.173,-0.252,1.533,2.466
1433.0,-13.024,-2.573,3.334,-0.183,1.455,2.388
1437.0,-13.024,-2.573,3.334,-0.183,1.455,2.388
1441.0,-12.93,-2.471,3.564,-0.132,1.376,2.229
1444.0,-12.93,-2.471,3.564,-0.132,1.376,2.229
1448.0,-12.93,-2.471,3.564,-0.132,1.376,2.229
1452.0,-12.483,-2.359,3.799,-0.099,1.285,1.988
1456.0,-12.483,-2.359,3.799,-0.099,1.285,1.988
1460.0,-11.736,-2.171,4.001,-0.083,1.176,1.671
1464.0,-11.736,-2.171,4.001,-0.083,1.176,1.671
1468.0,-11.736,-2.171,4.001,-0.083,1.176,1.671
1472.0,-10.936,-1.941,4.126,-0.074,1.067,1.281
1476.0,-10.936,-1.941,4.126,-0.074,1.067,1.281
1480.0,-10.277,-1.597,4.215,-0.062,0.966,0.834
1484.0,-10.277,-1.597,4.215,-0.062,0.966,0.834
1488.0,-10.277,-1.597,4.215,-0.062,0.966,0.834
1492.0,-9.983,-1.061,4.374,-0.043,0.879,0.369
1496.0,-9.983,-1.061,4.374,-0.043,0.879,0.369
1500.0,-9.921,-0.457,4.41,-0.019,0.796,-0.054
1504.0,-9.921,-0.457,4.41,-0.019,0.796,-0.054
1508.0,-9.921,-0.457,4.41,-0.019,0.796,-0.054
1512.0,-10.022,-0.019,4.445,0.001,0.716,-0.39
1516.0,-10.022,-0.019,4.445,0.001,0.716,-0.39
1520.0,-10.424,0.288,4.631,0.017,0.646,-0.635
1524.0,-10.424,0.288,4.631,0.017,0.646,-0.635
1528.0,-10.424,0.288,4.631,0.017,0.646,-0.635
1532.0,-10.858,0.408,4.728,0.033,0.56,-0.799
1536.0,-10.858,0.408,4.728,0.033,0.56,-0.799
1540.0,-11.273,0.373,4.736,0.041,0.457,-0.895
1544.0,-11.273,0.373,4.736,0.041,0.457,-0.895
1548.0,-11.273,0.373,4.736,0.041,0.457,-0.895
1551.0,-11.789,0.208,4.768,0.034,0.359,-0.946
1555.0,-11.789,0.208,4.768,0.034,0.359,-0.946
1559.0,-12.092,-0.015,4.751,0.003,0.257,-0.967
1563.0,-12.092,-0.015,4.751,0.003,0.257,-0.967
1567.0,-12.092,-0.015,4.751,0.003,0.257,-0.967
1571.0,-11.987,-0.188,4.744,-0.059,0.144,-0.959
1575.0,-11.987,-0.188,4.744,-0.059,0.144,-0.959
1579.0,-11.6,-0.361,4.756,-0.154,0.034,-0.93
1583.0,-11.6,-0.361,4.756,-0.154,0.034,-0.93
1588.0,-11.6,-0.617,4.748,-0.154,0.034,-0.93
1592.0,-11.066,-0.617,4.748,-0.269,-0.06,-0.898
1596.0,-11.066,-0.617,4.748,-0.269,-0.06,-0.898
1600.0,-10.787,-0.911,4.811,-0.392,-0.109,-0.88
1604.0,-10.787,-0.911,4.811,-0.392,-0.109,-0.88
1608.0,-11.059,-1.157,5.142,-0.498,-0.12,-0.874
1612.0,-11.059,-1.157,5.142,-0.498,-0.12,-0.874
1617.0,-11.059,-1.157,5.142,-0.498,-0.12,-0.874
1621.0,-11.266,-1.35,5.161,-0.571,-0.154,-0.854
1625.0,-11.266,-1.35,5.161,-0.571,-0.154,-0.854
1629.0,-11.218,-1.542,4.981,-0.611,-0.222,-0.813
1633.0,-11.218,-1.542,4.981,-0.611,-0.222,-0.813
1637.0,-11.494,-1.687,5.121,-0.611,-0.28,-0.782
1642.0,-11.494,-1.687,5.121,-0.614,-0.28,-0.782
1646.0,-11.494,-1.687,5.121,-0.614,-0.28,-0.782
1650.0,-11.828,-1.775,5.145,-0.55,-0.333,-0.764
1654.0,-11.828,-1.775,5.145,-0.55,-0.333,-0.764
1658.0,-11.687,-1.808,4.996,-0.412,-0.413,-0.733
1662.0,-11.687,-1.808,4.996,-0.412,-0.413,-0.733
1667.0,-11.088,-1.813,4.74,-0.412,-0.413,-0.733
1671.0,-11.088,-1.813,4.74,-0.216,-0.527,-0.69
1675.0,-11.088,-1.813,4.74,-0.216,-0.527,-0.69
1679.0,-10.501,-1.758,4.421,0.01,-0.647,-0.653
1683.0,-10.501,-1.758,4.421,0.01,-0.647,-0.653
1687.0,-10.406,-1.701,3.916,0.225,-0.733,-0.63
1691.0,-10.406,-1.701,3.916,0.225,-0.733,-0.63
1695.0,-10.406,-1.701,3.916,0.225,-0.733,-0.63
1700.0,-10.896,-1.805,3.368,0.398,-0.782,-0.602
1704.0,-10.896,-1.805,3.368,0.398,-0.782,-0.602
1708.0,-11.616,-2.01,3.014,0.561,-0.805,-0.583
1712.0,-11.616,-2.01,3.014,0.561,-0.805,-0.583
1716.0,-11.616,-2.125,2.763,0.561,-0.805,-0.583
1720.0,-12.523,-2.125,2.763,0.734,-0.819,-0.588
1724.0,-12.523,-2.125,2.763,0.734,-0.819,-0.588
1728.0,-13.507,-2.203,2.551,0.889,-0.859,-0.592
1732.0,-13.507,-2.203,2.551,0.889,-0.859,-0.592
1736.0,-14.247,-2.253,2.441,0.889,-0.932,-0.602
1740.0,-14.247,-2.253,2.441,1.021,-0.932,-0.602
1744.0,-14.247,-2.253,2.441,1.021,-0.932,-0.602
1748.0,-14.453,-2.249,2.376,1.143,-1.038,-0.633
1753.0,-14.453,-2.249,2.376,1.143,-1.038,-0.633
1757.0,-14.006,-2.203,2.316,1.257,-1.181,-0.691
1761.0,-14.006,-2.203,2.316,1.257,-1.181,-0.691
1765.0,-14.006,-2.203,2.316,1.257,-1.181,-0.691
1769.0,-12.969,-2.151,2.06,1.371,-1.345,-0.781
1773.0,-12.969,-2.151,2.06,1.371,-1.345,-0.781
1777.0,-11.888,-2.054,1.595,1.482,-1.489,-0.905
1781.0,-11.888,-2.054,1.595,1.482,-1.489,-0.905
1785.0,-11.191,-1.938,1.102,1.482,-1.489,-0.905
1789.0,-11.191,-1.938,1.102,1.588,-1.572,-1.058
1793.0,-11.191,-1.938,1.102,1.588,-1.572,-1.058
1797.0,-10.938,-1.817,0.662,1.695,-1.594,-1.224
1802.0,-10.938,-1.817,0.662,1.695,-1.594,-1.224
1806.0,-11.041,-1.749,0.324,1.801,-1.581,-1.38
1810.0,-11.041,-1.749,0.324,1.801,-1.581,-1.38
1814.0,-11.041,-1.749,0.324,1.801,-1.581,-1.38
1818.0,-11.428,-1.668,0.038,1.91,-1.563,-1.513
1822.0,-11.428,-1.668,0.038,1.91,-1.563,-1.513
1826.0,-11.879,-1.609,-0.2,2.018,-1.563,-1.61
1830.0,-11.879,-1.609,-0.2,2.018,-1.563,-1.61
1834.0,-11.879,-1.564,-0.436,2.018,-1.563,-1.61
1839.0,-12.207,-1.564,-0.436,2.117,-1.585,-1.674
1843.0,-12.207,-1.564,-0.436,2.117,-1.585,-1.674
1847.0,-12.215,-1.515,-0.715,2.199,-1.628,-1.71
1851.0,-12.215,-1.515,-0.715,2.199,-1.628,-1.71
1855.0,-11.974,-1.491,-1.048,2.252,-1.677,-1.721
1859.0,-11.974,-1.491,-1.048,2.252,-1.677,-1.721
1864.0,-11.974,-1.491,-1.048,2.252,-1.677,-1.721
1868.0,-11.611,-1.466,-1.345,2.268,-1.711,-1.712
1872.0,-11.611,-1.466,-1.345,2.268,-1.711,-1.712
1876.0,-11.059,-1.442,-1.546,2.25,-1.723,-1.678
1880.0,-11.059,-1.442,-1.546,2.25,-1.723,-1.678
1884.0,-10.369,-1.455,-1.694,2.25,-1.721,-1.622
1889.0,-10.369,-1.455,-1.694,2.199,-1.721,-1.622
1893.0,-10.369,-1.455,-1.694,2.199,-1.721,-1.622
1897.0,-9.61,-1.489,-1.871,2.12,-1.703,-1.538
1901.0,-9.61,-1.489,-1.871,2.12,-1.703,-1.538
1905.0,-8.885,-1.548,-2.115,2.014,-1.652,-1.431
1909.0,-8.885,-1.548,-2.115,2.014,-1.652,-1.431
1913.0,-8.885,-1.548,-2.376,2.014,-1.652,-1.431
1917.0,-8.226,-1.608,-2.376,1.882,-1.556,-1.299
1921.0,-8.226,-1.608,-2.376,1.882,-1.556,-1.299
1925.0,-7.733,-1.643,-2.463,1.726,-1.413,-1.136
1929.0,-7.733,-1.643,-2.463,1.726,-1.413,-1.136
1934.0,-7.498,-1.702,-2.402,1.726,-1.413,-0.944
1938.0,-7.498,-1.702,-2.402,1.548,-1.243,-0.944
1942.0,-7.498,-1.702,-2.402,1.548,-1.243,-0.944
1946.0,-7.485,-1.851,-2.236,1.355,-1.067,-0.73
1950.0,-7.485,-1.851,-2.236,1.355,-1.067,-0.73
1954.0,-7.607,-2.043,-1.982,1.159,-0.904,-0.507
1958.0,-7.607,-2.043,-1.982,1.159,-0.904,-0.507
1962.0,-7.607,-2.043,-1.982,1.159,-0.904,-0.507
1966.0,-7.792,-2.412,-1.658,0.984,-0.767,-0.292
1970.0,-7.792,-2.412,-1.658,0.984,-0.767,-0.292
1974.0,-7.968,-2.811,-1.318,0.852,-0.666,-0.096
1978.0,-7.968,-2.811,-1.318,0.852,-0.666,-0.096
1983.0,-8.034,-3.182,-1.028,0.852,-0.666,-0.096
1987.0,-8.034,-3.182,-1.028,0.78,-0.599,0.073
1991.0,-8.034,-3.182,-1.028,0.78,-0.599,0.073
1995.0,-8.015,-3.376,-0.936,0.772,-0.564,0.216
1999.0,-8.015,-3.376,-0.936,0.772,-0.564,0.216
2003.0,-8.003,-3.494,-1.167,0.772,-0.564,0.345
2007.0,-8.003,-3.494,-1.167,0.804,-0.546,0.345
2011.0,-8.003,-3.494,-1.167,0.804,-0.546,0.345
2015.0,-8.055,-3.554,-1.579,0.859,-0.508,0.468
2019.0,-8.055,-3.554,-1.579,0.859,-0.508,0.468
2023.0,-8.052,-3.537,-1.893,0.859,-0.426,0.586
2027.0,-8.052,-3.537,-1.893,0.934,-0.426,0.586
2031.0,-8.052,-3.537,-1.893,0.934,-0.426,0.586
2035.0,-7.911,-3.451,-2.049,1.019,-0.32,0.695
2039.0,-7.911,-3.451,-2.049,1.019,-0.32,0.695
2042.0,-7.783,-3.345,-2.033,1.109,-0.21,0.784
2046.0,-7.783,-3.345,-2.033,1.109,-0.21,0.784
2050.0,-7.783,-3.345,-2.033,1.109,-0.21,0.784
2054.0,-7.815,-3.236,-1.922,1.197,-0.103,0.845
2058.0,-7.815,-3.236,-1.922,1.197,-0.103,0.845
2062.0,-8.012,-3.135,-1.778,1.283,-0.004,0.88
2066.0,-8.012,-3.135,-1.778,1.283,-0.004,0.88
2070.0,-8.012,-3.135,-1.778,1.283,-0.004,0.88
2074.0,-8.302,-3.035,-1.594,1.365,0.076,0.897
2078.0,-8.302,-3.035,-1.594,1.365,0.076,0.897
2082.0,-8.555,-2.972,-1.405,1.441,0.135,0.901
2086.0,-8.555,-2.972,-1.405,1.441,0.135,0.901
2090.0,-8.555,-2.972,-1.405,1.441,0.135,0.901
2094.0,-8.624,-2.947,-1.235,1.518,0.171,0.889
2098.0,-8.624,-2.947,-1.235,1.518,0.171,0.889
2102.0,-8.518,-2.936,-1.122,1.594,0.187,0.854
2106.0,-8.518,-2.936,-1.122,1.594,0.187,0.854
2110.0,-8.518,-2.936,-1.122,1.594,0.187,0.854
2114.0,-8.361,-2.904,-1.143,1.668,0.194,0.792
2117.0,-8.361,-2.904,-1.143,1.668,0.194,0.792
2121.0,-8.196,-2.852,-1.247,1.736,0.211,0.701
2125.0,-8.196,-2.852,-1.247,1.736,0.211,0.701
2129.0,-8.196,-2.852,-1.247,1.736,0.211,0.701
2133.0,-8.07,-2.746,-1.35,1.791,0.247,0.592
2137.0,-8.07,-2.746,-1.35,1.791,0.247,0.592
2141.0,-8.012,-2.64,-1.354,1.791,0.247,0.473
2145.0,-8.012,-2.64,-1.354,1.832,0.302,0.473
2149.0,-8.012,-2.64,-1.354,1.832,0.302,0.473
2153.0,-8.124,-2.544,-1.287,1.863,0.365,0.354
2156.0,-8.124,-2.544,-1.287,1.863,0.365,0.354
2160.0,-8.472,-2.456,-1.201,1.863,0.365,0.354
2164.0,-8.472,-2.456,-1.201,1.888,0.43,0.242
2168.0,-8.472,-2.456,-1.201,1.888,0.43,0.242
2172.0,-9.03,-2.425,-1.085,1.913,0.496,0.148
2176.0,-9.03,-2.425,-1.085,1.913,0.496,0.148
2180.0,-9.03,-2.451,-0.942,1.913,0.496,0.148
2184.0,-9.721,-2.451,-0.942,1.94,0.56,0.073
2188.0,-9.721,-2.451,-0.942,1.94,0.56,0.073
2192.0,-10.469,-2.491,-0.748,1.971,0.619,0.015
2196.0,-10.469,-2.491,-0.748,1.971,0.619,0.015
2200.0,-10.469,-2.569,-0.548,1.971,0.619,0.015
2204.0,-11.226,-2.569,-0.548,2.004,0.669,-0.03
2208.0,-11.226,-2.569,-0.548,2.004,0.669,-0.03
2212.0,-12.016,-2.66,-0.35,2.039,0.709,-0.064
2216.0,-12.016,-2.66,-0.35,2.039,0.709,-0.064
2220.0,-12.764,-2.762,-0.113,2.039,0.737,-0.091
2224.0,-12.764,-2.762,-0.113,2.071,0.737,-0.091
2228.0,-12.764,-2.762,-0.113,2.071,0.737,-0.091
2232.0,-13.376,-2.834,0.035,2.101,0.75,-0.12
2236.0,-13.376,-2.834,0.035,2.101,0.75,-0.12
2240.0,-13.852,-2.845,0.171,2.127,0.755,-0.161
2244.0,-13.852,-2.845,0.171,2.127,0.755,-0.161
2248.0,-13.852,-2.845,0.171,2.127,0.755,-0.161
2252.0,-14.301,-2.81,0.341,2.156,0.764,-0.23
2256.0,-14.301,-2.81,0.341,2.156,0.764,-0.23
2260.0,-14.869,-2.671,0.497,2.193,0.771,-0.323
2264.0,-14.869,-2.671,0.497,2.193,0.771,-0.323
2268.0,-14.869,-2.671,0.497,2.193,0.771,-0.323
2272.0,-15.464,-2.463,0.585,2.239,0.766,-0.434
2276.0,-15.464,-2.463,0.585,2.239,0.766,-0.434
2280.0,-15.669,-2.219,0.601,2.296,0.736,-0.545
2284.0,-15.669,-2.219,0.601,2.296,0.736,-0.545
2288.0,-15.669,-2.219,0.601,2.296,0.736,-0.545
2292.0,-15.636,-1.95,0.553,2.358,0.689,-0.652
2296.0,-15.636,-1.95,0.553,2.358,0.689,-0.652
2300.0,-15.672,-1.664,0.461,2.421,0.647,-0.751
2304.0,-15.672,-1.664,0.461,2.421,0.647,-0.751
2308.0,-15.672,-1.664,0.352,2.421,0.647,-0.751
2312.0,-15.671,-1.438,0.352,2.481,0.62,-0.834
2316.0,-15.671,-1.438,0.352,2.481,0.62,-0.834
2320.0,-15.476,-1.274,0.282,2.533,0.602,-0.891
2324.0,-15.476,-1.274,0.282,2.533,0.602,-0.891
2328.0,-15.476,-1.048,0.27,2.533,0.602,-0.891
2332.0,-15.203,-1.048,0.27,2.563,0.585,-0.926
2336.0,-15.203,-1.048,0.27,2.563,0.585,-0.926
2340.0,-14.888,-1.013,0.384,2.566,0.571,-0.947
2344.0,-14.888,-1.013,0.384,2.566,0.571,-0.947
2348.0,-14.027,-0.903,0.482,2.566,0.571,-0.947
2352.0,-14.027,-0.903,0.482,2.559,0.554,-0.948
2356.0,-14.027,-0.903,0.482,2.559,0.554,-0.948
2360.0,-13.108,-0.643,0.645,2.515,0.512,-0.967
2364.0,-13.108,-0.643,0.645,2.515,0.512,-0.967
2368.0,-12.513,-0.384,0.845,2.515,0.461,-1.016
2372.0,-12.513,-0.384,0.845,2.427,0.461,-1.016
2376.0,-12.513,-0.384,0.845,2.427,0.461,-1.016
2380.0,-12.254,-0.082,0.992,2.304,0.406,-1.08
2384.0,-12.254,-0.082,0.992,2.304,0.406,-1.08
2388.0,-12.229,0.212,1.091,2.147,0.353,-1.137
2392.0,-12.229,0.212,1.091,2.147,0.353,-1.137
2396.0,-12.229,0.212,1.091,2.147,0.353,-1.137
2400.0,-12.3,0.471,1.189,1.96,0.305,-1.168
2404.0,-12.3,0.471,1.189,1.96,0.305,-1.168
2407.0,-12.328,0.683,1.284,1.96,0.257,-1.17
2411.0,-12.328,0.683,1.284,1.752,0.257,-1.17
2415.0,-12.328,0.683,1.284,1.752,0.257,-1.17
2419.0,-12.198,0.843,1.529,1.53,0.202,-1.138
2423.0,-12.198,0.843,1.529,1.53,0.202,-1.138
2427.0,-12.075,0.985,1.958,1.53,0.202,-1.138
2431.0,-12.075,0.985,1.958,1.319,0.116,-1.069
2435.0,-12.075,0.985,1.958,1.319,0.116,-1.069
2439.0,-11.825,0.988,2.377,1.154,-0.024,-0.958
2443.0,-11.825,0.988,2.377,1.154,-0.024,-0.958
2447.0,-11.325,0.921,2.759,1.154,-0.024,-0.958
2451.0,-11.325,0.921,2.759,1.058,-0.229,-0.816
2455.0,-11.325,0.921,2.759,1.058,-0.229,-0.816
2459.0,-10.68,0.981,3.005,1.036,-0.495,-0.659
2463.0,-10.68,0.981,3.005,1.036,-0.495,-0.659
2467.0,-10.022,1.131,2.767,1.036,-0.495,-0.507
2471.0,-10.022,1.131,2.767,1.05,-0.786,-0.507
2475.0,-10.022,1.131,2.767,1.05,-0.786,-0.507
2479.0,-9.484,1.405,2.3,1.047,-1.039,-0.374
2483.0,-9.484,1.405,2.3,1.047,-1.039,-0.374
2486.0,-9.169,1.822,1.866,1.047,-1.216,-0.255
2490.0,-9.169,1.822,1.866,0.984,-1.216,-0.255
2494.0,-9.169,1.822,1.866,0.984,-1.216,-0.255
2498.0,-8.982,2.228,1.534,0.839,-1.311,-0.132
2502.0,-8.982,2.228,1.534,0.839,-1.311,-0.132
2506.0,-8.871,2.531,1.396,0.839,-1.311,-0.003
2510.0,-8.871,2.531,1.396,0.6,-1.321,-0.003
2514.0,-8.871,2.531,1.396,0.6,-1.321,-0.003
2518.0,-8.783,2.786,1.535,0.278,-1.263,0.132
2521.0,-8.783,2.786,1.535,0.278,-1.263,0.132
2525.0,-8.783,2.963,1.837,0.278,-1.263,0.132
2529.0,-8.692,2.963,1.837,-0.111,-1.168,0.262
2533.0,-8.692,2.963,1.837,-0.111,-1.168,0.262
2537.0,-8.5,3.107,2.183,-0.543,-1.065,0.372
2541.0,-8.5,3.107,2.183,-0.543,-1.065,0.372
2545.0,-8.5,3.107,2.183,-0.543,-1.065,0.372
2549.0,-8.155,3.211,2.481,-0.998,-0.975,0.452
2553.0,-8.155,3.211,2.481,-0.998,-0.975,0.452
2556.0,-7.677,3.188,2.675,-1.461,-0.898,0.495
2560.0,-7.677,3.188,2.675,-1.461,-0.898,0.495
2564.0,-7.677,3.188,2.675,-1.461,-0.898,0.495
2568.0,-7.134,3.125,2.778,-1.912,-0.828,0.492
2572.0,-7.134,3.125,2.778,-1.912,-0.828,0.492
2576.0,-6.631,3.034,2.838,-2.341,-0.755,0.451
2580.0,-6.631,3.034,2.838,-2.341,-0.755,0.451
2584.0,-6.631,3.034,2.838,-2.341,-0.755,0.451
2588.0,-6.272,2.895,2.844,-2.735,-0.675,0.387
2592.0,-6.272,2.895,2.844,-2.735,-0.675,0.387
2596.0,-5.975,2.716,2.821,-3.084,-0.594,0.315
2599.0,-5.975,2.716,2.821,-3.084,-0.594,0.315
2603.0,-5.975,2.716,2.821,-3.084,-0.594,0.315
2607.0,-5.642,2.473,2.73,-3.382,-0.517,0.249
2611.0,-5.642,2.473,2.73,-3.382,-0.517,0.249
2615.0,-5.345,2.163,2.665,-3.628,-0.434,0.186
2619.0,-5.345,2.163,2.665,-3.628,-0.434,0.186
2623.0,-5.345,2.163,2.665,-3.628,-0.434,0.186
2627.0,-5.118,1.84,2.648,-3.816,-0.338,0.121
2631.0,-5.118,1.84,2.648,-3.816,-0.338,0.121
2635.0,-4.924,1.478,2.579,-3.816,-0.244,0.065
2638.0,-4.924,1.478,2.579,-3.948,-0.244,0.065
2642.0,-4.924,1.478,2.579,-3.948,-0.244,0.065
2646.0,-4.737,1.065,2.477,-4.027,-0.157,0.025
2650.0,-4.737,1.065,2.477,-4.027,-0.157,0.025
2654.0,-4.603,0.644,2.335,-4.027,-0.157,-0.005
2658.0,-4.603,0.644,2.335,-4.057,-0.074,-0.005
2662.0,-4.603,0.644,2.335,-4.057,-0.074,-0.005
2666.0,-4.504,0.234,2.197,-4.047,0.009,-0.023
2670.0,-4.504,0.234,2.197,-4.047,0.009,-0.023
2674.0,-4.484,-0.179,2.011,-4.047,0.009,-0.028
2678.0,-4.484,-0.179,2.011,-4.003,0.088,-0.028
2682.0,-4.484,-0.179,2.011,-4.003,0.088,-0.028
2686.0,-4.528,-0.553,1.92,-3.925,0.161,-0.016
2690.0,-4.528,-0.553,1.92,-3.925,0.161,-0.016
2694.0,-4.638,-0.867,1.927,-3.812,0.214,0.009
2698.0,-4.638,-0.867,1.927,-3.812,0.214,0.009
2702.0,-4.638,-0.867,1.927,-3.812,0.214,0.009
2706.0,-4.822,-1.153,2.002,-3.66,0.239,0.048
2710.0,-4.822,-1.153,2.002,-3.66,0.239,0.048
2713.0,-5.009,-1.434,2.055,-3.66,0.239,0.095
2717.0,-5.009,-1.434,2.055,-3.468,0.234,0.095
2721.0,-5.009,-1.434,2.055,-3.468,0.234,0.095
2725.0,-5.125,-1.676,2.079,-3.239,0.203,0.14
2729.0,-5.125,-1.676,2.079,-3.239,0.203,0.14
2733.0,-5.128,-1.895,2.054,-3.239,0.203,0.14
2737.0,-5.128,-1.895,2.054,-2.98,0.152,0.174
2741.0,-5.128,-1.895,2.054,-2.98,0.152,0.174
2745.0,-4.993,-2.037,2.058,-2.695,0.089,0.198
2749.0,-4.993,-2.037,2.058,-2.695,0.089,0.198
2752.0,-4.993,-2.097,1.996,-2.695,0.089,0.198
2756.0,-4.719,-2.097,1.996,-2.389,0.02,0.203
2760.0,-4.719,-2.097,1.996,-2.389,0.02,0.203
2764.0,-4.347,-2.126,1.875,-2.074,-0.041,0.194
2768.0,-4.347,-2.126,1.875,-2.074,-0.041,0.194
2772.0,-4.347,-2.072,1.719,-2.074,-0.041,0.194
2776.0,-3.958,-2.072,1.719,-1.759,-0.078,0.171
2780.0,-3.958,-2.072,1.719,-1.759,-0.078,0.171
2784.0,-3.667,-2.015,1.56,-1.452,-0.084,0.145
2788.0,-3.667,-2.015,1.56,-1.452,-0.084,0.145
2792.0,-3.482,-1.939,1.432,-1.452,-0.084,0.145
2796.0,-3.482,-1.939,1.432,-1.156,-0.049,0.123
2800.0,-3.482,-1.939,1.432,-1.156,-0.049,0.123
2804.0,-3.562,-1.839,1.399,-0.874,0.026,0.106
2808.0,-3.562,-1.839,1.399,-0.874,0.026,0.106
2812.0,-4.091,-1.745,1.443,-0.874,0.026,0.106
2816.0,-4.091,-1.745,1.443,-0.608,0.138,0.106
2820.0,-4.091,-1.745,1.443,-0.608,0.138,0.106
2824.0,-5.014,-1.679,1.589,-0.36,0.276,0.137
2828.0,-5.014,-1.679,1.589,-0.36,0.276,0.137
2831.0,-6.165,-1.651,1.811,-0.36,0.276,0.137
2835.0,-6.165,-1.651,1.811,-0.13,0.426,0.205
2839.0,-6.165,-1.651,1.811,-0.13,0.426,0.205
2843.0,-7.546,-1.691,2.096,0.087,0.578,0.306
2847.0,-7.546,-1.691,2.096,0.087,0.578,0.306
2851.0,-7.546,-1.691,2.096,0.087,0.578,0.306
2855.0,-9.308,-1.799,2.338,0.297,0.724,0.43
2858.0,-9.308,-1.799,2.338,0.297,0.724,0.43
2862.0,-11.431,-1.917,2.454,0.502,0.859,0.57
2866.0,-11.431,-1.917,2.454,0.502,0.859,0.57
2870.0,-11.431,-1.917,2.454,0.502,0.859,0.57
2874.0,-13.514,-1.873,2.658,0.689,0.969,0.72
2878.0,-13.514,-1.873,2.658,0.689,0.969,0.72
2882.0,-14.789,-1.625,2.961,0.839,1.029,0.895
2886.0,-14.789,-1.625,2.961,0.839,1.029,0.895
2890.0,-14.789,-1.625,2.961,0.839,1.029,0.895
2894.0,-14.787,-1.449,3.288,0.939,1.047,1.097
2897.0,-14.787,-1.449,3.288,0.939,1.047,1.097
2901.0,-13.968,-1.404,3.505,1.007,1.071,1.296
2905.0,-13.968,-1.404,3.505,1.007,1.071,1.296
2909.0,-13.968,-1.404,3.505,1.007,1.071,1.296
2913.0,-13.194,-1.312,3.519,1.068,1.15,1.455
2917.0,-13.194,-1.312,3.519,1.068,1.15,1.455
2921.0,-12.836,-1.056,3.412,1.068,1.297,1.561
2925.0,-12.836,-1.056,3.412,1.129,1.297,1.561
2929.0,-12.836,-1.056,3.412,1.129,1.297,1.561
2933.0,-12.677,-0.7,3.255,1.179,1.488,1.622
2936.0,-12.677,-0.7,3.255,1.179,1.488,1.622
2940.0,-12.572,-0.342,3.142,1.179,1.488,1.635
2944.0,-12.572,-0.342,3.142,1.205,1.69,1.635
2948.0,-12.572,-0.342,3.142,1.205,1.69,1.635
2952.0,-12.657,0.023,3.087,1.203,1.883,1.602
2956.0,-12.657,0.023,3.087,1.203,1.883,1.602
2960.0,-12.657,0.445,3.089,1.203,1.883,1.602
2964.0,-12.872,0.445,3.089,1.18,2.058,1.535
2967.0,-12.872,0.445,3.089,1.18,2.058,1.535
2971.0,-13.071,0.868,3.221,1.141,2.204,1.459
2975.0,-13.071,0.868,3.221,1.141,2.204,1.459
2979.0,-13.071,0.868,3.221,1.141,2.204,1.459
2983.0,-13.436,1.181,3.346,1.085,2.315,1.393
2986.0,-13.436,1.181,3.346,1.085,2.315,1.393
2990.0,-14.197,1.445,3.453,1.014,2.401,1.347
2994.0,-14.197,1.445,3.453,1.014,2.401,1.347
2998.0,-14.197,1.445,3.453,1.014,2.401,1.347
