deltaTime,Acc_X,Acc_Y,Acc_Z,Gyro_X,Gyro_Y,Gyro_Z
0.0,-6.629,-6.748,2.626,0.001,-0.101,0.095
3.0,-6.547,-6.571,2.729,0.031,-0.086,0.09
6.0,-6.547,-6.571,2.729,0.031,-0.086,0.09
9.0,-6.547,-6.571,2.729,0.031,-0.086,0.09
12.0,-6.547,-6.436,2.859,0.031,-0.086,0.09
15.0,-6.569,-6.436,2.859,0.042,-0.09,0.084
18.0,-6.569,-6.436,2.859,0.042,-0.09,0.084
21.0,-6.569,-6.436,2.859,0.042,-0.09,0.084
24.0,-6.712,-6.413,3.134,0.038,-0.055,0.091
27.0,-6.712,-6.413,3.134,0.038,-0.055,0.091
30.0,-6.712,-6.413,3.134,0.038,-0.055,0.091
33.0,-6.866,-6.43,3.287,0.046,-0.032,0.102
36.0,-6.866,-6.43,3.287,0.046,-0.032,0.102
39.0,-6.866,-6.43,3.287,0.046,-0.032,0.102
43.0,-6.89,-6.44,3.354,0.061,-0.029,0.113
47.0,-6.89,-6.44,3.354,0.061,-0.029,0.113
51.0,-6.89,-6.44,3.354,0.061,-0.029,0.113
54.0,-6.863,-6.449,3.271,0.069,-0.03,0.122
58.0,-6.863,-6.449,3.271,0.069,-0.03,0.122
62.0,-6.801,-6.398,3.164,0.065,-0.031,0.129
66.0,-6.801,-6.398,3.164,0.065,-0.031,0.129
69.0,-6.801,-6.398,3.164,0.065,-0.031,0.129
73.0,-6.875,-6.391,3.004,0.047,-0.031,0.132
77.0,-6.875,-6.391,3.004,0.047,-0.031,0.132
81.0,-6.875,-6.391,2.561,0.047,-0.031,0.132
84.0,-6.97,-6.444,2.561,0.029,-0.084,0.128
88.0,-6.97,-6.444,2.561,0.029,-0.084,0.128
92.0,-7.005,-6.489,3.327,0.015,-0.026,0.149
95.0,-7.005,-6.489,3.327,0.015,-0.026,0.149
99.0,-7.005,-6.489,3.327,0.015,-0.026,0.149
103.0,-7.018,-6.421,3.33,0.024,-0.044,0.146
107.0,-7.018,-6.421,3.33,0.024,-0.044,0.146
111.0,-6.959,-6.303,3.461,0.024,-0.044,0.146
114.0,-6.959,-6.303,3.461,0.019,-0.078,0.132
118.0,-6.959,-6.303,3.461,0.019,-0.078,0.132
122.0,-6.922,-6.185,3.366,0.003,-0.105,0.118
126.0,-6.922,-6.185,3.366,0.003,-0.105,0.118
130.0,-6.922,-6.185,3.366,0.003,-0.105,0.118
133.0,-6.819,-6.045,3.331,-0.027,-0.131,0.109
137.0,-6.819,-6.045,3.331,-0.027,-0.131,0.109
141.0,-6.872,-5.948,3.259,-0.074,-0.141,0.102
145.0,-6.872,-5.948,3.259,-0.074,-0.141,0.102
149.0,-6.872,-5.948,3.259,-0.074,-0.141,0.102
153.0,-6.959,-5.883,3.266,-0.139,-0.146,0.098
157.0,-6.959,-5.883,3.266,-0.139,-0.146,0.098
161.0,-7.061,-5.87,3.305,-0.216,-0.154,0.096
165.0,-7.061,-5.87,3.305,-0.216,-0.154,0.096
169.0,-7.061,-5.87,3.305,-0.216,-0.154,0.096
173.0,-7.086,-5.867,3.377,-0.294,-0.162,0.092
176.0,-7.086,-5.867,3.377,-0.294,-0.162,0.092
180.0,-7.146,-5.794,3.422,-0.365,-0.169,0.083
184.0,-7.146,-5.794,3.422,-0.365,-0.169,0.083
188.0,-7.146,-5.794,3.422,-0.365,-0.169,0.083
192.0,-7.224,-5.575,3.391,-0.441,-0.179,0.074
196.0,-7.224,-5.575,3.391,-0.441,-0.179,0.074
200.0,-7.178,-5.328,3.489,-0.441,-0.186,0.061
204.0,-7.178,-5.328,3.489,-0.553,-0.186,0.061
208.0,-7.178,-5.328,3.489,-0.553,-0.186,0.061
212.0,-7.359,-5.478,3.489,-0.678,-0.194,0.06
216.0,-7.359,-5.478,3.489,-0.678,-0.194,0.06
219.0,-7.359,-5.654,3.486,-0.678,-0.194,0.083
223.0,-7.359,-5.654,3.486,-0.761,-0.215,0.083
227.0,-7.359,-5.654,3.486,-0.761,-0.215,0.083
231.0,-7.287,-5.882,3.336,-0.798,-0.248,0.107
235.0,-7.287,-5.882,3.336,-0.798,-0.248,0.107
239.0,-7.123,-6.178,3.101,-0.798,-0.248,0.107
243.0,-7.123,-6.178,3.101,-0.786,-0.287,0.138
247.0,-7.123,-6.178,3.101,-0.786,-0.287,0.138
251.0,-6.967,-6.405,2.971,-0.727,-0.312,0.178
255.0,-6.967,-6.405,2.971,-0.727,-0.312,0.178
258.0,-6.967,-6.523,2.85,-0.727,-0.312,0.178
262.0,-6.906,-6.523,2.85,-0.648,-0.322,0.222
266.0,-6.906,-6.523,2.85,-0.648,-0.322,0.222
270.0,-6.86,-6.511,2.771,-0.578,-0.33,0.26
274.0,-6.86,-6.511,2.771,-0.578,-0.33,0.26
278.0,-6.86,-6.511,2.734,-0.578,-0.33,0.26
282.0,-6.789,-6.343,2.734,-0.536,-0.336,0.284
286.0,-6.789,-6.343,2.734,-0.536,-0.336,0.284
290.0,-6.787,-6.15,2.67,-0.526,-0.336,0.294
294.0,-6.787,-6.15,2.67,-0.526,-0.336,0.294
298.0,-6.787,-6.15,2.67,-0.526,-0.336,0.294
301.0,-6.891,-6.077,2.62,-0.541,-0.33,0.302
305.0,-6.891,-6.077,2.62,-0.541,-0.33,0.302
309.0,-7.111,-6.005,2.593,-0.563,-0.329,0.32
313.0,-7.111,-6.005,2.593,-0.563,-0.329,0.32
317.0,-7.111,-6.005,2.593,-0.563,-0.329,0.32
321.0,-7.242,-5.922,2.546,-0.594,-0.331,0.34
325.0,-7.242,-5.922,2.546,-0.594,-0.331,0.34
329.0,-7.187,-5.891,2.529,-0.639,-0.337,0.357
333.0,-7.187,-5.891,2.529,-0.639,-0.337,0.357
337.0,-7.187,-5.891,2.529,-0.639,-0.337,0.357
340.0,-7.333,-5.763,2.543,-0.7,-0.342,0.362
344.0,-7.333,-5.763,2.543,-0.7,-0.342,0.362
348.0,-7.436,-5.654,2.465,-0.787,-0.353,0.351
352.0,-7.436,-5.654,2.465,-0.787,-0.353,0.351
356.0,-7.436,-5.654,2.465,-0.787,-0.353,0.351
360.0,-7.494,-5.636,2.337,-0.892,-0.372,0.332
364.0,-7.494,-5.636,2.337,-0.892,-0.372,0.332
368.0,-7.627,-5.734,2.225,-0.993,-0.389,0.316
372.0,-7.627,-5.734,2.225,-0.993,-0.389,0.316
376.0,-7.627,-5.734,2.225,-0.993,-0.389,0.316
380.0,-7.656,-5.84,2.218,-1.069,-0.407,0.309
383.0,-7.656,-5.84,2.218,-1.069,-0.407,0.309
387.0,-7.621,-5.887,2.307,-1.069,-0.426,0.303
391.0,-7.621,-5.887,2.307,-1.121,-0.426,0.303
395.0,-7.621,-5.887,2.307,-1.121,-0.426,0.303
399.0,-7.625,-5.861,2.378,-1.165,-0.454,0.292
403.0,-7.625,-5.861,2.378,-1.165,-0.454,0.292
407.0,-7.455,-5.865,2.422,-1.165,-0.454,0.29
411.0,-7.455,-5.865,2.422,-1.203,-0.49,0.29
415.0,-7.455,-5.865,2.422,-1.203,-0.49,0.29
419.0,-7.433,-5.881,2.462,-1.228,-0.521,0.304
423.0,-7.433,-5.881,2.462,-1.228,-0.521,0.304
426.0,-7.488,-5.889,2.516,-1.228,-0.521,0.304
430.0,-7.488,-5.889,2.516,-1.238,-0.554,0.328
434.0,-7.488,-5.889,2.516,-1.238,-0.554,0.328
438.0,-7.56,-5.89,2.643,-1.237,-0.597,0.354
442.0,-7.56,-5.89,2.643,-1.237,-0.597,0.354
446.0,-7.56,-5.89,2.743,-1.237,-0.597,0.354
450.0,-7.581,-5.822,2.743,-1.23,-0.657,0.382
454.0,-7.581,-5.822,2.743,-1.23,-0.657,0.382
458.0,-7.482,-5.722,2.83,-1.219,-0.726,0.414
462.0,-7.482,-5.722,2.83,-1.219,-0.726,0.414
465.0,-7.482,-5.722,2.83,-1.219,-0.726,0.414
469.0,-7.387,-5.602,2.891,-1.206,-0.797,0.451
473.0,-7.387,-5.602,2.891,-1.206,-0.797,0.451
477.0,-7.285,-5.487,2.825,-1.191,-0.865,0.488
481.0,-7.285,-5.487,2.825,-1.191,-0.865,0.488
485.0,-7.285,-5.487,2.825,-1.191,-0.865,0.488
489.0,-7.16,-5.335,2.736,-1.172,-0.924,0.529
493.0,-7.16,-5.335,2.736,-1.172,-0.924,0.529
497.0,-7.089,-5.219,2.644,-1.156,-0.963,0.577
501.0,-7.089,-5.219,2.644,-1.156,-0.963,0.577
505.0,-7.089,-5.219,2.644,-1.156,-0.963,0.577
508.0,-7.12,-5.163,2.551,-1.141,-0.984,0.639
512.0,-7.12,-5.163,2.551,-1.141,-0.984,0.639
516.0,-7.223,-5.171,2.518,-1.125,-0.993,0.714
520.0,-7.223,-5.171,2.518,-1.125,-0.993,0.714
524.0,-7.223,-5.171,2.518,-1.125,-0.993,0.714
528.0,-7.402,-5.196,2.532,-1.103,-0.996,0.797
532.0,-7.402,-5.196,2.532,-1.103,-0.996,0.797
536.0,-7.666,-5.222,2.637,-1.073,-1.001,0.889
540.0,-7.666,-5.222,2.637,-1.073,-1.001,0.889
544.0,-7.666,-5.222,2.637,-1.073,-1.001,0.889
548.0,-7.892,-5.249,2.682,-1.04,-1.017,0.977
551.0,-7.892,-5.249,2.682,-1.04,-1.017,0.977
555.0,-7.995,-5.221,2.657,-0.997,-1.039,1.061
559.0,-7.995,-5.221,2.657,-0.997,-1.039,1.061
563.0,-7.995,-5.221,2.657,-0.997,-1.039,1.061
567.0,-8.036,-5.185,2.623,-0.942,-1.058,1.145
571.0,-8.036,-5.185,2.623,-0.942,-1.058,1.145
575.0,-8.039,-5.101,2.589,-0.942,-1.058,1.228
579.0,-8.039,-5.101,2.589,-0.875,-1.07,1.228
583.0,-8.039,-5.101,2.589,-0.875,-1.07,1.228
587.0,-8.002,-5.018,2.526,-0.798,-1.074,1.315
590.0,-8.002,-5.018,2.526,-0.798,-1.074,1.315
594.0,-7.926,-4.9,2.44,-0.798,-1.074,1.315
598.0,-7.926,-4.9,2.44,-0.707,-1.071,1.406
602.0,-7.926,-4.9,2.44,-0.707,-1.071,1.406
606.0,-7.847,-4.784,2.313,-0.606,-1.054,1.494
610.0,-7.847,-4.784,2.313,-0.606,-1.054,1.494
614.0,-7.847,-4.638,2.18,-0.606,-1.054,1.494
618.0,-7.819,-4.638,2.18,-0.5,-1.02,1.585
622.0,-7.819,-4.638,2.18,-0.5,-1.02,1.585
626.0,-7.872,-4.501,2.081,-0.393,-0.97,1.683
630.0,-7.872,-4.501,2.081,-0.393,-0.97,1.683
633.0,-7.872,-4.501,2.009,-0.393,-0.97,1.683
637.0,-8.037,-4.373,2.009,-0.287,-0.905,1.79
641.0,-8.037,-4.373,2.009,-0.287,-0.905,1.79
645.0,-8.289,-4.298,1.938,-0.184,-0.833,1.907
649.0,-8.289,-4.298,1.938,-0.184,-0.833,1.907
653.0,-8.289,-4.298,1.938,-0.184,-0.833,1.907
657.0,-8.634,-4.232,1.9,-0.085,-0.756,2.032
661.0,-8.634,-4.232,1.9,-0.085,-0.756,2.032
665.0,-8.958,-4.199,1.896,0.011,-0.68,2.161
669.0,-8.958,-4.199,1.896,0.011,-0.68,2.161
672.0,-8.958,-4.199,1.896,0.011,-0.68,2.161
676.0,-9.26,-4.168,1.918,0.103,-0.61,2.285
680.0,-9.26,-4.168,1.918,0.103,-0.61,2.285
684.0,-9.464,-4.115,1.934,0.188,-0.546,2.398
688.0,-9.464,-4.115,1.934,0.188,-0.546,2.398
691.0,-9.464,-4.115,1.934,0.188,-0.546,2.398
695.0,-9.626,-4.047,1.917,0.264,-0.489,2.49
699.0,-9.626,-4.047,1.917,0.264,-0.489,2.49
703.0,-9.718,-3.946,1.894,0.264,-0.489,2.49
707.0,-9.718,-3.946,1.894,0.329,-0.435,2.558
711.0,-9.718,-3.946,1.894,0.329,-0.435,2.558
714.0,-9.766,-3.819,1.847,0.383,-0.381,2.601
718.0,-9.766,-3.819,1.847,0.383,-0.381,2.601
722.0,-9.766,-3.819,1.847,0.383,-0.381,2.601
726.0,-9.793,-3.654,1.816,0.425,-0.324,2.621
730.0,-9.793,-3.654,1.816,0.425,-0.324,2.621
733.0,-9.823,-3.47,1.759,0.452,-0.264,2.625
737.0,-9.823,-3.47,1.759,0.452,-0.264,2.625
741.0,-9.823,-3.47,1.759,0.452,-0.264,2.625
745.0,-9.871,-3.295,1.693,0.466,-0.203,2.608
749.0,-9.871,-3.295,1.693,0.466,-0.203,2.608
753.0,-9.948,-3.152,1.646,0.466,-0.203,2.57
756.0,-9.948,-3.152,1.646,0.469,-0.142,2.57
760.0,-9.948,-3.152,1.646,0.469,-0.142,2.57
764.0,-10.033,-3.031,1.617,0.464,-0.082,2.51
768.0,-10.033,-3.031,1.617,0.464,-0.082,2.51
772.0,-10.033,-2.943,1.58,0.464,-0.082,2.51
776.0,-10.083,-2.943,1.58,0.454,-0.026,2.427
780.0,-10.083,-2.943,1.58,0.454,-0.026,2.427
784.0,-10.058,-2.867,1.562,0.44,0.025,2.322
787.0,-10.058,-2.867,1.562,0.44,0.025,2.322
791.0,-10.058,-2.867,1.562,0.44,0.025,2.322
795.0,-9.992,-2.784,1.53,0.422,0.069,2.194
799.0,-9.992,-2.784,1.53,0.422,0.069,2.194
802.0,-9.974,-2.703,1.479,0.403,0.116,2.045
806.0,-9.974,-2.703,1.479,0.403,0.116,2.045
810.0,-9.974,-2.703,1.479,0.403,0.116,2.045
814.0,-10.085,-2.637,1.442,0.382,0.163,1.877
817.0,-10.085,-2.637,1.442,0.382,0.163,1.877
821.0,-10.287,-2.563,1.434,0.382,0.163,1.877
825.0,-10.287,-2.563,1.434,0.365,0.211,1.701
829.0,-10.287,-2.563,1.434,0.365,0.211,1.701
833.0,-10.482,-2.491,1.424,0.348,0.251,1.524
837.0,-10.482,-2.491,1.424,0.348,0.251,1.524
840.0,-10.482,-2.491,1.424,0.348,0.251,1.524
844.0,-10.605,-2.4,1.424,0.33,0.281,1.355
848.0,-10.605,-2.4,1.424,0.33,0.281,1.355
852.0,-10.596,-2.324,1.443,0.31,0.3,1.194
856.0,-10.596,-2.324,1.443,0.31,0.3,1.194
860.0,-10.596,-2.324,1.443,0.31,0.3,1.194
863.0,-10.381,-2.233,1.43,0.285,0.308,1.042
867.0,-10.381,-2.233,1.43,0.285,0.308,1.042
871.0,-10.025,-2.141,1.375,0.285,0.308,0.901
875.0,-10.025,-2.141,1.375,0.253,0.31,0.901
879.0,-10.025,-2.141,1.375,0.253,0.31,0.901
882.0,-9.666,-2.066,1.313,0.207,0.316,0.769
886.0,-9.666,-2.066,1.313,0.207,0.316,0.769
890.0,-9.666,-2.066,1.313,0.207,0.316,0.769
894.0,-9.374,-2.002,1.244,0.147,0.333,0.646
897.0,-9.374,-2.002,1.244,0.147,0.333,0.646
901.0,-9.246,-1.941,1.226,0.073,0.361,0.537
905.0,-9.246,-1.941,1.226,0.073,0.361,0.537
909.0,-9.246,-1.941,1.226,0.073,0.361,0.537
912.0,-9.241,-1.881,1.242,-0.016,0.393,0.444
916.0,-9.241,-1.881,1.242,-0.016,0.393,0.444
920.0,-9.241,-1.859,1.256,-0.016,0.393,0.444
924.0,-9.282,-1.859,1.256,-0.115,0.418,0.371
928.0,-9.282,-1.859,1.256,-0.115,0.418,0.371
931.0,-9.376,-1.883,1.27,-0.22,0.438,0.317
935.0,-9.376,-1.883,1.27,-0.22,0.438,0.317
939.0,-9.376,-1.883,1.27,-0.22,0.438,0.317
943.0,-9.413,-1.935,1.266,-0.326,0.452,0.278
947.0,-9.413,-1.935,1.266,-0.326,0.452,0.278
950.0,-9.376,-2.005,1.25,-0.428,0.461,0.255
954.0,-9.376,-2.005,1.25,-0.428,0.461,0.255
958.0,-9.376,-2.005,1.25,-0.428,0.461,0.255
962.0,-9.254,-2.091,1.253,-0.524,0.47,0.247
966.0,-9.254,-2.091,1.253,-0.524,0.47,0.247
970.0,-9.113,-2.168,1.243,-0.524,0.47,0.253
973.0,-9.113,-2.168,1.243,-0.612,0.483,0.253
977.0,-9.113,-2.168,1.243,-0.612,0.483,0.253
981.0,-9.017,-2.258,1.223,-0.687,0.501,0.273
985.0,-9.017,-2.258,1.223,-0.687,0.501,0.273
989.0,-9.017,-2.258,1.223,-0.687,0.501,0.273
992.0,-9.007,-2.329,1.195,-0.752,0.529,0.304
996.0,-9.007,-2.329,1.195,-0.752,0.529,0.304
1000.0,-9.126,-2.417,1.201,-0.808,0.569,0.349
1004.0,-9.126,-2.417,1.201,-0.808,0.569,0.349
1008.0,-9.126,-2.417,1.201,-0.808,0.569,0.349
1012.0,-9.337,-2.502,1.274,-0.855,0.61,0.406
1016.0,-9.337,-2.502,1.274,-0.855,0.61,0.406
1020.0,-9.507,-2.611,1.403,-0.892,0.644,0.471
1024.0,-9.507,-2.611,1.403,-0.892,0.644,0.471
1027.0,-9.507,-2.611,1.403,-0.892,0.644,0.471
1031.0,-9.59,-2.732,1.555,-0.918,0.661,0.535
1035.0,-9.59,-2.732,1.555,-0.918,0.661,0.535
1039.0,-9.57,-2.826,1.638,-0.927,0.66,0.585
1043.0,-9.57,-2.826,1.638,-0.927,0.66,0.585
1047.0,-9.57,-2.826,1.638,-0.927,0.66,0.585
1051.0,-9.519,-2.867,1.632,-0.92,0.652,0.613
1055.0,-9.519,-2.867,1.632,-0.92,0.652,0.613
1059.0,-9.499,-2.846,1.59,-0.92,0.651,0.624
1063.0,-9.499,-2.846,1.59,-0.899,0.651,0.624
1067.0,-9.499,-2.846,1.59,-0.899,0.651,0.624
1070.0,-9.608,-2.773,1.607,-0.871,0.661,0.626
1074.0,-9.608,-2.773,1.607,-0.871,0.661,0.626
1078.0,-9.646,-2.729,1.602,-0.871,0.661,0.626
1082.0,-9.646,-2.729,1.602,-0.839,0.67,0.626
1086.0,-9.646,-2.729,1.602,-0.839,0.67,0.626
1090.0,-9.598,-2.702,1.592,-0.807,0.67,0.62
1094.0,-9.598,-2.702,1.592,-0.807,0.67,0.62
1098.0,-9.606,-2.681,1.593,-0.807,0.67,0.62
1102.0,-9.606,-2.681,1.593,-0.777,0.676,0.599
1106.0,-9.606,-2.681,1.593,-0.777,0.676,0.599
1110.0,-9.764,-2.693,1.669,-0.743,0.698,0.562
1113.0,-9.764,-2.693,1.669,-0.743,0.698,0.562
1117.0,-9.764,-2.724,1.838,-0.743,0.698,0.562
1121.0,-9.93,-2.724,1.838,-0.705,0.725,0.515
1125.0,-9.93,-2.724,1.838,-0.705,0.725,0.515
1129.0,-10.025,-2.76,2.005,-0.663,0.735,0.463
1133.0,-10.025,-2.76,2.005,-0.663,0.735,0.463
1137.0,-10.025,-2.816,2.147,-0.663,0.735,0.463
1141.0,-10.035,-2.816,2.147,-0.613,0.727,0.399
1145.0,-10.035,-2.816,2.147,-0.613,0.727,0.399
1149.0,-9.982,-2.856,2.219,-0.551,0.711,0.315
1153.0,-9.982,-2.856,2.219,-0.551,0.711,0.315
1157.0,-9.982,-2.858,2.233,-0.551,0.711,0.315
1161.0,-9.891,-2.858,2.233,-0.478,0.698,0.215
1165.0,-9.891,-2.858,2.233,-0.478,0.698,0.215
1169.0,-9.832,-2.836,2.268,-0.4,0.693,0.105
1172.0,-9.832,-2.836,2.268,-0.4,0.693,0.105
1176.0,-9.832,-2.836,2.311,-0.4,0.693,0.105
1180.0,-9.821,-2.796,2.311,-0.314,0.693,-0.006
1184.0,-9.821,-2.796,2.311,-0.314,0.693,-0.006
1188.0,-9.872,-2.771,2.344,-0.222,0.696,-0.117
1192.0,-9.872,-2.771,2.344,-0.222,0.696,-0.117
1196.0,-9.872,-2.771,2.441,-0.222,0.696,-0.117
1200.0,-10.019,-2.761,2.441,-0.121,0.699,-0.222
1204.0,-10.019,-2.761,2.441,-0.121,0.699,-0.222
1208.0,-10.095,-2.768,2.575,-0.007,0.695,-0.321
1212.0,-10.095,-2.768,2.575,-0.007,0.695,-0.321
1217.0,-10.103,-2.773,2.675,-0.007,0.695,-0.412
1221.0,-10.103,-2.773,2.675,0.116,0.678,-0.412
1225.0,-10.103,-2.773,2.675,0.116,0.678,-0.412
1229.0,-10.081,-2.764,2.735,0.244,0.653,-0.496
1233.0,-10.081,-2.764,2.735,0.244,0.653,-0.496
1237.0,-10.088,-2.764,2.785,0.376,0.627,-0.576
1241.0,-10.088,-2.764,2.785,0.376,0.627,-0.576
1245.0,-10.088,-2.764,2.785,0.376,0.627,-0.576
1249.0,-10.193,-2.588,2.949,0.513,0.601,-0.648
1253.0,-10.193,-2.588,2.949,0.513,0.601,-0.648
1257.0,-10.624,-1.888,3.563,0.661,0.56,-0.683
1261.0,-10.624,-1.888,3.563,0.661,0.56,-0.683
1265.0,-10.624,-1.888,3.563,0.661,0.56,-0.683
1269.0,-11.096,-1.07,4.252,0.849,0.484,-0.64
1273.0,-11.096,-1.07,4.252,0.849,0.484,-0.64
1277.0,-11.45,-0.022,5.008,1.104,0.382,-0.53
1281.0,-11.45,-0.022,5.008,1.104,0.382,-0.53
1285.0,-11.45,-0.022,5.008,1.104,0.382,-0.53
1288.0,-11.517,0.817,5.323,1.449,0.272,-0.367
1292.0,-11.517,0.817,5.323,1.449,0.272,-0.367
1296.0,-11.475,1.28,5.172,1.866,0.172,-0.178
1300.0,-11.475,1.28,5.172,1.866,0.172,-0.178
1304.0,-11.475,1.28,5.172,1.866,0.172,-0.178
1308.0,-11.223,1.424,4.685,2.251,0.081,-0.003
1312.0,-11.223,1.424,4.685,2.251,0.081,-0.003
1316.0,-10.743,1.285,4.076,2.521,-0.003,0.138
1320.0,-10.743,1.285,4.076,2.521,-0.003,0.138
1324.0,-10.743,1.285,4.076,2.521,-0.003,0.138
1328.0,-10.158,1.013,3.487,2.666,-0.068,0.222
1331.0,-10.158,1.013,3.487,2.666,-0.068,0.222
1335.0,-9.703,0.799,3.002,2.71,-0.112,0.243
1339.0,-9.703,0.799,3.002,2.71,-0.112,0.243
1343.0,-9.703,0.799,3.002,2.71,-0.112,0.243
1347.0,-9.505,0.675,2.593,2.693,-0.142,0.229
1351.0,-9.505,0.675,2.593,2.693,-0.142,0.229
1354.0,-9.531,0.479,2.182,2.693,-0.142,0.229
1358.0,-9.531,0.479,2.182,2.649,-0.165,0.196
1362.0,-9.531,0.479,2.182,2.649,-0.165,0.196
1366.0,-9.635,0.38,1.802,2.612,-0.187,0.163
1370.0,-9.635,0.38,1.802,2.612,-0.187,0.163
1374.0,-9.635,0.38,1.802,2.612,-0.187,0.163
1377.0,-9.822,0.433,1.457,2.591,-0.209,0.155
1381.0,-9.822,0.433,1.457,2.591,-0.209,0.155
1385.0,-10.071,0.473,1.206,2.58,-0.227,0.172
1389.0,-10.071,0.473,1.206,2.58,-0.227,0.172
1393.0,-10.071,0.473,1.206,2.58,-0.227,0.172
1397.0,-10.237,0.532,1.19,2.564,-0.257,0.2
1401.0,-10.237,0.532,1.19,2.564,-0.257,0.2
1405.0,-10.394,0.662,1.324,2.504,-0.317,0.224
1408.0,-10.394,0.662,1.324,2.504,-0.317,0.224
1412.0,-10.394,0.662,1.324,2.504,-0.317,0.224
1416.0,-10.523,0.779,1.48,2.369,-0.403,0.229
1420.0,-10.523,0.779,1.48,2.369,-0.403,0.229
1424.0,-10.593,0.93,1.627,2.161,-0.501,0.218
1428.0,-10.593,0.93,1.627,2.161,-0.501,0.218
1432.0,-10.593,0.93,1.627,2.161,-0.501,0.218
1436.0,-10.595,1.094,1.707,1.899,-0.596,0.203
1440.0,-10.595,1.094,1.707,1.899,-0.596,0.203
1444.0,-10.587,1.201,1.692,1.899,-0.674,0.191
1448.0,-10.587,1.201,1.692,1.591,-0.674,0.191
1451.0,-10.587,1.201,1.692,1.591,-0.674,0.191
1455.0,-10.543,1.342,1.671,1.255,-0.73,0.185
1459.0,-10.543,1.342,1.671,1.255,-0.73,0.185
1463.0,-10.548,1.46,1.717,1.255,-0.73,0.185
1467.0,-10.548,1.46,1.717,0.899,-0.768,0.183
1471.0,-10.548,1.46,1.717,0.899,-0.768,0.183
1475.0,-10.607,1.53,1.801,0.525,-0.807,0.181
1479.0,-10.607,1.53,1.801,0.525,-0.807,0.181
1483.0,-10.623,1.557,1.845,0.525,-0.807,0.181
1487.0,-10.623,1.557,1.845,0.136,-0.856,0.172
1490.0,-10.623,1.557,1.845,0.136,-0.856,0.172
1494.0,-10.499,1.482,1.74,-0.265,-0.913,0.151
1498.0,-10.499,1.482,1.74,-0.265,-0.913,0.151
1502.0,-10.499,1.359,1.642,-0.265,-0.913,0.151
1506.0,-10.315,1.359,1.642,-0.673,-0.959,0.112
1510.0,-10.315,1.359,1.642,-0.673,-0.959,0.112
1514.0,-10.097,1.247,1.627,-1.072,-0.998,0.058
1518.0,-10.097,1.247,1.627,-1.072,-0.998,0.058
1522.0,-9.827,1.117,1.532,-1.072,-0.998,0.058
1526.0,-9.827,1.117,1.532,-1.448,-1.037,0.001
1530.0,-9.827,1.117,1.532,-1.448,-1.037,0.001
1534.0,-9.495,0.971,1.377,-1.795,-1.069,-0.052
1538.0,-9.495,0.971,1.377,-1.795,-1.069,-0.052
1542.0,-9.182,0.785,1.277,-1.795,-1.069,-0.052
1546.0,-9.182,0.785,1.277,-2.103,-1.083,-0.1
1550.0,-9.182,0.785,1.277,-2.103,-1.083,-0.1
1554.0,-8.996,0.594,1.221,-2.361,-1.08,-0.144
1558.0,-8.996,0.594,1.221,-2.361,-1.08,-0.144
1562.0,-8.955,0.433,1.26,-2.361,-1.08,-0.185
1566.0,-8.955,0.433,1.26,-2.566,-1.064,-0.185
1570.0,-8.955,0.433,1.26,-2.566,-1.064,-0.185
1574.0,-8.984,0.267,1.314,-2.728,-1.05,-0.218
1578.0,-8.984,0.267,1.314,-2.728,-1.05,-0.218
1582.0,-9.06,0.07,1.444,-2.728,-1.043,-0.25
1586.0,-9.06,0.07,1.444,-2.859,-1.043,-0.25
1590.0,-9.06,0.07,1.444,-2.859,-1.043,-0.25
1594.0,-9.216,-0.136,1.6,-2.979,-1.049,-0.288
1598.0,-9.216,-0.136,1.6,-2.979,-1.049,-0.288
1602.0,-9.371,-0.337,1.612,-3.103,-1.065,-0.337
1606.0,-9.371,-0.337,1.612,-3.103,-1.065,-0.337
1610.0,-9.371,-0.337,1.612,-3.103,-1.065,-0.337
1614.0,-9.414,-0.541,1.582,-3.232,-1.077,-0.392
1618.0,-9.414,-0.541,1.582,-3.232,-1.077,-0.392
1623.0,-9.299,-0.808,1.496,-3.355,-1.074,-0.448
1627.0,-9.299,-0.808,1.496,-3.355,-1.074,-0.448
1631.0,-9.299,-1.085,1.411,-3.355,-1.074,-0.448
1635.0,-9.162,-1.085,1.411,-3.465,-1.05,-0.506
1639.0,-9.162,-1.085,1.411,-3.465,-1.05,-0.506
1643.0,-9.019,-1.397,1.429,-3.549,-1.01,-0.565
1647.0,-9.019,-1.397,1.429,-3.549,-1.01,-0.565
1651.0,-8.889,-1.708,1.419,-3.549,-0.968,-0.625
1655.0,-8.889,-1.708,1.419,-3.598,-0.968,-0.625
1659.0,-8.889,-1.708,1.419,-3.598,-0.968,-0.625
1663.0,-8.871,-1.987,1.411,-3.606,-0.921,-0.679
1667.0,-8.871,-1.987,1.411,-3.606,-0.921,-0.679
1671.0,-8.967,-2.149,1.436,-3.573,-0.863,-0.721
1676.0,-8.967,-2.149,1.436,-3.573,-0.863,-0.721
1680.0,-8.967,-2.149,1.436,-3.573,-0.863,-0.721
1684.0,-9.092,-2.358,1.526,-3.504,-0.802,-0.738
1688.0,-9.092,-2.358,1.526,-3.504,-0.802,-0.738
1692.0,-9.16,-2.706,1.533,-3.402,-0.752,-0.739
1696.0,-9.16,-2.706,1.533,-3.402,-0.752,-0.739
1700.0,-9.281,-2.981,1.563,-3.402,-0.752,-0.739
1704.0,-9.281,-2.981,1.563,-3.275,-0.703,-0.739
1708.0,-9.281,-2.981,1.563,-3.275,-0.703,-0.739
1712.0,-9.397,-3.176,1.607,-3.119,-0.652,-0.733
1716.0,-9.397,-3.176,1.607,-3.119,-0.652,-0.733
1720.0,-9.313,-3.368,1.601,-2.929,-0.607,-0.712
1725.0,-9.313,-3.368,1.601,-2.929,-0.607,-0.712
1729.0,-9.313,-3.368,1.601,-2.929,-0.607,-0.712
1733.0,-9.109,-3.558,1.566,-2.701,-0.565,-0.682
1737.0,-9.109,-3.558,1.566,-2.701,-0.565,-0.682
1741.0,-8.941,-3.69,1.504,-2.44,-0.509,-0.653
1745.0,-8.941,-3.69,1.504,-2.44,-0.509,-0.653
1749.0,-8.941,-3.69,1.475,-2.44,-0.509,-0.653
1753.0,-8.92,-3.776,1.475,-2.153,-0.433,-0.623
1757.0,-8.92,-3.776,1.475,-2.153,-0.433,-0.623
1761.0,-8.876,-3.814,1.502,-1.847,-0.348,-0.588
1765.0,-8.876,-3.814,1.502,-1.847,-0.348,-0.588
1769.0,-8.769,-3.839,1.507,-1.847,-0.265,-0.542
1773.0,-8.769,-3.839,1.507,-1.527,-0.265,-0.542
1778.0,-8.769,-3.839,1.507,-1.527,-0.265,-0.542
1782.0,-8.722,-3.824,1.482,-1.2,-0.183,-0.49
1786.0,-8.722,-3.824,1.482,-1.2,-0.183,-0.49
1790.0,-8.778,-3.818,1.467,-0.866,-0.091,-0.432
1794.0,-8.778,-3.818,1.467,-0.866,-0.091,-0.432
1798.0,-8.778,-3.818,1.467,-0.866,-0.091,-0.432
1802.0,-8.868,-3.824,1.51,-0.528,0.006,-0.368
1806.0,-8.868,-3.824,1.51,-0.528,0.006,-0.368
1810.0,-8.861,-3.806,1.54,-0.186,0.098,-0.297
1814.0,-8.861,-3.806,1.54,-0.186,0.098,-0.297
1818.0,-8.861,-3.806,1.585,-0.186,0.098,-0.297
1822.0,-8.744,-3.775,1.585,0.155,0.179,-0.226
1826.0,-8.744,-3.775,1.585,0.155,0.179,-0.226
1830.0,-8.595,-3.699,1.574,0.488,0.251,-0.164
1834.0,-8.595,-3.699,1.574,0.488,0.251,-0.164
1838.0,-8.595,-3.699,1.574,0.488,0.251,-0.164
1842.0,-8.504,-3.564,1.492,0.804,0.321,-0.114
1845.0,-8.504,-3.564,1.492,0.804,0.321,-0.114
1849.0,-8.499,-3.389,1.417,1.092,0.397,-0.068
1853.0,-8.499,-3.389,1.417,1.092,0.397,-0.068
1857.0,-8.499,-3.389,1.417,1.092,0.397,-0.068
1861.0,-8.527,-3.248,1.342,1.352,0.475,-0.023
1865.0,-8.527,-3.248,1.342,1.352,0.475,-0.023
1869.0,-8.528,-3.115,1.304,1.581,0.551,0.023
1873.0,-8.528,-3.115,1.304,1.581,0.551,0.023
1877.0,-8.528,-3.115,1.304,1.581,0.551,0.023
1880.0,-8.496,-2.972,1.278,1.783,0.616,0.066
1884.0,-8.496,-2.972,1.278,1.783,0.616,0.066
1888.0,-8.527,-2.814,1.236,1.783,0.675,0.1
1892.0,-8.527,-2.814,1.236,1.953,0.675,0.1
1896.0,-8.527,-2.814,1.236,1.953,0.675,0.1
1899.0,-8.635,-2.602,1.211,2.079,0.734,0.125
1903.0,-8.635,-2.602,1.211,2.079,0.734,0.125
1907.0,-8.635,-1.816,1.993,2.079,0.734,0.125
1911.0,-8.864,-1.816,1.993,2.135,0.787,0.14
1915.0,-8.864,-1.816,1.993,2.135,0.787,0.14
1919.0,-9.617,0.763,5.131,1.926,0.776,0.141
1922.0,-9.617,0.763,5.131,1.926,0.776,0.141
1926.0,-9.617,0.763,5.131,1.926,0.776,0.141
1930.0,-10.874,2.603,7.639,1.196,0.645,0.083
1934.0,-10.874,2.603,7.639,1.196,0.645,0.083
1937.0,-11.778,2.838,8.572,1.196,0.421,-0.024
1941.0,-11.778,2.838,8.572,0.261,0.421,-0.024
1945.0,-11.778,2.838,8.572,0.261,0.421,-0.024
1949.0,-11.549,1.817,7.939,-0.499,0.136,-0.104
1953.0,-11.549,1.817,7.939,-0.499,0.136,-0.104
1957.0,-10.622,0.473,6.344,-0.499,-0.135,-0.091
1961.0,-10.622,0.473,6.344,-0.934,-0.135,-0.091
1965.0,-10.622,0.473,6.344,-0.934,-0.135,-0.091
1969.0,-9.666,-0.614,4.767,-1.057,-0.308,0.015
1973.0,-9.666,-0.614,4.767,-1.057,-0.308,0.015
1977.0,-8.865,-1.486,3.525,-0.96,-0.36,0.154
1981.0,-8.865,-1.486,3.525,-0.96,-0.36,0.154
1985.0,-8.865,-1.486,3.525,-0.96,-0.36,0.154
1989.0,-8.407,-2.099,2.855,-0.757,-0.341,0.269
1993.0,-8.407,-2.099,2.855,-0.757,-0.341,0.269
1997.0,-8.331,-2.414,2.483,-0.562,-0.31,0.332
2001.0,-8.331,-2.414,2.483,-0.562,-0.31,0.332
2005.0,-8.331,-2.414,2.483,-0.562,-0.31,0.332
2009.0,-8.645,-2.554,2.161,-0.425,-0.285,0.353
2013.0,-8.645,-2.554,2.161,-0.425,-0.285,0.353
2017.0,-9.069,-2.511,1.982,-0.33,-0.254,0.356
2021.0,-9.069,-2.511,1.982,-0.33,-0.254,0.356
2025.0,-9.069,-2.511,1.982,-0.33,-0.254,0.356
2029.0,-9.321,-2.355,1.914,-0.286,-0.234,0.367
2033.0,-9.321,-2.355,1.914,-0.286,-0.234,0.367
2037.0,-9.415,-2.234,1.883,-0.282,-0.224,0.4
2041.0,-9.415,-2.234,1.883,-0.282,-0.224,0.4
2045.0,-9.415,-2.234,1.8,-0.282,-0.224,0.4
2049.0,-9.468,-2.14,1.8,-0.293,-0.2,0.448
2053.0,-9.468,-2.14,1.8,-0.293,-0.2,0.448
2057.0,-9.465,-2.142,1.698,-0.31,-0.159,0.502
2061.0,-9.465,-2.142,1.698,-0.31,-0.159,0.502
2065.0,-9.401,-2.207,1.589,-0.31,-0.159,0.502
2069.0,-9.401,-2.207,1.589,-0.334,-0.106,0.552
2073.0,-9.401,-2.207,1.589,-0.334,-0.106,0.552
2077.0,-9.327,-2.272,1.551,-0.369,-0.05,0.59
2081.0,-9.327,-2.272,1.551,-0.369,-0.05,0.59
2085.0,-9.24,-2.271,1.652,-0.369,-0.05,0.614
2089.0,-9.24,-2.271,1.652,-0.43,0.007,0.614
2093.0,-9.24,-2.271,1.652,-0.43,0.007,0.614
2097.0,-9.187,-2.138,1.834,-0.542,0.054,0.618
2101.0,-9.187,-2.138,1.834,-0.542,0.054,0.618
2105.0,-9.261,-1.912,2.125,-0.542,0.054,0.618
2109.0,-9.261,-1.912,2.125,-0.734,0.082,0.59
2113.0,-9.261,-1.912,2.125,-0.734,0.082,0.59
2116.0,-9.415,-1.777,2.434,-0.99,0.087,0.537
2120.0,-9.415,-1.777,2.434,-0.99,0.087,0.537
2124.0,-9.415,-1.839,2.664,-0.99,0.087,0.537
2128.0,-9.506,-1.839,2.664,-1.274,0.068,0.468
2132.0,-9.506,-1.839,2.664,-1.274,0.068,0.468
2136.0,-9.546,-2.032,2.859,-1.529,0.031,0.403
2140.0,-9.546,-2.032,2.859,-1.529,0.031,0.403
2144.0,-9.546,-2.032,3.018,-1.529,0.031,0.403
2148.0,-9.571,-2.278,3.018,-1.719,-0.017,0.35
2152.0,-9.571,-2.278,3.018,-1.719,-0.017,0.35
2156.0,-9.481,-2.657,2.966,-1.835,-0.069,0.312
2160.0,-9.481,-2.657,2.966,-1.835,-0.069,0.312
2164.0,-9.481,-2.657,2.871,-1.835,-0.069,0.312
2168.0,-9.343,-3.029,2.871,-1.861,-0.113,0.285
2172.0,-9.343,-3.029,2.871,-1.861,-0.113,0.285
2176.0,-9.25,-3.336,2.806,-1.797,-0.138,0.269
2180.0,-9.25,-3.336,2.806,-1.797,-0.138,0.269
2184.0,-9.314,-3.517,2.855,-1.797,-0.138,0.269
2188.0,-9.314,-3.517,2.855,-1.666,-0.149,0.262
2192.0,-9.314,-3.517,2.855,-1.666,-0.149,0.262
2196.0,-9.406,-3.605,2.914,-1.503,-0.155,0.257
2200.0,-9.406,-3.605,2.914,-1.503,-0.155,0.257
2204.0,-9.303,-3.676,2.789,-1.503,-0.155,0.249
2208.0,-9.303,-3.676,2.789,-1.332,-0.154,0.249
2212.0,-9.303,-3.676,2.789,-1.332,-0.154,0.249
2216.0,-9.141,-3.75,2.674,-1.153,-0.142,0.24
2220.0,-9.141,-3.75,2.674,-1.153,-0.142,0.24
2224.0,-9.102,-3.738,2.746,-1.153,-0.119,0.233
2228.0,-9.102,-3.738,2.746,-0.958,-0.119,0.233
2232.0,-9.102,-3.738,2.746,-0.958,-0.119,0.233
2236.0,-9.159,-3.654,2.822,-0.76,-0.097,0.225
2240.0,-9.159,-3.654,2.822,-0.76,-0.097,0.225
2244.0,-9.264,-3.542,2.904,-0.574,-0.076,0.211
2248.0,-9.264,-3.542,2.904,-0.574,-0.076,0.211
2252.0,-9.264,-3.542,2.904,-0.574,-0.076,0.211
2255.0,-9.284,-3.431,2.888,-0.412,-0.056,0.194
2259.0,-9.284,-3.431,2.888,-0.412,-0.056,0.194
2263.0,-9.272,-3.363,2.922,-0.27,-0.039,0.176
2267.0,-9.272,-3.363,2.922,-0.27,-0.039,0.176
2271.0,-9.272,-3.363,2.922,-0.27,-0.039,0.176
2275.0,-9.305,-3.288,3.042,-0.133,-0.027,0.164
2279.0,-9.305,-3.288,3.042,-0.133,-0.027,0.164
2283.0,-9.437,-3.118,3.184,-0.01,-0.03,0.152
2287.0,-9.437,-3.118,3.184,-0.01,-0.03,0.152
2291.0,-9.437,-3.118,3.184,-0.01,-0.03,0.152
2295.0,-9.531,-2.995,3.103,0.075,-0.035,0.134
2299.0,-9.531,-2.995,3.103,0.075,-0.035,0.134
2303.0,-9.242,-2.964,2.781,0.122,-0.033,0.106
2307.0,-9.242,-2.964,2.781,0.122,-0.033,0.106
2311.0,-9.242,-2.964,2.781,0.122,-0.033,0.106
2315.0,-9.042,-2.893,2.657,0.156,-0.016,0.082
2319.0,-9.042,-2.893,2.657,0.156,-0.016,0.082
2323.0,-8.982,-2.833,2.569,0.183,0.004,0.061
2327.0,-8.982,-2.833,2.569,0.183,0.004,0.061
2330.0,-8.982,-2.833,2.569,0.183,0.004,0.061
2334.0,-8.981,-2.815,2.448,0.211,0.024,0.044
2338.0,-8.981,-2.815,2.448,0.211,0.024,0.044
2342.0,-9.023,-2.816,2.367,0.211,0.024,0.029
2346.0,-9.023,-2.816,2.367,0.243,0.042,0.029
2350.0,-9.023,-2.816,2.367,0.243,0.042,0.029
2353.0,-9.099,-2.792,2.3,0.272,0.053,0.013
2357.0,-9.099,-2.792,2.3,0.272,0.053,0.013
2361.0,-9.099,-2.792,2.204,0.272,0.053,0.013
2365.0,-9.029,-2.798,2.204,0.294,0.06,-0.002
2369.0,-9.029,-2.798,2.204,0.294,0.06,-0.002
2373.0,-9.009,-2.764,2.182,0.312,0.068,-0.016
2377.0,-9.009,-2.764,2.182,0.312,0.068,-0.016
2380.0,-9.009,-2.764,2.182,0.312,0.068,-0.016
2384.0,-9.056,-2.712,2.182,0.327,0.078,-0.024
2388.0,-9.056,-2.712,2.182,0.327,0.078,-0.024
2392.0,-9.047,-2.672,2.189,0.332,0.086,-0.025
2396.0,-9.047,-2.672,2.189,0.332,0.086,-0.025
2400.0,-9.047,-2.672,2.189,0.332,0.086,-0.025
2404.0,-9.02,-2.614,2.235,0.332,0.088,-0.022
2408.0,-9.02,-2.614,2.235,0.332,0.088,-0.022
2412.0,-9.072,-2.505,2.318,0.322,0.082,-0.018
2416.0,-9.072,-2.505,2.318,0.322,0.082,-0.018
2419.0,-9.072,-2.505,2.318,0.322,0.082,-0.018
2423.0,-9.056,-2.447,2.298,0.295,0.078,-0.013
2427.0,-9.056,-2.447,2.298,0.295,0.078,-0.013
2431.0,-9.028,-2.387,2.295,0.25,0.081,-0.008
2435.0,-9.028,-2.387,2.295,0.25,0.081,-0.008
2439.0,-9.028,-2.387,2.295,0.25,0.081,-0.008
2443.0,-9.078,-2.335,2.328,0.193,0.086,0.004
2447.0,-9.078,-2.335,2.328,0.193,0.086,0.004
2451.0,-9.194,-2.352,2.357,0.193,0.094,0.024
2454.0,-9.194,-2.352,2.357,0.133,0.094,0.024
2458.0,-9.194,-2.352,2.357,0.133,0.094,0.024
2462.0,-9.321,-2.418,2.43,0.085,0.105,0.048
2466.0,-9.321,-2.418,2.43,0.085,0.105,0.048
2470.0,-9.321,-2.418,2.508,0.085,0.105,0.048
2473.0,-9.364,-2.471,2.508,0.053,0.112,0.072
2477.0,-9.364,-2.471,2.508,0.053,0.112,0.072
2481.0,-9.371,-2.553,2.572,0.043,0.111,0.097
2485.0,-9.371,-2.553,2.572,0.043,0.111,0.097
2489.0,-9.371,-2.553,2.572,0.043,0.111,0.097
2493.0,-9.342,-2.609,2.593,0.053,0.107,0.116
2496.0,-9.342,-2.609,2.593,0.053,0.107,0.116
2500.0,-9.278,-2.646,2.61,0.08,0.103,0.128
2504.0,-9.278,-2.646,2.61,0.08,0.103,0.128
2508.0,-9.278,-2.646,2.61,0.08,0.103,0.128
2512.0,-9.163,-2.659,2.606,0.122,0.098,0.135
2515.0,-9.163,-2.659,2.606,0.122,0.098,0.135
2519.0,-9.058,-2.644,2.608,0.122,0.098,0.135
2523.0,-9.058,-2.644,2.608,0.177,0.094,0.139
2527.0,-9.058,-2.644,2.608,0.177,0.094,0.139
2531.0,-9.019,-2.609,2.604,0.243,0.092,0.139
2535.0,-9.019,-2.609,2.604,0.243,0.092,0.139
2538.0,-9.019,-2.609,2.604,0.243,0.092,0.139
2542.0,-9.041,-2.548,2.632,0.31,0.098,0.138
2546.0,-9.041,-2.548,2.632,0.31,0.098,0.138
2550.0,-9.107,-2.515,2.576,0.369,0.103,0.136
2554.0,-9.107,-2.515,2.576,0.369,0.103,0.136
2557.0,-9.107,-2.515,2.576,0.369,0.103,0.136
2561.0,-9.124,-2.488,2.56,0.428,0.112,0.132
2565.0,-9.124,-2.488,2.56,0.428,0.112,0.132
2569.0,-9.132,-2.447,2.597,0.428,0.112,0.132
2573.0,-9.132,-2.447,2.597,0.486,0.113,0.132
2577.0,-9.132,-2.447,2.597,0.486,0.113,0.132
2580.0,-9.258,-2.429,2.594,0.541,0.11,0.128
2584.0,-9.258,-2.429,2.594,0.541,0.11,0.128
2588.0,-9.258,-2.429,2.617,0.541,0.11,0.128
2592.0,-9.324,-2.373,2.617,0.587,0.106,0.115
2596.0,-9.324,-2.373,2.617,0.587,0.106,0.115
2600.0,-9.324,-2.357,2.548,0.618,0.096,0.099
2603.0,-9.324,-2.357,2.548,0.618,0.096,0.099
2607.0,-9.324,-2.357,2.548,0.618,0.096,0.099
2611.0,-9.253,-2.325,2.531,0.64,0.089,0.081
2615.0,-9.253,-2.325,2.531,0.64,0.089,0.081
2619.0,-9.339,-2.262,2.536,0.659,0.079,0.067
2622.0,-9.339,-2.262,2.536,0.659,0.079,0.067
2626.0,-9.339,-2.262,2.536,0.659,0.079,0.067
2630.0,-9.498,-2.228,2.483,0.678,0.073,0.055
2634.0,-9.498,-2.228,2.483,0.678,0.073,0.055
2638.0,-9.548,-2.215,2.448,0.678,0.073,0.055
2642.0,-9.548,-2.215,2.448,0.696,0.065,0.044
2645.0,-9.548,-2.215,2.448,0.696,0.065,0.044
2649.0,-9.644,-2.185,2.416,0.709,0.054,0.034
2653.0,-9.644,-2.185,2.416,0.709,0.054,0.034
2657.0,-9.644,-2.185,2.416,0.709,0.054,0.034
2661.0,-9.75,-2.148,2.421,0.724,0.046,0.024
2664.0,-9.75,-2.148,2.421,0.724,0.046,0.024
2668.0,-9.786,-2.123,2.415,0.738,0.033,0.018
2672.0,-9.786,-2.123,2.415,0.738,0.033,0.018
2676.0,-9.786,-2.123,2.415,0.738,0.033,0.018
2680.0,-9.823,-2.094,2.389,0.753,0.024,0.009
2684.0,-9.823,-2.094,2.389,0.753,0.024,0.009
2687.0,-9.762,-2.03,2.407,0.753,0.024,0.0
2691.0,-9.762,-2.03,2.407,0.773,0.014,0.0
2695.0,-9.762,-2.03,2.407,0.773,0.014,0.0
2699.0,-9.696,-1.966,2.338,0.796,0.0,-0.005
2703.0,-9.696,-1.966,2.338,0.796,0.0,-0.005
2707.0,-9.696,-1.883,2.319,0.796,0.0,-0.005
2711.0,-9.53,-1.883,2.319,0.821,-0.008,-0.013
2715.0,-9.53,-1.883,2.319,0.821,-0.008,-0.013
2719.0,-9.481,-1.82,2.283,0.848,-0.009,-0.022
2723.0,-9.481,-1.82,2.283,0.848,-0.009,-0.022
2726.0,-9.467,-1.752,2.252,0.848,-0.009,-0.022
2730.0,-9.467,-1.752,2.252,0.874,-0.004,-0.03
2734.0,-9.467,-1.752,2.252,0.874,-0.004,-0.03
2738.0,-9.48,-1.679,2.297,0.903,-0.001,-0.033
2742.0,-9.48,-1.679,2.297,0.903,-0.001,-0.033
2746.0,-9.507,-1.585,2.358,0.903,-0.001,-0.033
2750.0,-9.507,-1.585,2.358,0.932,-0.009,-0.032
2754.0,-9.507,-1.585,2.358,0.932,-0.009,-0.032
2758.0,-9.522,-1.487,2.332,0.944,-0.022,-0.035
2762.0,-9.522,-1.487,2.332,0.944,-0.022,-0.035
2766.0,-9.481,-1.402,2.3,0.944,-0.031,-0.045
2770.0,-9.481,-1.402,2.3,0.931,-0.031,-0.045
2774.0,-9.481,-1.402,2.3,0.931,-0.031,-0.045
2778.0,-9.367,-1.309,2.294,0.899,-0.039,-0.052
2782.0,-9.367,-1.309,2.294,0.899,-0.039,-0.052
2786.0,-9.313,-1.213,2.365,0.854,-0.049,-0.055
2790.0,-9.313,-1.213,2.365,0.854,-0.049,-0.055
2794.0,-9.313,-1.213,2.365,0.854,-0.049,-0.055
2798.0,-9.287,-1.138,2.376,0.797,-0.06,-0.059
2802.0,-9.287,-1.138,2.376,0.797,-0.06,-0.059
2806.0,-9.242,-1.098,2.377,0.727,-0.068,-0.066
2810.0,-9.242,-1.098,2.377,0.727,-0.068,-0.066
2814.0,-9.242,-1.098,2.377,0.727,-0.068,-0.066
2818.0,-9.249,-1.067,2.381,0.652,-0.071,-0.073
2822.0,-9.249,-1.067,2.381,0.652,-0.071,-0.073
2826.0,-9.342,-1.031,2.439,0.585,-0.069,-0.072
2830.0,-9.342,-1.031,2.439,0.585,-0.069,-0.072
2834.0,-9.342,-1.031,2.439,0.585,-0.069,-0.072
2838.0,-9.492,-0.961,2.5,0.525,-0.072,-0.062
2842.0,-9.492,-0.961,2.5,0.525,-0.072,-0.062
2846.0,-9.568,-0.925,2.517,0.463,-0.082,-0.05
2850.0,-9.568,-0.925,2.517,0.463,-0.082,-0.05
2854.0,-9.568,-0.925,2.517,0.463,-0.082,-0.05
2858.0,-9.566,-0.942,2.495,0.395,-0.092,-0.041
2862.0,-9.566,-0.942,2.495,0.395,-0.092,-0.041
2866.0,-9.552,-0.955,2.473,0.329,-0.099,-0.033
2870.0,-9.552,-0.955,2.473,0.329,-0.099,-0.033
2874.0,-9.552,-0.955,2.438,0.329,-0.099,-0.033
2878.0,-9.642,-0.967,2.438,0.264,-0.099,-0.023
2882.0,-9.642,-0.967,2.438,0.264,-0.099,-0.023
2886.0,-9.727,-0.978,2.464,0.203,-0.091,-0.009
2890.0,-9.727,-0.978,2.464,0.203,-0.091,-0.009
2894.0,-9.727,-0.988,2.526,0.203,-0.091,-0.009
2898.0,-9.733,-0.988,2.526,0.146,-0.093,0.011
2902.0,-9.733,-0.988,2.526,0.146,-0.093,0.011
2906.0,-9.636,-1.008,2.541,0.094,-0.107,0.031
2910.0,-9.636,-1.008,2.541,0.094,-0.107,0.031
2914.0,-9.636,-1.008,2.557,0.094,-0.107,0.031
2918.0,-9.446,-1.031,2.557,0.045,-0.123,0.041
2922.0,-9.446,-1.031,2.557,0.045,-0.123,0.041
2926.0,-9.33,-1.032,2.503,-0.008,-0.139,0.042
2930.0,-9.33,-1.032,2.503,-0.008,-0.139,0.042
2934.0,-9.33,-1.032,2.414,-0.008,-0.139,0.042
2938.0,-9.207,-1.056,2.414,-0.061,-0.141,0.035
2942.0,-9.207,-1.056,2.414,-0.061,-0.141,0.035
2946.0,-9.173,-1.047,2.369,-0.115,-0.135,0.034
2950.0,-9.173,-1.047,2.369,-0.115,-0.135,0.034
2953.0,-9.173,-1.07,2.356,-0.115,-0.135,0.034
2957.0,-9.342,-1.07,2.356,-0.165,-0.12,0.037
2961.0,-9.342,-1.07,2.356,-0.165,-0.12,0.037
2965.0,-9.354,-1.141,2.339,-0.215,-0.106,0.046
2969.0,-9.354,-1.141,2.339,-0.215,-0.106,0.046
2973.0,-9.243,-1.195,2.351,-0.215,-0.106,0.046
2977.0,-9.243,-1.195,2.351,-0.269,-0.106,0.057
2981.0,-9.243,-1.195,2.351,-0.269,-0.106,0.057
2985.0,-9.256,-1.303,2.33,-0.321,-0.114,0.066
2989.0,-9.256,-1.303,2.33,-0.321,-0.114,0.066
2993.0,-9.176,-1.397,2.31,-0.321,-0.114,0.065
2997.0,-9.176,-1.397,2.31,-0.369,-0.114,0.065
