deltaTime,Acc_X,Acc_Y,Acc_Z,Gyro_X,Gyro_Y,Gyro_Z
0.0,-10.11,-2.949,1.108,-0.252,-0.044,0.167
3.0,-10.11,-2.949,1.108,-0.252,-0.044,0.167
6.0,-10.11,-2.949,1.108,-0.252,-0.044,0.167
9.0,-10.997,-2.932,0.907,-0.24,-0.043,0.172
12.0,-10.997,-2.932,0.907,-0.24,-0.043,0.172
15.0,-10.997,-2.932,0.907,-0.24,-0.043,0.172
18.0,-11.849,-3.124,0.948,-0.24,-0.043,0.197
21.0,-11.849,-3.124,0.948,-0.231,-0.056,0.197
24.0,-11.849,-3.124,0.948,-0.231,-0.056,0.197
27.0,-11.849,-3.124,0.948,-0.231,-0.056,0.197
31.0,-12.095,-3.476,0.882,-0.195,-0.109,0.243
34.0,-12.095,-3.476,0.882,-0.195,-0.109,0.243
38.0,-11.579,-3.482,1.056,-0.101,-0.177,0.288
42.0,-11.579,-3.482,1.056,-0.101,-0.177,0.288
46.0,-11.579,-3.482,1.056,-0.101,-0.177,0.288
50.0,-11.083,-3.029,0.967,0.002,-0.137,0.31
54.0,-11.083,-3.029,0.967,0.002,-0.137,0.31
58.0,-10.609,-2.716,1.371,0.002,-0.137,0.315
62.0,-10.609,-2.716,1.371,0.041,-0.109,0.315
65.0,-10.609,-2.716,1.371,0.041,-0.109,0.315
69.0,-10.281,-2.582,1.578,0.04,-0.068,0.316
73.0,-10.281,-2.582,1.578,0.04,-0.068,0.316
77.0,-10.281,-2.582,1.78,0.04,-0.068,0.316
81.0,-9.978,-2.261,1.78,0.025,-0.032,0.307
84.0,-9.978,-2.261,1.78,0.025,-0.032,0.307
88.0,-9.581,-2.047,2.049,-0.022,-0.013,0.282
92.0,-9.581,-2.047,2.049,-0.022,-0.013,0.282
96.0,-9.581,-2.047,2.049,-0.022,-0.013,0.282
100.0,-9.092,-1.906,2.047,-0.093,-0.027,0.252
103.0,-9.092,-1.906,2.047,-0.093,-0.027,0.252
107.0,-8.595,-1.662,1.97,-0.18,-0.058,0.231
111.0,-8.595,-1.662,1.97,-0.18,-0.058,0.231
115.0,-8.595,-1.662,1.97,-0.18,-0.058,0.231
119.0,-8.212,-1.559,1.849,-0.281,-0.089,0.225
123.0,-8.212,-1.559,1.849,-0.281,-0.089,0.225
127.0,-7.993,-1.619,1.83,-0.281,-0.089,0.227
131.0,-7.993,-1.619,1.83,-0.387,-0.106,0.227
135.0,-7.993,-1.619,1.83,-0.387,-0.106,0.227
139.0,-8.004,-1.792,1.741,-0.482,-0.12,0.236
143.0,-8.004,-1.792,1.741,-0.482,-0.12,0.236
146.0,-8.255,-2.264,1.519,-0.482,-0.12,0.236
150.0,-8.255,-2.264,1.519,-0.527,-0.142,0.254
154.0,-8.255,-2.264,1.519,-0.527,-0.142,0.254
158.0,-8.518,-2.754,1.133,-0.47,-0.16,0.28
162.0,-8.518,-2.754,1.133,-0.47,-0.16,0.28
166.0,-8.518,-2.734,0.889,-0.47,-0.16,0.28
170.0,-8.877,-2.734,0.889,-0.345,-0.153,0.3
174.0,-8.877,-2.734,0.889,-0.345,-0.153,0.3
178.0,-9.537,-2.664,0.727,-0.231,-0.129,0.313
182.0,-9.537,-2.664,0.727,-0.231,-0.129,0.313
185.0,-9.537,-2.664,0.627,-0.231,-0.129,0.313
189.0,-9.957,-2.582,0.627,-0.13,-0.118,0.341
193.0,-9.957,-2.582,0.627,-0.13,-0.118,0.341
197.0,-10.232,-2.699,1.038,-0.03,-0.098,0.386
201.0,-10.232,-2.699,1.038,-0.03,-0.098,0.386
205.0,-10.232,-2.699,1.317,-0.03,-0.098,0.386
209.0,-10.65,-3.106,1.317,0.11,-0.084,0.444
213.0,-10.65,-3.106,1.317,0.11,-0.084,0.444
217.0,-10.899,-3.0,1.308,0.294,-0.099,0.498
221.0,-10.899,-3.0,1.308,0.294,-0.099,0.498
225.0,-10.899,-3.0,1.308,0.294,-0.099,0.498
229.0,-10.496,-2.96,1.293,0.457,-0.106,0.526
233.0,-10.496,-2.96,1.293,0.457,-0.106,0.526
237.0,-10.588,-2.94,1.178,0.601,-0.069,0.539
240.0,-10.588,-2.94,1.178,0.601,-0.069,0.539
244.0,-10.588,-2.94,1.178,0.601,-0.069,0.539
248.0,-10.815,-2.884,1.26,0.728,-0.011,0.547
252.0,-10.815,-2.884,1.26,0.728,-0.011,0.547
256.0,-10.911,-2.762,1.548,0.836,0.052,0.543
260.0,-10.911,-2.762,1.548,0.836,0.052,0.543
264.0,-10.911,-2.762,1.548,0.836,0.052,0.543
268.0,-10.788,-2.429,1.738,0.925,0.083,0.524
271.0,-10.788,-2.429,1.738,0.925,0.083,0.524
275.0,-10.564,-1.988,1.71,0.959,0.078,0.477
279.0,-10.564,-1.988,1.71,0.959,0.078,0.477
283.0,-10.564,-1.988,1.71,0.959,0.078,0.477
287.0,-10.448,-1.7,1.637,0.93,0.039,0.415
290.0,-10.448,-1.7,1.637,0.93,0.039,0.415
294.0,-10.448,-1.564,1.61,0.93,0.039,0.415
298.0,-10.386,-1.564,1.61,0.872,-0.01,0.358
302.0,-10.386,-1.564,1.61,0.872,-0.01,0.358
306.0,-10.445,-1.515,1.479,0.819,-0.055,0.31
310.0,-10.445,-1.515,1.479,0.819,-0.055,0.31
314.0,-10.445,-1.515,1.432,0.819,-0.055,0.31
318.0,-10.828,-1.442,1.432,0.782,-0.12,0.269
322.0,-10.828,-1.442,1.432,0.782,-0.12,0.269
325.0,-10.776,-1.3,1.43,0.756,-0.217,0.234
329.0,-10.776,-1.3,1.43,0.756,-0.217,0.234
333.0,-10.776,-1.3,1.43,0.756,-0.217,0.234
337.0,-10.1,-1.199,1.169,0.721,-0.307,0.207
341.0,-10.1,-1.199,1.169,0.721,-0.307,0.207
345.0,-9.794,-1.089,1.018,0.677,-0.346,0.199
349.0,-9.794,-1.089,1.018,0.677,-0.346,0.199
353.0,-9.794,-1.089,1.018,0.677,-0.346,0.199
356.0,-9.891,-1.054,0.961,0.627,-0.343,0.215
360.0,-9.891,-1.054,0.961,0.627,-0.343,0.215
364.0,-10.189,-1.055,0.952,0.564,-0.328,0.251
368.0,-10.189,-1.055,0.952,0.564,-0.328,0.251
372.0,-10.189,-1.055,0.952,0.564,-0.328,0.251
376.0,-10.488,-1.086,1.097,0.488,-0.322,0.303
380.0,-10.488,-1.086,1.097,0.488,-0.322,0.303
384.0,-10.601,-1.144,1.212,0.488,-0.338,0.367
387.0,-10.601,-1.144,1.212,0.406,-0.338,0.367
391.0,-10.601,-1.144,1.212,0.406,-0.338,0.367
395.0,-10.579,-1.183,1.293,0.321,-0.368,0.437
399.0,-10.579,-1.183,1.293,0.321,-0.368,0.437
403.0,-10.39,-1.21,1.35,0.321,-0.368,0.51
407.0,-10.39,-1.21,1.35,0.233,-0.405,0.51
411.0,-10.39,-1.21,1.35,0.233,-0.405,0.51
415.0,-10.028,-1.201,1.331,0.142,-0.446,0.58
419.0,-10.028,-1.201,1.331,0.142,-0.446,0.58
423.0,-9.608,-1.181,1.305,0.142,-0.446,0.58
426.0,-9.608,-1.181,1.305,0.05,-0.485,0.646
430.0,-9.608,-1.181,1.305,0.05,-0.485,0.646
434.0,-9.217,-1.121,1.235,-0.044,-0.521,0.702
438.0,-9.217,-1.121,1.235,-0.044,-0.521,0.702
442.0,-9.217,-1.121,1.235,-0.044,-0.521,0.702
446.0,-8.94,-1.015,1.138,-0.143,-0.548,0.749
450.0,-8.94,-1.015,1.138,-0.143,-0.548,0.749
454.0,-8.764,-0.919,1.045,-0.25,-0.566,0.79
458.0,-8.764,-0.919,1.045,-0.25,-0.566,0.79
461.0,-8.764,-0.919,1.045,-0.25,-0.566,0.79
465.0,-8.658,-0.857,0.97,-0.361,-0.578,0.83
469.0,-8.658,-0.857,0.97,-0.361,-0.578,0.83
473.0,-8.533,-0.826,0.902,-0.474,-0.587,0.87
477.0,-8.533,-0.826,0.902,-0.474,-0.587,0.87
481.0,-8.533,-0.826,0.902,-0.474,-0.587,0.87
485.0,-8.431,-0.8,0.894,-0.586,-0.592,0.907
489.0,-8.431,-0.8,0.894,-0.586,-0.592,0.907
493.0,-8.451,-0.843,0.851,-0.697,-0.594,0.942
497.0,-8.451,-0.843,0.851,-0.697,-0.594,0.942
501.0,-8.451,-0.843,0.851,-0.697,-0.594,0.942
504.0,-8.664,-0.896,0.764,-0.805,-0.585,0.976
508.0,-8.664,-0.896,0.764,-0.805,-0.585,0.976
512.0,-9.156,-0.967,0.736,-0.912,-0.563,1.014
516.0,-9.156,-0.967,0.736,-0.912,-0.563,1.014
520.0,-9.156,-0.967,0.736,-0.912,-0.563,1.014
524.0,-9.754,-1.079,0.758,-1.017,-0.54,1.063
528.0,-9.754,-1.079,0.758,-1.017,-0.54,1.063
532.0,-10.397,-1.219,0.788,-1.017,-0.52,1.123
536.0,-10.397,-1.219,0.788,-1.117,-0.52,1.123
540.0,-10.397,-1.219,0.788,-1.117,-0.52,1.123
544.0,-11.036,-1.359,0.828,-1.206,-0.508,1.189
548.0,-11.036,-1.359,0.828,-1.206,-0.508,1.189
552.0,-11.585,-1.496,0.91,-1.282,-0.502,1.258
556.0,-11.585,-1.496,0.91,-1.282,-0.502,1.258
560.0,-11.585,-1.496,0.91,-1.282,-0.502,1.258
564.0,-11.754,-1.594,0.992,-1.346,-0.515,1.326
568.0,-11.754,-1.594,0.992,-1.346,-0.515,1.326
572.0,-11.547,-1.634,1.044,-1.401,-0.55,1.382
576.0,-11.547,-1.634,1.044,-1.401,-0.55,1.382
580.0,-11.547,-1.634,1.044,-1.401,-0.55,1.382
584.0,-11.017,-1.625,1.03,-1.445,-0.594,1.414
588.0,-11.017,-1.625,1.03,-1.445,-0.594,1.414
592.0,-10.44,-1.555,0.866,-1.483,-0.634,1.41
596.0,-10.44,-1.555,0.866,-1.483,-0.634,1.41
600.0,-10.44,-1.555,0.866,-1.483,-0.634,1.41
604.0,-9.992,-1.458,0.65,-1.522,-0.659,1.371
608.0,-9.992,-1.458,0.65,-1.522,-0.659,1.371
611.0,-9.681,-1.33,0.48,-1.563,-0.661,1.308
615.0,-9.681,-1.33,0.48,-1.563,-0.661,1.308
619.0,-9.681,-1.33,0.48,-1.563,-0.661,1.308
623.0,-9.383,-1.242,0.415,-1.607,-0.647,1.232
627.0,-9.383,-1.242,0.415,-1.607,-0.647,1.232
631.0,-9.248,-1.205,0.392,-1.647,-0.623,1.158
635.0,-9.248,-1.205,0.392,-1.647,-0.623,1.158
639.0,-9.248,-1.205,0.392,-1.647,-0.623,1.158
643.0,-9.334,-1.214,0.432,-1.68,-0.586,1.089
647.0,-9.334,-1.214,0.432,-1.68,-0.586,1.089
651.0,-9.678,-1.262,0.543,-1.7,-0.543,1.031
654.0,-9.678,-1.262,0.543,-1.7,-0.543,1.031
658.0,-9.678,-1.262,0.543,-1.7,-0.543,1.031
662.0,-10.187,-1.382,0.699,-1.702,-0.503,0.988
666.0,-10.187,-1.382,0.699,-1.702,-0.503,0.988
670.0,-10.5,-1.539,0.936,-1.683,-0.478,0.957
674.0,-10.5,-1.539,0.936,-1.683,-0.478,0.957
678.0,-10.5,-1.539,0.936,-1.683,-0.478,0.957
682.0,-10.315,-1.707,1.202,-1.643,-0.48,0.922
686.0,-10.315,-1.707,1.202,-1.643,-0.48,0.922
690.0,-9.703,-1.833,1.399,-1.578,-0.514,0.872
694.0,-9.703,-1.833,1.399,-1.578,-0.514,0.872
698.0,-9.703,-1.833,1.399,-1.578,-0.514,0.872
702.0,-9.121,-1.841,1.419,-1.486,-0.555,0.786
706.0,-9.121,-1.841,1.419,-1.486,-0.555,0.786
710.0,-8.813,-1.72,1.25,-1.368,-0.574,0.672
714.0,-8.813,-1.72,1.25,-1.368,-0.574,0.672
718.0,-8.813,-1.72,1.25,-1.368,-0.574,0.672
721.0,-8.745,-1.637,1.004,-1.246,-0.562,0.562
725.0,-8.745,-1.637,1.004,-1.246,-0.562,0.562
729.0,-8.941,-1.571,0.943,-1.136,-0.521,0.474
733.0,-8.941,-1.571,0.943,-1.136,-0.521,0.474
737.0,-8.941,-1.571,0.943,-1.136,-0.521,0.474
741.0,-9.275,-1.558,1.021,-1.006,-0.462,0.416
745.0,-9.275,-1.558,1.021,-1.006,-0.462,0.416
749.0,-9.632,-1.664,1.198,-1.006,-0.462,0.391
753.0,-9.632,-1.664,1.198,-0.861,-0.408,0.391
757.0,-9.632,-1.664,1.198,-0.861,-0.408,0.391
760.0,-9.979,-1.822,1.38,-0.705,-0.367,0.39
764.0,-9.979,-1.822,1.38,-0.705,-0.367,0.39
768.0,-10.274,-1.936,1.518,-0.705,-0.367,0.39
772.0,-10.274,-1.936,1.518,-0.535,-0.336,0.407
776.0,-10.274,-1.936,1.518,-0.535,-0.336,0.407
780.0,-10.372,-2.024,1.618,-0.358,-0.313,0.437
784.0,-10.372,-2.024,1.618,-0.358,-0.313,0.437
788.0,-10.363,-2.047,1.643,-0.358,-0.294,0.472
792.0,-10.363,-2.047,1.643,-0.184,-0.294,0.472
796.0,-10.363,-2.047,1.643,-0.184,-0.294,0.472
800.0,-10.299,-1.984,1.653,-0.026,-0.268,0.512
804.0,-10.299,-1.984,1.653,-0.026,-0.268,0.512
808.0,-10.201,-1.886,1.643,0.107,-0.233,0.563
812.0,-10.201,-1.886,1.643,0.107,-0.233,0.563
816.0,-10.201,-1.886,1.643,0.107,-0.233,0.563
820.0,-9.848,-1.784,1.733,0.212,-0.196,0.622
824.0,-9.848,-1.784,1.733,0.212,-0.196,0.622
828.0,-9.291,-1.705,1.85,0.212,-0.196,0.681
831.0,-9.291,-1.705,1.85,0.294,-0.172,0.681
835.0,-9.291,-1.705,1.85,0.294,-0.172,0.681
839.0,-8.723,-1.599,1.899,0.363,-0.162,0.721
843.0,-8.723,-1.599,1.899,0.363,-0.162,0.721
847.0,-8.723,-1.599,1.899,0.363,-0.162,0.721
851.0,-8.311,-1.458,1.849,0.427,-0.158,0.739
854.0,-8.311,-1.458,1.849,0.427,-0.158,0.739
858.0,-8.142,-1.3,1.692,0.48,-0.152,0.748
862.0,-8.142,-1.3,1.692,0.48,-0.152,0.748
866.0,-8.142,-1.3,1.692,0.48,-0.152,0.748
870.0,-8.261,-1.15,1.496,0.512,-0.128,0.771
873.0,-8.261,-1.15,1.496,0.512,-0.128,0.771
877.0,-8.543,-1.023,1.389,0.512,-0.081,0.812
881.0,-8.543,-1.023,1.389,0.516,-0.081,0.812
885.0,-8.543,-1.023,1.389,0.516,-0.081,0.812
889.0,-8.88,-0.961,1.441,0.496,-0.019,0.87
893.0,-8.88,-0.961,1.441,0.496,-0.019,0.87
896.0,-8.88,-0.97,1.578,0.496,-0.019,0.87
900.0,-9.324,-0.97,1.578,0.462,0.043,0.935
904.0,-9.324,-0.97,1.578,0.462,0.043,0.935
908.0,-9.826,-0.997,1.679,0.415,0.099,1.006
911.0,-9.826,-0.997,1.679,0.415,0.099,1.006
915.0,-9.826,-0.997,1.679,0.415,0.099,1.006
919.0,-10.329,-1.03,1.777,0.352,0.15,1.085
923.0,-10.329,-1.03,1.777,0.352,0.15,1.085
926.0,-10.633,-1.091,1.908,0.352,0.197,1.172
930.0,-10.633,-1.091,1.908,0.279,0.197,1.172
934.0,-10.633,-1.091,1.908,0.279,0.197,1.172
938.0,-10.445,-1.174,2.19,0.199,0.231,1.258
942.0,-10.445,-1.174,2.19,0.199,0.231,1.258
946.0,-10.445,-1.174,2.481,0.199,0.231,1.258
949.0,-9.892,-1.21,2.481,0.125,0.24,1.321
953.0,-9.892,-1.21,2.481,0.125,0.24,1.321
957.0,-9.424,-1.187,2.524,0.066,0.238,1.349
961.0,-9.424,-1.187,2.524,0.066,0.238,1.349
964.0,-9.424,-1.187,2.524,0.066,0.238,1.349
968.0,-9.172,-1.146,2.431,0.021,0.242,1.356
972.0,-9.172,-1.146,2.431,0.021,0.242,1.356
976.0,-9.163,-1.116,2.336,0.021,0.242,1.356
979.0,-9.163,-1.116,2.336,-0.017,0.256,1.36
983.0,-9.163,-1.116,2.336,-0.017,0.256,1.36
987.0,-9.284,-1.177,2.305,-0.049,0.278,1.38
991.0,-9.284,-1.177,2.305,-0.049,0.278,1.38
995.0,-9.284,-1.177,2.305,-0.049,0.278,1.38
998.0,-9.38,-1.309,2.465,-0.069,0.297,1.412
1002.0,-9.38,-1.309,2.465,-0.069,0.297,1.412
1006.0,-9.371,-1.412,2.708,-0.069,0.293,1.434
1010.0,-9.371,-1.412,2.708,-0.069,0.293,1.434
1014.0,-9.371,-1.412,2.708,-0.069,0.293,1.434
1018.0,-9.348,-1.496,2.827,-0.051,0.254,1.435
1022.0,-9.348,-1.496,2.827,-0.051,0.254,1.435
1026.0,-9.397,-1.524,2.822,-0.021,0.199,1.419
1029.0,-9.397,-1.524,2.822,-0.021,0.199,1.419
1033.0,-9.397,-1.524,2.822,-0.021,0.199,1.419
1037.0,-9.507,-1.504,2.754,0.006,0.148,1.395
1041.0,-9.507,-1.504,2.754,0.006,0.148,1.395
1045.0,-9.683,-1.475,2.681,0.006,0.111,1.373
1049.0,-9.683,-1.475,2.681,0.023,0.111,1.373
1053.0,-9.683,-1.475,2.681,0.023,0.111,1.373
1056.0,-9.953,-1.446,2.823,0.028,0.087,1.353
1060.0,-9.953,-1.446,2.823,0.028,0.087,1.353
1064.0,-9.953,-1.446,3.098,0.028,0.087,1.353
1068.0,-10.288,-1.357,3.098,0.027,0.047,1.325
1072.0,-10.288,-1.357,3.098,0.027,0.047,1.325
1076.0,-10.467,-1.272,3.116,0.017,-0.024,1.286
1080.0,-10.467,-1.272,3.116,0.017,-0.024,1.286
1084.0,-10.467,-1.272,2.978,0.017,-0.024,1.286
1088.0,-10.411,-1.162,2.978,-0.013,-0.099,1.229
1092.0,-10.411,-1.162,2.978,-0.013,-0.099,1.229
1096.0,-10.313,-1.05,2.77,-0.071,-0.154,1.16
1100.0,-10.313,-1.05,2.77,-0.071,-0.154,1.16
1104.0,-10.177,-0.936,2.658,-0.071,-0.154,1.089
1108.0,-10.177,-0.936,2.658,-0.16,-0.162,1.089
1112.0,-10.177,-0.936,2.658,-0.16,-0.162,1.089
1116.0,-10.229,-1.012,2.725,-0.271,-0.123,1.017
1120.0,-10.229,-1.012,2.725,-0.271,-0.123,1.017
1124.0,-9.952,-1.114,2.855,-0.375,-0.153,0.949
1128.0,-9.952,-1.114,2.855,-0.375,-0.153,0.949
1132.0,-9.952,-1.114,2.855,-0.375,-0.153,0.949
1136.0,-9.316,-1.197,2.948,-0.46,-0.199,0.845
1140.0,-9.316,-1.197,2.948,-0.46,-0.199,0.845
1144.0,-8.719,-1.22,2.886,-0.524,-0.249,0.716
1148.0,-8.719,-1.22,2.886,-0.524,-0.249,0.716
1152.0,-8.719,-1.22,2.886,-0.524,-0.249,0.716
1156.0,-8.44,-1.25,2.669,-0.579,-0.292,0.592
1160.0,-8.44,-1.25,2.669,-0.579,-0.292,0.592
1164.0,-8.62,-1.284,2.432,-0.635,-0.305,0.491
1168.0,-8.62,-1.284,2.432,-0.635,-0.305,0.491
1172.0,-8.62,-1.284,2.432,-0.635,-0.305,0.491
1176.0,-9.009,-1.393,2.337,-0.691,-0.295,0.419
1180.0,-9.009,-1.393,2.337,-0.691,-0.295,0.419
1184.0,-9.391,-1.599,2.369,-0.745,-0.292,0.372
1188.0,-9.391,-1.599,2.369,-0.745,-0.292,0.372
1192.0,-9.391,-1.599,2.328,-0.745,-0.292,0.372
1196.0,-9.61,-1.866,2.328,-0.793,-0.322,0.329
1200.0,-9.61,-1.866,2.328,-0.793,-0.322,0.329
1204.0,-9.675,-2.09,2.211,-0.832,-0.372,0.263
1208.0,-9.675,-2.09,2.211,-0.832,-0.372,0.263
1212.0,-9.675,-2.215,2.045,-0.832,-0.372,0.263
1216.0,-9.748,-2.215,2.045,-0.858,-0.416,0.154
1220.0,-9.748,-2.215,2.045,-0.858,-0.416,0.154
1224.0,-9.917,-2.229,2.058,-0.868,-0.441,0.004
1228.0,-9.917,-2.229,2.058,-0.868,-0.441,0.004
1232.0,-9.844,-2.28,1.896,-0.868,-0.441,0.004
1236.0,-9.844,-2.28,1.896,-0.857,-0.465,-0.167
1240.0,-9.844,-2.28,1.896,-0.857,-0.465,-0.167
1244.0,-9.742,-2.225,1.75,-0.826,-0.479,-0.355
1248.0,-9.742,-2.225,1.75,-0.826,-0.479,-0.355
1253.0,-10.002,-2.186,1.636,-0.781,-0.466,-0.547
1257.0,-10.002,-2.186,1.636,-0.781,-0.466,-0.547
1261.0,-10.002,-2.186,1.636,-0.781,-0.466,-0.547
1265.0,-10.533,-2.179,1.595,-0.722,-0.433,-0.728
1269.0,-10.533,-2.179,1.595,-0.722,-0.433,-0.728
1273.0,-10.9,-2.207,1.692,-0.64,-0.401,-0.896
1278.0,-10.9,-2.207,1.692,-0.64,-0.401,-0.896
1282.0,-11.034,-2.238,1.766,-0.64,-0.401,-1.061
1286.0,-11.034,-2.238,1.766,-0.532,-0.387,-1.061
1290.0,-11.034,-2.238,1.766,-0.532,-0.387,-1.061
1294.0,-11.14,-2.222,1.714,-0.401,-0.381,-1.233
1298.0,-11.14,-2.222,1.714,-0.401,-0.381,-1.233
1303.0,-11.317,-2.185,1.635,-0.257,-0.365,-1.411
1307.0,-11.317,-2.185,1.635,-0.257,-0.365,-1.411
1311.0,-11.317,-2.185,1.691,-0.257,-0.365,-1.411
1315.0,-11.572,-2.104,1.691,-0.108,-0.331,-1.584
1319.0,-11.572,-2.104,1.691,-0.108,-0.331,-1.584
1323.0,-11.734,-2.043,1.785,0.043,-0.294,-1.744
1327.0,-11.734,-2.043,1.785,0.043,-0.294,-1.744
1331.0,-11.653,-1.98,2.037,0.2,-0.276,-1.893
1336.0,-11.653,-1.98,2.037,0.2,-0.276,-1.893
1340.0,-11.653,-1.98,2.037,0.2,-0.276,-1.893
1344.0,-11.489,-1.872,2.256,0.363,-0.292,-2.036
1348.0,-11.489,-1.872,2.256,0.363,-0.292,-2.036
1352.0,-11.567,-1.75,2.245,0.528,-0.329,-2.174
1356.0,-11.567,-1.75,2.245,0.528,-0.329,-2.174
1360.0,-11.567,-1.75,2.094,0.528,-0.329,-2.174
1364.0,-11.824,-1.608,2.094,0.687,-0.363,-2.296
1368.0,-11.824,-1.608,2.094,0.687,-0.363,-2.296
1372.0,-12.016,-1.433,1.901,0.832,-0.386,-2.387
1376.0,-12.016,-1.433,1.901,0.832,-0.386,-2.387
1380.0,-12.008,-1.261,1.795,0.832,-0.386,-2.439
1385.0,-12.008,-1.261,1.795,0.96,-0.4,-2.439
1389.0,-12.008,-1.261,1.795,0.96,-0.4,-2.439
1393.0,-11.779,-1.076,1.696,1.077,-0.413,-2.455
1397.0,-11.779,-1.076,1.696,1.077,-0.413,-2.455
1401.0,-11.469,-0.88,1.563,1.182,-0.417,-2.445
1405.0,-11.469,-0.88,1.563,1.182,-0.417,-2.445
1409.0,-11.469,-0.88,1.563,1.182,-0.417,-2.445
1413.0,-11.075,-0.687,1.466,1.271,-0.413,-2.413
1417.0,-11.075,-0.687,1.466,1.271,-0.413,-2.413
1421.0,-10.619,-0.531,1.43,1.338,-0.4,-2.363
1425.0,-10.619,-0.531,1.43,1.338,-0.4,-2.363
1429.0,-10.619,-0.452,1.368,1.338,-0.4,-2.363
1433.0,-10.268,-0.452,1.368,1.385,-0.372,-2.306
1438.0,-10.268,-0.452,1.368,1.385,-0.372,-2.306
1442.0,-10.049,-0.4,1.335,1.409,-0.324,-2.246
1446.0,-10.049,-0.4,1.335,1.409,-0.324,-2.246
1450.0,-9.892,-0.415,1.362,1.411,-0.263,-2.186
1454.0,-9.892,-0.415,1.362,1.411,-0.263,-2.186
1458.0,-9.892,-0.415,1.362,1.411,-0.263,-2.186
1462.0,-9.872,-0.455,1.371,1.393,-0.197,-2.131
1466.0,-9.872,-0.455,1.371,1.393,-0.197,-2.131
1470.0,-9.922,-0.465,1.415,1.356,-0.127,-2.086
1474.0,-9.922,-0.465,1.415,1.356,-0.127,-2.086
1478.0,-9.922,-0.465,1.415,1.356,-0.127,-2.086
1482.0,-9.907,-0.441,1.539,1.308,-0.07,-2.046
1486.0,-9.907,-0.441,1.539,1.308,-0.07,-2.046
1490.0,-9.948,-0.41,1.509,1.247,-0.03,-2.009
1494.0,-9.948,-0.41,1.509,1.247,-0.03,-2.009
1498.0,-9.948,-0.41,1.509,1.247,-0.03,-2.009
1502.0,-10.086,-0.355,1.427,1.175,0.01,-1.968
1506.0,-10.086,-0.355,1.427,1.175,0.01,-1.968
1510.0,-10.129,-0.304,1.376,1.092,0.059,-1.914
1514.0,-10.129,-0.304,1.376,1.092,0.059,-1.914
1518.0,-10.129,-0.304,1.376,1.092,0.059,-1.914
1522.0,-9.922,-0.266,1.369,1.005,0.111,-1.842
1526.0,-9.922,-0.266,1.369,1.005,0.111,-1.842
1529.0,-9.462,-0.284,1.33,0.917,0.156,-1.754
1533.0,-9.462,-0.284,1.33,0.917,0.156,-1.754
1537.0,-9.462,-0.284,1.33,0.917,0.156,-1.754
1541.0,-9.138,-0.338,1.258,0.826,0.198,-1.663
1545.0,-9.138,-0.338,1.258,0.826,0.198,-1.663
1549.0,-9.154,-0.398,1.128,0.736,0.251,-1.583
1553.0,-9.154,-0.398,1.128,0.736,0.251,-1.583
1557.0,-9.154,-0.398,1.128,0.736,0.251,-1.583
1561.0,-9.3,-0.463,1.011,0.648,0.311,-1.508
1565.0,-9.3,-0.463,1.011,0.648,0.311,-1.508
1569.0,-9.35,-0.559,0.952,0.56,0.361,-1.434
1572.0,-9.35,-0.559,0.952,0.56,0.361,-1.434
1576.0,-9.35,-0.559,0.952,0.56,0.361,-1.434
1580.0,-9.393,-0.637,0.885,0.477,0.4,-1.359
1584.0,-9.393,-0.637,0.885,0.477,0.4,-1.359
1588.0,-9.464,-0.701,0.822,0.4,0.435,-1.288
1592.0,-9.464,-0.701,0.822,0.4,0.435,-1.288
1596.0,-9.464,-0.701,0.822,0.4,0.435,-1.288
1600.0,-9.404,-0.748,0.846,0.331,0.468,-1.216
1604.0,-9.404,-0.748,0.846,0.331,0.468,-1.216
1608.0,-9.277,-0.786,0.841,0.331,0.493,-1.145
1612.0,-9.277,-0.786,0.841,0.275,0.493,-1.145
1615.0,-9.277,-0.786,0.841,0.275,0.493,-1.145
1619.0,-9.218,-0.808,0.811,0.226,0.517,-1.068
1623.0,-9.218,-0.808,0.811,0.226,0.517,-1.068
1627.0,-9.13,-0.856,0.798,0.226,0.517,-0.987
1631.0,-9.13,-0.856,0.798,0.183,0.548,-0.987
1635.0,-9.13,-0.856,0.798,0.183,0.548,-0.987
1639.0,-8.971,-0.889,0.774,0.142,0.584,-0.899
1643.0,-8.971,-0.889,0.774,0.142,0.584,-0.899
1647.0,-8.778,-0.922,0.73,0.142,0.584,-0.899
1651.0,-8.778,-0.922,0.73,0.1,0.625,-0.798
1654.0,-8.778,-0.922,0.73,0.1,0.625,-0.798
1658.0,-8.531,-0.969,0.765,0.051,0.678,-0.686
1662.0,-8.531,-0.969,0.765,0.051,0.678,-0.686
1666.0,-8.531,-1.084,0.881,0.051,0.678,-0.686
1670.0,-8.465,-1.084,0.881,-0.004,0.745,-0.568
1674.0,-8.465,-1.084,0.881,-0.004,0.745,-0.568
1678.0,-8.709,-1.231,1.065,-0.057,0.826,-0.457
1682.0,-8.709,-1.231,1.065,-0.057,0.826,-0.457
1686.0,-9.098,-1.447,1.278,-0.057,0.826,-0.457
1690.0,-9.098,-1.447,1.278,-0.096,0.907,-0.364
1694.0,-9.098,-1.447,1.278,-0.096,0.907,-0.364
1698.0,-9.309,-1.627,1.586,-0.12,0.961,-0.295
1702.0,-9.309,-1.627,1.586,-0.12,0.961,-0.295
1706.0,-9.327,-1.799,1.817,-0.12,0.961,-0.248
1710.0,-9.327,-1.799,1.817,-0.117,0.979,-0.248
1714.0,-9.327,-1.799,1.817,-0.117,0.979,-0.248
1718.0,-9.304,-1.913,1.908,-0.09,0.978,-0.227
1722.0,-9.304,-1.913,1.908,-0.09,0.978,-0.227
1726.0,-9.091,-1.97,1.931,-0.09,0.966,-0.226
1730.0,-9.091,-1.97,1.931,-0.043,0.966,-0.226
1734.0,-9.091,-1.97,1.931,-0.043,0.966,-0.226
1738.0,-9.017,-2.017,1.845,0.016,0.949,-0.23
1742.0,-9.017,-2.017,1.845,0.016,0.949,-0.23
1746.0,-8.996,-2.034,1.722,0.016,0.941,-0.235
1750.0,-8.996,-2.034,1.722,0.077,0.941,-0.235
1754.0,-8.996,-2.034,1.722,0.077,0.941,-0.235
1758.0,-8.906,-2.058,1.723,0.136,0.941,-0.231
1761.0,-8.906,-2.058,1.723,0.136,0.941,-0.231
1765.0,-8.752,-2.094,1.799,0.136,0.941,-0.22
1769.0,-8.752,-2.094,1.799,0.189,0.939,-0.22
1773.0,-8.752,-2.094,1.799,0.189,0.939,-0.22
1777.0,-8.675,-2.129,1.871,0.237,0.943,-0.207
1781.0,-8.675,-2.129,1.871,0.237,0.943,-0.207
1785.0,-8.705,-2.158,1.932,0.237,0.943,-0.207
1789.0,-8.705,-2.158,1.932,0.276,0.949,-0.196
1793.0,-8.705,-2.158,1.932,0.276,0.949,-0.196
1797.0,-8.939,-2.189,1.986,0.302,0.957,-0.185
1800.0,-8.939,-2.189,1.986,0.302,0.957,-0.185
1804.0,-8.939,-2.241,2.069,0.302,0.957,-0.185
1808.0,-9.294,-2.241,2.069,0.309,0.961,-0.174
1812.0,-9.294,-2.241,2.069,0.309,0.961,-0.174
1816.0,-9.623,-2.32,2.177,0.298,0.96,-0.162
1820.0,-9.623,-2.32,2.177,0.298,0.96,-0.162
1824.0,-9.623,-2.32,2.341,0.298,0.96,-0.162
1828.0,-9.951,-2.361,2.341,0.267,0.947,-0.154
1832.0,-9.951,-2.361,2.341,0.267,0.947,-0.154
1836.0,-10.093,-2.444,2.544,0.229,0.92,-0.144
1840.0,-10.093,-2.444,2.544,0.229,0.92,-0.144
1844.0,-10.093,-2.444,2.544,0.229,0.92,-0.144
1848.0,-9.971,-2.463,2.713,0.192,0.869,-0.144
1852.0,-9.971,-2.463,2.713,0.192,0.869,-0.144
1855.0,-9.711,-2.444,2.785,0.153,0.801,-0.17
1859.0,-9.711,-2.444,2.785,0.153,0.801,-0.17
1863.0,-9.711,-2.444,2.785,0.153,0.801,-0.17
1867.0,-9.382,-2.343,2.721,0.114,0.725,-0.22
1871.0,-9.382,-2.343,2.721,0.114,0.725,-0.22
1875.0,-9.012,-2.198,2.518,0.074,0.661,-0.284
1879.0,-9.012,-2.198,2.518,0.074,0.661,-0.284
1883.0,-9.012,-2.198,2.518,0.074,0.661,-0.284
1887.0,-8.849,-2.037,2.328,0.023,0.63,-0.354
1891.0,-8.849,-2.037,2.328,0.023,0.63,-0.354
1895.0,-8.935,-1.963,2.245,-0.041,0.634,-0.417
1899.0,-8.935,-1.963,2.245,-0.041,0.634,-0.417
1902.0,-8.935,-1.963,2.245,-0.041,0.634,-0.417
1906.0,-9.175,-2.008,2.388,-0.113,0.656,-0.467
1910.0,-9.175,-2.008,2.388,-0.113,0.656,-0.467
1914.0,-9.295,-2.143,2.613,-0.176,0.67,-0.505
1918.0,-9.295,-2.143,2.613,-0.176,0.67,-0.505
1922.0,-9.295,-2.143,2.613,-0.176,0.67,-0.505
1926.0,-9.352,-2.3,2.794,-0.222,0.665,-0.543
1930.0,-9.352,-2.3,2.794,-0.222,0.665,-0.543
1934.0,-9.584,-2.404,2.878,-0.251,0.647,-0.587
1938.0,-9.584,-2.404,2.878,-0.251,0.647,-0.587
1942.0,-9.584,-2.404,2.735,-0.251,0.647,-0.587
1946.0,-10.103,-2.533,2.735,-0.276,0.639,-0.626
1950.0,-10.103,-2.533,2.735,-0.276,0.639,-0.626
1955.0,-10.823,-2.651,2.578,-0.31,0.66,-0.646
1959.0,-10.823,-2.651,2.578,-0.31,0.66,-0.646
1963.0,-11.572,-2.788,2.554,-0.31,0.66,-0.64
1967.0,-11.572,-2.788,2.554,-0.357,0.712,-0.64
1971.0,-11.572,-2.788,2.554,-0.357,0.712,-0.64
1975.0,-12.109,-2.957,2.681,-0.406,0.768,-0.611
1979.0,-12.109,-2.957,2.681,-0.406,0.768,-0.611
1983.0,-12.276,-3.159,2.915,-0.441,0.802,-0.575
1987.0,-12.276,-3.159,2.915,-0.441,0.802,-0.575
1991.0,-12.276,-3.159,2.915,-0.441,0.802,-0.575
1995.0,-12.093,-3.351,3.141,-0.446,0.804,-0.555
1999.0,-12.093,-3.351,3.141,-0.446,0.804,-0.555
2004.0,-11.725,-3.535,3.297,-0.409,0.778,-0.567
2008.0,-11.725,-3.535,3.297,-0.409,0.778,-0.567
2012.0,-11.725,-3.692,3.37,-0.409,0.778,-0.567
2016.0,-11.466,-3.692,3.37,-0.33,0.74,-0.614
2020.0,-11.466,-3.692,3.37,-0.33,0.74,-0.614
2024.0,-11.212,-3.77,3.29,-0.213,0.698,-0.691
2028.0,-11.212,-3.77,3.29,-0.213,0.698,-0.691
2032.0,-10.81,-3.742,3.081,-0.213,0.645,-0.782
2036.0,-10.81,-3.742,3.081,-0.067,0.645,-0.782
2040.0,-10.81,-3.742,3.081,-0.067,0.645,-0.782
2044.0,-10.266,-3.641,2.816,0.097,0.591,-0.881
2048.0,-10.266,-3.641,2.816,0.097,0.591,-0.881
2052.0,-9.718,-3.546,2.592,0.274,0.552,-0.985
2056.0,-9.718,-3.546,2.592,0.274,0.552,-0.985
2060.0,-9.718,-3.546,2.592,0.274,0.552,-0.985
2064.0,-9.37,-3.502,2.516,0.461,0.538,-1.083
2068.0,-9.37,-3.502,2.516,0.461,0.538,-1.083
2072.0,-9.336,-3.493,2.526,0.652,0.545,-1.163
2076.0,-9.336,-3.493,2.526,0.652,0.545,-1.163
2080.0,-9.336,-3.493,2.526,0.652,0.545,-1.163
2084.0,-9.62,-3.538,2.663,0.835,0.561,-1.213
2087.0,-9.62,-3.538,2.663,0.835,0.561,-1.213
2091.0,-10.05,-3.61,2.827,1.01,0.565,-1.232
2095.0,-10.05,-3.61,2.827,1.01,0.565,-1.232
2099.0,-10.05,-3.61,2.827,1.01,0.565,-1.232
2103.0,-10.495,-3.703,3.032,1.17,0.549,-1.224
2107.0,-10.495,-3.703,3.032,1.17,0.549,-1.224
2111.0,-10.899,-3.764,3.19,1.318,0.516,-1.196
2115.0,-10.899,-3.764,3.19,1.318,0.516,-1.196
2119.0,-10.899,-3.764,3.19,1.318,0.516,-1.196
2123.0,-11.204,-3.76,3.333,1.451,0.462,-1.152
2127.0,-11.204,-3.76,3.333,1.451,0.462,-1.152
2131.0,-11.393,-3.682,3.388,1.567,0.387,-1.095
2135.0,-11.393,-3.682,3.388,1.567,0.387,-1.095
2139.0,-11.393,-3.682,3.388,1.567,0.387,-1.095
2143.0,-11.486,-3.532,3.325,1.657,0.299,-1.032
2147.0,-11.486,-3.532,3.325,1.657,0.299,-1.032
2151.0,-11.428,-3.313,3.163,1.713,0.204,-0.967
2155.0,-11.428,-3.313,3.163,1.713,0.204,-0.967
2159.0,-11.428,-3.313,3.163,1.713,0.204,-0.967
2163.0,-11.23,-3.063,2.953,1.734,0.108,-0.905
2167.0,-11.23,-3.063,2.953,1.734,0.108,-0.905
2171.0,-10.965,-2.802,2.691,1.724,0.015,-0.849
2175.0,-10.965,-2.802,2.691,1.724,0.015,-0.849
2179.0,-10.965,-2.802,2.691,1.724,0.015,-0.849
2183.0,-10.794,-2.538,2.387,1.689,-0.063,-0.794
2187.0,-10.794,-2.538,2.387,1.689,-0.063,-0.794
2191.0,-10.76,-2.297,2.142,1.632,-0.121,-0.732
2195.0,-10.76,-2.297,2.142,1.632,-0.121,-0.732
2200.0,-10.764,-2.151,1.984,1.632,-0.121,-0.732
2204.0,-10.764,-2.151,1.984,1.558,-0.165,-0.662
2208.0,-10.764,-2.151,1.984,1.558,-0.165,-0.662
2212.0,-10.717,-2.052,1.884,1.473,-0.207,-0.585
2216.0,-10.717,-2.052,1.884,1.473,-0.207,-0.585
2220.0,-10.678,-1.981,1.832,1.383,-0.252,-0.512
2224.0,-10.678,-1.981,1.832,1.383,-0.252,-0.512
2228.0,-10.678,-1.981,1.832,1.383,-0.252,-0.512
2232.0,-10.69,-1.911,1.828,1.293,-0.299,-0.448
2236.0,-10.69,-1.911,1.828,1.293,-0.299,-0.448
2240.0,-10.737,-1.838,1.779,1.206,-0.349,-0.393
2244.0,-10.737,-1.838,1.779,1.206,-0.349,-0.393
2248.0,-10.737,-1.838,1.704,1.206,-0.349,-0.393
2253.0,-10.906,-1.768,1.704,1.114,-0.397,-0.346
2257.0,-10.906,-1.768,1.704,1.114,-0.397,-0.346
2261.0,-11.125,-1.682,1.67,1.015,-0.434,-0.302
2265.0,-11.125,-1.682,1.67,1.015,-0.434,-0.302
2269.0,-11.381,-1.61,1.702,1.015,-0.465,-0.253
2273.0,-11.381,-1.61,1.702,0.908,-0.465,-0.253
2277.0,-11.381,-1.61,1.702,0.908,-0.465,-0.253
2281.0,-11.341,-1.541,1.759,0.794,-0.505,-0.202
2285.0,-11.341,-1.541,1.759,0.794,-0.505,-0.202
2289.0,-11.049,-1.462,1.781,0.674,-0.559,-0.158
2293.0,-11.049,-1.462,1.781,0.674,-0.559,-0.158
2297.0,-11.049,-1.462,1.781,0.674,-0.559,-0.158
2302.0,-10.7,-1.35,1.632,0.553,-0.617,-0.133
2306.0,-10.7,-1.35,1.632,0.553,-0.617,-0.133
2310.0,-10.618,-1.239,1.406,0.427,-0.652,-0.124
2314.0,-10.618,-1.239,1.406,0.427,-0.652,-0.124
2318.0,-10.797,-1.181,1.212,0.427,-0.652,-0.124
2322.0,-10.797,-1.181,1.212,0.293,-0.654,-0.115
2326.0,-10.797,-1.181,1.212,0.293,-0.654,-0.115
2330.0,-11.151,-1.198,1.201,0.154,-0.633,-0.087
2334.0,-11.151,-1.198,1.201,0.154,-0.633,-0.087
2338.0,-11.374,-1.265,1.267,0.021,-0.612,-0.037
2342.0,-11.374,-1.265,1.267,0.021,-0.612,-0.037
2346.0,-11.374,-1.265,1.267,0.021,-0.612,-0.037
2350.0,-11.417,-1.405,1.393,-0.098,-0.606,0.024
2355.0,-11.417,-1.405,1.393,-0.098,-0.606,0.024
2359.0,-11.311,-1.509,1.437,-0.193,-0.621,0.084
2363.0,-11.311,-1.509,1.437,-0.193,-0.621,0.084
2367.0,-11.311,-1.509,1.405,-0.193,-0.621,0.084
2371.0,-11.241,-1.561,1.405,-0.269,-0.644,0.133
2375.0,-11.241,-1.561,1.405,-0.269,-0.644,0.133
2379.0,-11.076,-1.551,1.275,-0.33,-0.669,0.171
2383.0,-11.076,-1.551,1.275,-0.33,-0.669,0.171
2387.0,-10.983,-1.455,1.132,-0.33,-0.669,0.207
2391.0,-10.983,-1.455,1.132,-0.39,-0.68,0.207
2395.0,-10.983,-1.455,1.132,-0.39,-0.68,0.207
2399.0,-10.919,-1.327,1.018,-0.458,-0.67,0.244
2404.0,-10.919,-1.327,1.018,-0.458,-0.67,0.244
2408.0,-10.971,-1.241,1.019,-0.541,-0.642,0.284
2412.0,-10.971,-1.241,1.019,-0.541,-0.642,0.284
2416.0,-10.971,-1.241,1.019,-0.541,-0.642,0.284
2420.0,-10.875,-1.208,1.135,-0.626,-0.612,0.33
2424.0,-10.875,-1.208,1.135,-0.626,-0.612,0.33
2428.0,-10.566,-1.199,1.332,-0.707,-0.591,0.375
2432.0,-10.566,-1.199,1.332,-0.707,-0.591,0.375
2436.0,-10.566,-1.164,1.464,-0.707,-0.591,0.375
2440.0,-10.05,-1.164,1.464,-0.78,-0.592,0.404
2444.0,-10.05,-1.164,1.464,-0.78,-0.592,0.404
2448.0,-9.512,-1.099,1.506,-0.846,-0.598,0.413
2452.0,-9.512,-1.099,1.506,-0.846,-0.598,0.413
2456.0,-8.956,-1.026,1.482,-0.846,-0.598,0.409
2460.0,-8.956,-1.026,1.482,-0.901,-0.593,0.409
2464.0,-8.956,-1.026,1.482,-0.901,-0.593,0.409
2468.0,-8.441,-0.945,1.49,-0.949,-0.567,0.391
2472.0,-8.441,-0.945,1.49,-0.949,-0.567,0.391
2476.0,-8.026,-0.879,1.542,-0.995,-0.519,0.363
2480.0,-8.026,-0.879,1.542,-0.995,-0.519,0.363
2484.0,-8.026,-0.879,1.542,-0.995,-0.519,0.363
2488.0,-7.908,-0.898,1.626,-1.033,-0.447,0.338
2492.0,-7.908,-0.898,1.626,-1.033,-0.447,0.338
2496.0,-8.127,-0.992,1.735,-1.055,-0.359,0.331
2500.0,-8.127,-0.992,1.735,-1.055,-0.359,0.331
2504.0,-8.127,-0.992,1.735,-1.055,-0.359,0.331
2508.0,-8.701,-1.128,1.871,-1.057,-0.264,0.357
2512.0,-8.701,-1.128,1.871,-1.057,-0.264,0.357
2516.0,-9.363,-1.297,2.085,-1.036,-0.178,0.422
2520.0,-9.363,-1.297,2.085,-1.036,-0.178,0.422
2524.0,-9.363,-1.297,2.085,-1.036,-0.178,0.422
2528.0,-9.854,-1.503,2.307,-0.992,-0.111,0.523
2532.0,-9.854,-1.503,2.307,-0.992,-0.111,0.523
2536.0,-10.12,-1.696,2.51,-0.931,-0.072,0.651
2540.0,-10.12,-1.696,2.51,-0.931,-0.072,0.651
2544.0,-10.12,-1.696,2.51,-0.931,-0.072,0.651
2548.0,-10.116,-1.839,2.7,-0.855,-0.055,0.791
2553.0,-10.116,-1.839,2.7,-0.855,-0.055,0.791
2557.0,-9.865,-1.932,2.786,-0.77,-0.056,0.925
2561.0,-9.865,-1.932,2.786,-0.77,-0.056,0.925
2565.0,-9.418,-1.927,2.769,-0.77,-0.056,0.925
2569.0,-9.418,-1.927,2.769,-0.681,-0.074,1.037
2573.0,-9.418,-1.927,2.769,-0.681,-0.074,1.037
2577.0,-8.961,-1.817,2.609,-0.602,-0.097,1.123
2581.0,-8.961,-1.817,2.609,-0.602,-0.097,1.123
2585.0,-8.657,-1.634,2.426,-0.602,-0.097,1.181
2589.0,-8.657,-1.634,2.426,-0.537,-0.107,1.181
2593.0,-8.657,-1.634,2.426,-0.537,-0.107,1.181
2597.0,-8.441,-1.451,2.303,-0.491,-0.107,1.223
2601.0,-8.441,-1.451,2.303,-0.491,-0.107,1.223
2605.0,-8.326,-1.273,2.206,-0.491,-0.102,1.256
2609.0,-8.326,-1.273,2.206,-0.464,-0.102,1.256
2613.0,-8.326,-1.273,2.206,-0.464,-0.102,1.256
2617.0,-8.314,-1.135,2.106,-0.456,-0.098,1.281
2621.0,-8.314,-1.135,2.106,-0.456,-0.098,1.281
2625.0,-8.604,-1.016,1.929,-0.464,-0.088,1.304
2629.0,-8.604,-1.016,1.929,-0.464,-0.088,1.304
2633.0,-8.604,-1.016,1.929,-0.464,-0.088,1.304
2637.0,-9.309,-0.94,1.722,-0.492,-0.058,1.33
2641.0,-9.309,-0.94,1.722,-0.492,-0.058,1.33
2645.0,-10.229,-0.936,1.659,-0.539,-0.011,1.369
2649.0,-10.229,-0.936,1.659,-0.539,-0.011,1.369
2653.0,-10.229,-0.936,1.659,-0.539,-0.011,1.369
2657.0,-11.025,-0.992,1.783,-0.6,0.027,1.423
2661.0,-11.025,-0.992,1.783,-0.6,0.027,1.423
2665.0,-11.634,-1.06,1.948,-0.669,0.036,1.483
2669.0,-11.634,-1.06,1.948,-0.669,0.036,1.483
2673.0,-11.634,-1.06,1.948,-0.669,0.036,1.483
2677.0,-12.088,-1.103,2.027,-0.746,0.02,1.528
2681.0,-12.088,-1.103,2.027,-0.746,0.02,1.528
2685.0,-12.337,-1.082,1.97,-0.833,-0.011,1.548
2689.0,-12.337,-1.082,1.97,-0.833,-0.011,1.548
2693.0,-12.337,-1.005,1.893,-0.833,-0.011,1.548
2697.0,-12.287,-1.005,1.893,-0.93,-0.043,1.544
2701.0,-12.287,-1.005,1.893,-0.93,-0.043,1.544
2705.0,-11.855,-0.903,1.821,-1.037,-0.079,1.52
2709.0,-11.855,-0.903,1.821,-1.037,-0.079,1.52
2713.0,-11.233,-0.8,1.717,-1.151,-0.112,1.478
2717.0,-11.233,-0.8,1.717,-1.151,-0.112,1.478
2721.0,-11.233,-0.8,1.717,-1.151,-0.112,1.478
2725.0,-10.681,-0.717,1.583,-1.262,-0.132,1.415
2730.0,-10.681,-0.717,1.583,-1.262,-0.132,1.415
2734.0,-10.29,-0.65,1.439,-1.367,-0.137,1.339
2738.0,-10.29,-0.65,1.439,-1.367,-0.137,1.339
2742.0,-10.29,-0.65,1.439,-1.367,-0.137,1.339
2746.0,-10.213,-0.644,1.289,-1.463,-0.124,1.264
2750.0,-10.213,-0.644,1.289,-1.463,-0.124,1.264
2754.0,-10.471,-0.69,1.239,-1.55,-0.092,1.199
2758.0,-10.471,-0.69,1.239,-1.55,-0.092,1.199
2762.0,-11.025,-0.862,1.292,-1.55,-0.092,1.199
2766.0,-11.025,-0.862,1.292,-1.62,-0.049,1.154
2770.0,-11.025,-0.862,1.292,-1.62,-0.049,1.154
2774.0,-11.517,-1.088,1.446,-1.669,-0.015,1.131
2779.0,-11.517,-1.088,1.446,-1.669,-0.015,1.131
2783.0,-11.736,-1.336,1.62,-1.694,-0.007,1.122
2787.0,-11.736,-1.336,1.62,-1.694,-0.007,1.122
2791.0,-11.736,-1.336,1.62,-1.694,-0.007,1.122
2795.0,-11.566,-1.564,1.726,-1.694,-0.019,1.117
2799.0,-11.566,-1.564,1.726,-1.694,-0.019,1.117
2803.0,-11.14,-1.719,1.765,-1.676,-0.043,1.106
2807.0,-11.14,-1.719,1.765,-1.676,-0.043,1.106
2811.0,-11.14,-1.719,1.746,-1.676,-0.043,1.106
2815.0,-10.558,-1.793,1.746,-1.639,-0.064,1.081
2819.0,-10.558,-1.793,1.746,-1.639,-0.064,1.081
2823.0,-10.077,-1.79,1.688,-1.59,-0.073,1.047
2827.0,-10.077,-1.79,1.688,-1.59,-0.073,1.047
2832.0,-9.754,-1.743,1.694,-1.59,-0.075,1.014
2836.0,-9.754,-1.743,1.694,-1.527,-0.075,1.014
2840.0,-9.754,-1.743,1.694,-1.527,-0.075,1.014
2844.0,-9.539,-1.699,1.723,-1.453,-0.079,0.989
2848.0,-9.539,-1.699,1.723,-1.453,-0.079,0.989
2852.0,-9.43,-1.694,1.694,-1.369,-0.084,0.975
2856.0,-9.43,-1.694,1.694,-1.369,-0.084,0.975
2860.0,-9.43,-1.694,1.694,-1.369,-0.084,0.975
2864.0,-9.302,-1.702,1.671,-1.277,-0.088,0.97
2868.0,-9.302,-1.702,1.671,-1.277,-0.088,0.97
2871.0,-9.213,-1.733,1.597,-1.182,-0.092,0.974
2875.0,-9.213,-1.733,1.597,-1.182,-0.092,0.974
2879.0,-9.213,-1.733,1.597,-1.182,-0.092,0.974
2883.0,-9.341,-1.774,1.518,-1.088,-0.077,0.985
2887.0,-9.341,-1.774,1.518,-1.088,-0.077,0.985
2891.0,-9.505,-1.822,1.549,-1.0,-0.044,1.007
2895.0,-9.505,-1.822,1.549,-1.0,-0.044,1.007
2899.0,-9.505,-1.822,1.549,-1.0,-0.044,1.007
2903.0,-9.65,-1.873,1.702,-0.918,-0.015,1.041
2907.0,-9.65,-1.873,1.702,-0.918,-0.015,1.041
2911.0,-9.583,-1.905,1.849,-0.84,-0.001,1.076
2915.0,-9.583,-1.905,1.849,-0.84,-0.001,1.076
2919.0,-9.583,-1.905,1.849,-0.84,-0.001,1.076
2923.0,-9.608,-1.916,1.869,-0.764,0.003,1.105
2927.0,-9.608,-1.916,1.869,-0.764,0.003,1.105
2931.0,-9.919,-1.915,1.76,-0.695,0.02,1.127
2935.0,-9.919,-1.915,1.76,-0.695,0.02,1.127
2939.0,-9.919,-1.915,1.76,-0.695,0.02,1.127
2943.0,-10.362,-1.914,1.679,-0.639,0.057,1.159
2947.0,-10.362,-1.914,1.679,-0.639,0.057,1.159
2951.0,-10.719,-1.93,1.702,-0.596,0.105,1.21
2955.0,-10.719,-1.93,1.702,-0.596,0.105,1.21
2959.0,-10.719,-1.93,1.702,-0.596,0.105,1.21
2963.0,-10.824,-1.978,1.838,-0.559,0.145,1.271
2967.0,-10.824,-1.978,1.838,-0.559,0.145,1.271
2971.0,-10.948,-2.035,1.881,-0.524,0.171,1.328
2975.0,-10.948,-2.035,1.881,-0.524,0.171,1.328
2979.0,-10.948,-2.035,1.839,-0.524,0.171,1.328
2983.0,-11.314,-2.074,1.839,-0.491,0.197,1.371
2987.0,-11.314,-2.074,1.839,-0.491,0.197,1.371
2991.0,-11.868,-2.09,1.816,-0.463,0.232,1.405
2995.0,-11.868,-2.09,1.816,-0.463,0.232,1.405
2999.0,-11.868,-2.101,1.845,-0.463,0.232,1.405
