deltaTime,Acc_X,Acc_Y,Acc_Z,Gyro_X,Gyro_Y,Gyro_Z
0.0,-9.681,-1.761,2.067,0.569,0.335,-0.163
3.0,-9.706,-1.397,2.067,0.498,0.328,-0.192
6.0,-9.706,-1.397,2.067,0.498,0.328,-0.192
9.0,-9.706,-1.397,2.067,0.498,0.328,-0.192
12.0,-10.052,-1.22,1.977,0.387,0.324,-0.228
15.0,-10.052,-1.22,1.977,0.387,0.324,-0.228
18.0,-10.052,-1.22,1.977,0.387,0.324,-0.228
21.0,-10.374,-1.168,1.928,0.281,0.301,-0.261
24.0,-10.374,-1.168,1.928,0.281,0.301,-0.261
27.0,-10.374,-1.168,1.928,0.281,0.301,-0.261
30.0,-10.374,-1.047,1.923,0.281,0.301,-0.261
33.0,-10.298,-1.047,1.923,0.199,0.271,-0.282
37.0,-10.298,-1.047,1.923,0.199,0.271,-0.282
41.0,-10.034,-0.896,1.993,0.131,0.251,-0.301
45.0,-10.034,-0.896,1.993,0.131,0.251,-0.301
49.0,-10.034,-0.896,1.993,0.131,0.251,-0.301
52.0,-9.854,-1.012,2.078,0.08,0.243,-0.302
56.0,-9.854,-1.012,2.078,0.08,0.243,-0.302
60.0,-9.854,-1.012,2.246,0.08,0.243,-0.302
64.0,-9.812,-1.196,2.246,0.085,0.245,-0.275
67.0,-9.812,-1.196,2.246,0.085,0.245,-0.275
71.0,-9.694,-1.211,2.478,0.142,0.259,-0.227
75.0,-9.694,-1.211,2.478,0.142,0.259,-0.227
79.0,-9.694,-1.211,2.478,0.142,0.259,-0.227
82.0,-9.672,-1.195,2.888,0.213,0.269,-0.163
86.0,-9.672,-1.195,2.888,0.213,0.269,-0.163
90.0,-9.748,-1.038,3.272,0.213,0.269,-0.163
93.0,-9.748,-1.038,3.272,0.272,0.273,-0.091
97.0,-9.748,-1.038,3.272,0.272,0.273,-0.091
101.0,-9.828,-0.87,3.394,0.292,0.247,-0.024
105.0,-9.828,-0.87,3.394,0.292,0.247,-0.024
109.0,-9.828,-0.87,3.394,0.292,0.247,-0.024
112.0,-9.88,-1.038,3.398,0.271,0.193,0.032
116.0,-9.88,-1.038,3.398,0.271,0.193,0.032
120.0,-9.963,-1.269,3.368,0.271,0.139,0.098
124.0,-9.963,-1.269,3.368,0.263,0.139,0.098
127.0,-9.963,-1.269,3.368,0.263,0.139,0.098
131.0,-9.884,-1.257,3.2,0.268,0.089,0.16
135.0,-9.884,-1.257,3.2,0.268,0.089,0.16
139.0,-9.884,-1.257,3.2,0.268,0.089,0.16
142.0,-9.723,-1.287,2.986,0.246,0.041,0.201
146.0,-9.723,-1.287,2.986,0.246,0.041,0.201
150.0,-9.569,-1.39,2.788,0.197,0.004,0.221
153.0,-9.569,-1.39,2.788,0.197,0.004,0.221
157.0,-9.569,-1.39,2.788,0.197,0.004,0.221
161.0,-9.446,-1.375,2.676,0.134,-0.017,0.221
165.0,-9.446,-1.375,2.676,0.134,-0.017,0.221
169.0,-9.446,-1.305,2.625,0.134,-0.017,0.221
172.0,-9.379,-1.305,2.625,0.047,-0.026,0.204
176.0,-9.379,-1.305,2.625,0.047,-0.026,0.204
180.0,-9.303,-1.327,2.532,-0.063,-0.039,0.177
184.0,-9.303,-1.327,2.532,-0.063,-0.039,0.177
188.0,-9.303,-1.327,2.532,-0.063,-0.039,0.177
192.0,-9.2,-1.466,2.411,-0.177,-0.052,0.146
196.0,-9.2,-1.466,2.411,-0.177,-0.052,0.146
200.0,-9.118,-1.68,2.316,-0.279,-0.055,0.12
203.0,-9.118,-1.68,2.316,-0.279,-0.055,0.12
207.0,-9.118,-1.68,2.316,-0.279,-0.055,0.12
211.0,-9.051,-1.947,2.283,-0.359,-0.041,0.108
215.0,-9.051,-1.947,2.283,-0.359,-0.041,0.108
219.0,-8.981,-2.22,2.324,-0.415,-0.019,0.103
223.0,-8.981,-2.22,2.324,-0.415,-0.019,0.103
227.0,-8.981,-2.22,2.324,-0.415,-0.019,0.103
231.0,-9.027,-2.369,2.412,-0.46,0.001,0.097
235.0,-9.027,-2.369,2.412,-0.46,0.001,0.097
238.0,-8.974,-2.724,2.52,-0.506,0.018,0.087
242.0,-8.974,-2.724,2.52,-0.506,0.018,0.087
246.0,-8.974,-2.724,2.52,-0.506,0.018,0.087
250.0,-8.736,-3.15,2.667,-0.519,0.032,0.086
254.0,-8.736,-3.15,2.667,-0.519,0.032,0.086
258.0,-8.788,-3.352,2.806,-0.519,0.032,0.086
261.0,-8.788,-3.352,2.806,-0.49,0.054,0.085
265.0,-8.788,-3.352,2.806,-0.49,0.054,0.085
269.0,-8.772,-3.197,2.798,-0.454,0.06,0.072
273.0,-8.772,-3.197,2.798,-0.454,0.06,0.072
277.0,-8.772,-3.197,2.798,-0.454,0.06,0.072
280.0,-8.774,-3.299,2.898,-0.449,0.057,0.041
284.0,-8.774,-3.299,2.898,-0.449,0.057,0.041
288.0,-8.669,-3.693,3.0,-0.422,0.054,0.017
292.0,-8.669,-3.693,3.0,-0.422,0.054,0.017
296.0,-8.669,-3.693,3.0,-0.422,0.054,0.017
300.0,-8.502,-4.111,3.098,-0.32,0.059,0.002
303.0,-8.502,-4.111,3.098,-0.32,0.059,0.002
307.0,-8.321,-4.416,3.234,-0.32,0.059,-0.013
311.0,-8.321,-4.416,3.234,-0.146,0.077,-0.013
315.0,-8.321,-4.416,3.234,-0.146,0.077,-0.013
319.0,-8.155,-4.457,3.292,0.066,0.096,-0.034
323.0,-8.155,-4.457,3.292,0.066,0.096,-0.034
327.0,-7.942,-4.277,3.15,0.066,0.096,-0.034
330.0,-7.942,-4.277,3.15,0.273,0.1,-0.068
334.0,-7.942,-4.277,3.15,0.273,0.1,-0.068
338.0,-7.862,-4.206,2.994,0.445,0.095,-0.116
342.0,-7.862,-4.206,2.994,0.445,0.095,-0.116
346.0,-7.862,-4.206,2.994,0.445,0.095,-0.116
349.0,-7.877,-4.161,2.835,0.598,0.102,-0.158
353.0,-7.877,-4.161,2.835,0.598,0.102,-0.158
357.0,-8.172,-4.198,2.815,0.751,0.129,-0.189
361.0,-8.172,-4.198,2.815,0.751,0.129,-0.189
365.0,-8.172,-4.198,2.815,0.751,0.129,-0.189
369.0,-8.188,-4.085,2.779,0.9,0.104,-0.209
372.0,-8.188,-4.085,2.779,0.9,0.104,-0.209
376.0,-8.31,-3.971,2.749,0.9,0.104,-0.222
380.0,-8.31,-3.971,2.749,1.02,0.09,-0.222
384.0,-8.31,-3.971,2.749,1.02,0.09,-0.222
388.0,-8.576,-3.8,2.699,1.114,0.069,-0.237
391.0,-8.576,-3.8,2.699,1.114,0.069,-0.237
395.0,-8.576,-3.8,2.617,1.114,0.069,-0.237
399.0,-8.968,-3.643,2.617,1.171,0.023,-0.25
403.0,-8.968,-3.643,2.617,1.171,0.023,-0.25
407.0,-9.17,-3.636,2.538,1.197,-0.029,-0.255
411.0,-9.17,-3.636,2.538,1.197,-0.029,-0.255
415.0,-9.17,-3.636,2.538,1.197,-0.029,-0.255
418.0,-8.934,-3.563,2.437,1.217,-0.061,-0.258
422.0,-8.934,-3.563,2.437,1.217,-0.061,-0.258
426.0,-8.895,-3.442,2.316,1.225,-0.069,-0.259
430.0,-8.895,-3.442,2.316,1.225,-0.069,-0.259
434.0,-8.895,-3.442,2.316,1.225,-0.069,-0.259
438.0,-9.104,-3.297,2.247,1.215,-0.065,-0.263
442.0,-9.104,-3.297,2.247,1.215,-0.065,-0.263
446.0,-9.386,-3.185,2.199,1.185,-0.06,-0.27
450.0,-9.386,-3.185,2.199,1.185,-0.06,-0.27
454.0,-9.386,-3.185,2.199,1.185,-0.06,-0.27
458.0,-9.592,-3.096,2.161,1.143,-0.057,-0.284
461.0,-9.592,-3.096,2.161,1.143,-0.057,-0.284
465.0,-9.706,-3.039,2.143,1.095,-0.055,-0.306
469.0,-9.706,-3.039,2.143,1.095,-0.055,-0.306
473.0,-9.706,-3.039,2.143,1.095,-0.055,-0.306
477.0,-9.779,-2.96,2.109,1.048,-0.05,-0.331
481.0,-9.779,-2.96,2.109,1.048,-0.05,-0.331
485.0,-9.814,-2.855,2.06,1.048,-0.05,-0.357
489.0,-9.814,-2.855,2.06,1.001,-0.045,-0.357
493.0,-9.814,-2.855,2.06,1.001,-0.045,-0.357
497.0,-9.772,-2.755,2.036,0.951,-0.037,-0.379
501.0,-9.772,-2.755,2.036,0.951,-0.037,-0.379
504.0,-9.682,-2.685,2.015,0.951,-0.037,-0.379
508.0,-9.682,-2.685,2.015,0.9,-0.028,-0.4
512.0,-9.682,-2.685,2.015,0.9,-0.028,-0.4
516.0,-9.567,-2.615,1.956,0.847,-0.019,-0.418
520.0,-9.567,-2.615,1.956,0.847,-0.019,-0.418
524.0,-9.567,-2.567,1.927,0.847,-0.019,-0.418
528.0,-9.455,-2.567,1.927,0.792,-0.008,-0.434
532.0,-9.455,-2.567,1.927,0.792,-0.008,-0.434
536.0,-9.377,-2.559,1.913,0.737,0.005,-0.447
539.0,-9.377,-2.559,1.913,0.737,0.005,-0.447
543.0,-9.377,-2.559,1.913,0.737,0.005,-0.447
547.0,-9.27,-2.563,1.871,0.685,0.018,-0.456
551.0,-9.27,-2.563,1.871,0.685,0.018,-0.456
555.0,-9.111,-2.592,1.819,0.642,0.03,-0.465
559.0,-9.111,-2.592,1.819,0.642,0.03,-0.465
562.0,-9.111,-2.592,1.819,0.642,0.03,-0.465
566.0,-8.956,-2.608,1.791,0.61,0.045,-0.471
570.0,-8.956,-2.608,1.791,0.61,0.045,-0.471
574.0,-8.824,-2.633,1.797,0.61,0.063,-0.472
578.0,-8.824,-2.633,1.797,0.59,0.063,-0.472
581.0,-8.824,-2.633,1.797,0.59,0.063,-0.472
585.0,-8.707,-2.649,1.774,0.58,0.083,-0.464
589.0,-8.707,-2.649,1.774,0.58,0.083,-0.464
593.0,-8.707,-2.678,1.772,0.58,0.083,-0.464
597.0,-8.625,-2.678,1.772,0.578,0.107,-0.451
601.0,-8.625,-2.678,1.772,0.578,0.107,-0.451
604.0,-8.643,-2.725,1.797,0.581,0.135,-0.431
608.0,-8.643,-2.725,1.797,0.581,0.135,-0.431
612.0,-8.643,-2.725,1.797,0.581,0.135,-0.431
616.0,-8.74,-2.792,1.826,0.587,0.167,-0.406
620.0,-8.74,-2.792,1.826,0.587,0.167,-0.406
624.0,-8.877,-2.858,1.889,0.595,0.202,-0.373
627.0,-8.877,-2.858,1.889,0.595,0.202,-0.373
631.0,-8.877,-2.858,1.889,0.595,0.202,-0.373
635.0,-9.054,-2.953,1.989,0.608,0.234,-0.335
639.0,-9.054,-2.953,1.989,0.608,0.234,-0.335
643.0,-9.221,-3.056,2.081,0.608,0.234,-0.335
646.0,-9.221,-3.056,2.081,0.622,0.26,-0.292
650.0,-9.221,-3.056,2.081,0.622,0.26,-0.292
654.0,-9.326,-3.153,2.141,0.642,0.281,-0.247
658.0,-9.326,-3.153,2.141,0.642,0.281,-0.247
662.0,-9.326,-3.153,2.141,0.642,0.281,-0.247
666.0,-9.385,-3.233,2.204,0.668,0.299,-0.201
669.0,-9.385,-3.233,2.204,0.668,0.299,-0.201
673.0,-9.496,-3.303,2.249,0.701,0.315,-0.153
677.0,-9.496,-3.303,2.249,0.701,0.315,-0.153
681.0,-9.496,-3.303,2.249,0.701,0.315,-0.153
685.0,-9.561,-3.354,2.32,0.739,0.327,-0.108
688.0,-9.561,-3.354,2.32,0.739,0.327,-0.108
692.0,-9.567,-3.366,2.39,0.739,0.331,-0.07
696.0,-9.567,-3.366,2.39,0.783,0.331,-0.07
700.0,-9.567,-3.366,2.39,0.783,0.331,-0.07
704.0,-9.497,-3.358,2.423,0.827,0.326,-0.041
708.0,-9.497,-3.358,2.423,0.827,0.326,-0.041
711.0,-9.497,-3.315,2.437,0.827,0.326,-0.041
715.0,-9.429,-3.315,2.437,0.868,0.32,-0.022
719.0,-9.429,-3.315,2.437,0.868,0.32,-0.022
723.0,-9.417,-3.274,2.474,0.903,0.315,-0.004
727.0,-9.417,-3.274,2.474,0.903,0.315,-0.004
730.0,-9.417,-3.274,2.474,0.903,0.315,-0.004
734.0,-9.433,-3.232,2.517,0.931,0.309,0.01
738.0,-9.433,-3.232,2.517,0.931,0.309,0.01
742.0,-9.483,-3.195,2.548,0.954,0.297,0.018
745.0,-9.483,-3.195,2.548,0.954,0.297,0.018
749.0,-9.483,-3.195,2.548,0.954,0.297,0.018
753.0,-9.549,-3.13,2.557,0.968,0.282,0.019
757.0,-9.549,-3.13,2.557,0.968,0.282,0.019
760.0,-9.549,-3.13,2.557,0.968,0.282,0.019
764.0,-9.635,-3.057,2.547,0.975,0.266,0.017
768.0,-9.635,-3.057,2.547,0.975,0.266,0.017
772.0,-9.811,-2.996,2.533,0.974,0.254,0.014
775.0,-9.811,-2.996,2.533,0.974,0.254,0.014
779.0,-9.811,-2.996,2.533,0.974,0.254,0.014
783.0,-10.078,-2.964,2.516,0.965,0.246,0.01
787.0,-10.078,-2.964,2.516,0.965,0.246,0.01
790.0,-10.078,-2.949,2.555,0.965,0.246,0.01
794.0,-10.356,-2.949,2.555,0.952,0.241,0.005
798.0,-10.356,-2.949,2.555,0.952,0.241,0.005
802.0,-10.604,-2.919,2.615,0.936,0.233,0.0
806.0,-10.604,-2.919,2.615,0.936,0.233,0.0
810.0,-10.604,-2.919,2.615,0.936,0.233,0.0
813.0,-10.88,-2.887,2.66,0.914,0.225,-0.003
817.0,-10.88,-2.887,2.66,0.914,0.225,-0.003
821.0,-11.161,-2.85,2.689,0.883,0.219,-0.0
825.0,-11.161,-2.85,2.689,0.883,0.219,-0.0
829.0,-11.161,-2.85,2.689,0.883,0.219,-0.0
833.0,-11.438,-2.847,2.763,0.841,0.218,0.012
837.0,-11.438,-2.847,2.763,0.841,0.218,0.012
841.0,-11.567,-2.846,2.87,0.79,0.213,0.03
844.0,-11.567,-2.846,2.87,0.79,0.213,0.03
848.0,-11.567,-2.846,2.87,0.79,0.213,0.03
852.0,-11.364,-2.828,2.962,0.736,0.195,0.045
856.0,-11.364,-2.828,2.962,0.736,0.195,0.045
860.0,-10.846,-2.763,2.977,0.736,0.195,0.045
863.0,-10.846,-2.763,2.977,0.678,0.167,0.043
867.0,-10.846,-2.763,2.977,0.678,0.167,0.043
871.0,-10.249,-2.659,2.919,0.615,0.141,0.022
875.0,-10.249,-2.659,2.919,0.615,0.141,0.022
879.0,-10.249,-2.659,2.919,0.615,0.141,0.022
883.0,-9.721,-2.569,2.848,0.545,0.124,-0.011
886.0,-9.721,-2.569,2.848,0.545,0.124,-0.011
890.0,-9.312,-2.479,2.751,0.47,0.112,-0.055
894.0,-9.312,-2.479,2.751,0.47,0.112,-0.055
898.0,-9.312,-2.479,2.751,0.47,0.112,-0.055
902.0,-9.04,-2.445,2.69,0.392,0.105,-0.104
905.0,-9.04,-2.445,2.69,0.392,0.105,-0.104
909.0,-8.898,-2.449,2.645,0.392,0.105,-0.15
913.0,-8.898,-2.449,2.645,0.314,0.104,-0.15
917.0,-8.898,-2.449,2.645,0.314,0.104,-0.15
921.0,-8.827,-2.527,2.63,0.244,0.105,-0.187
925.0,-8.827,-2.527,2.63,0.244,0.105,-0.187
928.0,-8.827,-2.527,2.638,0.244,0.105,-0.187
932.0,-8.783,-2.66,2.638,0.187,0.1,-0.217
936.0,-8.783,-2.66,2.638,0.187,0.1,-0.217
940.0,-8.806,-2.838,2.623,0.145,0.088,-0.24
944.0,-8.806,-2.838,2.623,0.145,0.088,-0.24
947.0,-8.806,-2.838,2.623,0.145,0.088,-0.24
951.0,-8.816,-3.031,2.586,0.117,0.07,-0.26
955.0,-8.816,-3.031,2.586,0.117,0.07,-0.26
959.0,-8.773,-3.173,2.542,0.097,0.048,-0.282
963.0,-8.773,-3.173,2.542,0.097,0.048,-0.282
967.0,-8.773,-3.173,2.542,0.097,0.048,-0.282
970.0,-8.624,-3.305,2.53,0.08,0.025,-0.305
974.0,-8.624,-3.305,2.53,0.08,0.025,-0.305
978.0,-8.449,-3.415,2.559,0.08,0.025,-0.305
982.0,-8.449,-3.415,2.559,0.067,0.008,-0.322
986.0,-8.449,-3.415,2.559,0.067,0.008,-0.322
989.0,-8.268,-3.519,2.53,0.056,-0.011,-0.338
993.0,-8.268,-3.519,2.53,0.056,-0.011,-0.338
997.0,-8.268,-3.519,2.53,0.056,-0.011,-0.338
1001.0,-8.056,-3.62,2.436,0.047,-0.032,-0.357
1005.0,-8.056,-3.62,2.436,0.047,-0.032,-0.357
1009.0,-7.869,-3.671,2.324,0.039,-0.05,-0.389
1013.0,-7.869,-3.671,2.324,0.039,-0.05,-0.389
1017.0,-7.869,-3.671,2.189,0.039,-0.05,-0.389
1021.0,-7.75,-3.695,2.189,0.032,-0.061,-0.431
1025.0,-7.75,-3.695,2.189,0.032,-0.061,-0.431
1029.0,-7.773,-3.72,2.058,0.035,-0.068,-0.479
1033.0,-7.773,-3.72,2.058,0.035,-0.068,-0.479
1037.0,-7.773,-3.736,1.929,0.035,-0.068,-0.479
1041.0,-7.87,-3.736,1.929,0.05,-0.074,-0.528
1045.0,-7.87,-3.736,1.929,0.05,-0.074,-0.528
1049.0,-7.979,-3.729,1.802,0.07,-0.078,-0.573
1053.0,-7.979,-3.729,1.802,0.07,-0.078,-0.573
1057.0,-8.074,-3.708,1.686,0.07,-0.078,-0.573
1061.0,-8.074,-3.708,1.686,0.089,-0.081,-0.616
1065.0,-8.074,-3.708,1.686,0.089,-0.081,-0.616
1069.0,-8.176,-3.675,1.627,0.105,-0.08,-0.658
1073.0,-8.176,-3.675,1.627,0.105,-0.08,-0.658
1077.0,-8.308,-3.645,1.559,0.105,-0.08,-0.689
1081.0,-8.308,-3.645,1.559,0.111,-0.077,-0.689
1085.0,-8.308,-3.645,1.559,0.111,-0.077,-0.689
1089.0,-8.414,-3.617,1.497,0.104,-0.074,-0.707
1093.0,-8.414,-3.617,1.497,0.104,-0.074,-0.707
1097.0,-8.524,-3.655,1.454,0.104,-0.07,-0.714
1101.0,-8.524,-3.655,1.454,0.083,-0.07,-0.714
1105.0,-8.524,-3.655,1.454,0.083,-0.07,-0.714
1109.0,-8.667,-3.715,1.433,0.057,-0.067,-0.715
1113.0,-8.667,-3.715,1.433,0.057,-0.067,-0.715
1117.0,-8.818,-3.784,1.409,0.03,-0.064,-0.714
1121.0,-8.818,-3.784,1.409,0.03,-0.064,-0.714
1125.0,-8.818,-3.784,1.409,0.03,-0.064,-0.714
1129.0,-8.98,-3.838,1.369,0.006,-0.063,-0.716
1133.0,-8.98,-3.838,1.369,0.006,-0.063,-0.716
1137.0,-9.092,-3.855,1.359,-0.016,-0.06,-0.725
1141.0,-9.092,-3.855,1.359,-0.016,-0.06,-0.725
1145.0,-9.092,-3.855,1.359,-0.016,-0.06,-0.725
1149.0,-9.177,-3.847,1.366,-0.03,-0.057,-0.738
1153.0,-9.177,-3.847,1.366,-0.03,-0.057,-0.738
1157.0,-9.209,-3.805,1.403,-0.037,-0.055,-0.752
1161.0,-9.209,-3.805,1.403,-0.037,-0.055,-0.752
1166.0,-9.258,-3.767,1.422,-0.037,-0.055,-0.752
1170.0,-9.258,-3.767,1.422,-0.035,-0.056,-0.768
1174.0,-9.258,-3.767,1.422,-0.035,-0.056,-0.768
1178.0,-9.394,-3.717,1.43,-0.026,-0.055,-0.784
1182.0,-9.394,-3.717,1.43,-0.026,-0.055,-0.784
1186.0,-9.594,-3.747,1.46,-0.019,-0.049,-0.793
1190.0,-9.594,-3.747,1.46,-0.019,-0.049,-0.793
1194.0,-9.594,-3.747,1.46,-0.019,-0.049,-0.793
1198.0,-9.829,-3.891,1.568,-0.013,-0.038,-0.794
1202.0,-9.829,-3.891,1.568,-0.013,-0.038,-0.794
1206.0,-9.99,-4.051,1.726,-0.009,-0.029,-0.8
1210.0,-9.99,-4.051,1.726,-0.009,-0.029,-0.8
1214.0,-9.99,-4.051,1.726,-0.009,-0.029,-0.8
1219.0,-10.056,-4.107,1.858,0.0,-0.035,-0.825
1223.0,-10.056,-4.107,1.858,0.0,-0.035,-0.825
1227.0,-10.091,-4.057,1.908,0.019,-0.051,-0.866
1231.0,-10.091,-4.057,1.908,0.019,-0.051,-0.866
1235.0,-10.148,-3.982,1.939,0.019,-0.051,-0.909
1239.0,-10.148,-3.982,1.939,0.041,-0.062,-0.909
1243.0,-10.148,-3.982,1.939,0.041,-0.062,-0.909
1247.0,-10.238,-3.909,2.042,0.062,-0.061,-0.944
1251.0,-10.238,-3.909,2.042,0.062,-0.061,-0.944
1255.0,-10.318,-3.84,2.176,0.074,-0.056,-0.975
1259.0,-10.318,-3.84,2.176,0.074,-0.056,-0.975
1263.0,-10.318,-3.84,2.176,0.074,-0.056,-0.975
1268.0,-10.378,-3.827,2.371,0.08,-0.053,-1.006
1272.0,-10.378,-3.827,2.371,0.08,-0.053,-1.006
1276.0,-10.349,-3.867,2.602,0.078,-0.061,-1.034
1280.0,-10.349,-3.867,2.602,0.078,-0.061,-1.034
1284.0,-10.349,-3.864,2.806,0.078,-0.061,-1.034
1288.0,-10.248,-3.864,2.806,0.075,-0.078,-1.057
1292.0,-10.248,-3.864,2.806,0.075,-0.078,-1.057
1296.0,-10.074,-3.82,2.94,0.077,-0.106,-1.079
1300.0,-10.074,-3.82,2.94,0.077,-0.106,-1.079
1304.0,-9.858,-3.789,3.013,0.077,-0.144,-1.11
1308.0,-9.858,-3.789,3.013,0.091,-0.144,-1.11
1312.0,-9.858,-3.789,3.013,0.091,-0.144,-1.11
1316.0,-9.646,-3.751,3.033,0.116,-0.189,-1.152
1320.0,-9.646,-3.751,3.033,0.116,-0.189,-1.152
1324.0,-9.444,-3.708,3.071,0.14,-0.228,-1.198
1328.0,-9.444,-3.708,3.071,0.14,-0.228,-1.198
1332.0,-9.444,-3.708,3.071,0.14,-0.228,-1.198
1336.0,-9.293,-3.681,3.072,0.153,-0.255,-1.234
1340.0,-9.293,-3.681,3.072,0.153,-0.255,-1.234
1344.0,-9.236,-3.664,3.133,0.149,-0.268,-1.251
1348.0,-9.236,-3.664,3.133,0.149,-0.268,-1.251
1352.0,-9.236,-3.664,3.133,0.149,-0.268,-1.251
1356.0,-9.227,-3.732,3.291,0.129,-0.277,-1.245
1360.0,-9.227,-3.732,3.291,0.129,-0.277,-1.245
1364.0,-9.215,-3.834,3.443,0.096,-0.295,-1.226
1368.0,-9.215,-3.834,3.443,0.096,-0.295,-1.226
1372.0,-9.215,-3.834,3.443,0.096,-0.295,-1.226
1376.0,-9.114,-3.881,3.541,0.059,-0.322,-1.199
1380.0,-9.114,-3.881,3.541,0.059,-0.322,-1.199
1384.0,-8.947,-3.876,3.493,0.023,-0.346,-1.165
1388.0,-8.947,-3.876,3.493,0.023,-0.346,-1.165
1392.0,-8.947,-3.876,3.493,0.023,-0.346,-1.165
1396.0,-8.63,-3.788,3.505,-0.021,-0.329,-1.123
1400.0,-8.63,-3.788,3.505,-0.021,-0.329,-1.123
1404.0,-9.101,-4.151,3.473,-0.053,-0.301,-1.089
1408.0,-9.101,-4.151,3.473,-0.053,-0.301,-1.089
1412.0,-8.601,-3.976,3.572,-0.053,-0.301,-1.089
1416.0,-8.601,-3.976,3.572,-0.005,-0.424,-1.045
1421.0,-8.601,-3.976,3.572,-0.005,-0.424,-1.045
1425.0,-8.347,-3.845,3.692,0.028,-0.47,-1.006
1429.0,-8.347,-3.845,3.692,0.028,-0.47,-1.006
1433.0,-8.16,-3.658,3.728,0.028,-0.507,-0.971
1437.0,-8.16,-3.658,3.728,0.063,-0.507,-0.971
1441.0,-8.16,-3.658,3.728,0.063,-0.507,-0.971
1445.0,-8.066,-3.511,3.784,0.085,-0.539,-0.928
1449.0,-8.066,-3.511,3.784,0.085,-0.539,-0.928
1453.0,-8.055,-3.393,3.823,0.098,-0.567,-0.878
1457.0,-8.055,-3.393,3.823,0.098,-0.567,-0.878
1461.0,-8.055,-3.393,3.823,0.098,-0.567,-0.878
1465.0,-8.123,-3.294,3.83,0.1,-0.59,-0.822
1469.0,-8.123,-3.294,3.83,0.1,-0.59,-0.822
1473.0,-8.259,-3.221,3.787,0.082,-0.607,-0.759
1477.0,-8.259,-3.221,3.787,0.082,-0.607,-0.759
1481.0,-8.259,-3.221,3.787,0.082,-0.607,-0.759
1485.0,-8.448,-3.187,3.698,0.04,-0.616,-0.687
1489.0,-8.448,-3.187,3.698,0.04,-0.616,-0.687
1493.0,-8.616,-3.209,3.604,-0.022,-0.616,-0.608
1497.0,-8.616,-3.209,3.604,-0.022,-0.616,-0.608
1501.0,-8.616,-3.209,3.604,-0.022,-0.616,-0.608
1505.0,-8.696,-3.27,3.516,-0.094,-0.614,-0.525
1509.0,-8.696,-3.27,3.516,-0.094,-0.614,-0.525
1513.0,-8.605,-3.315,3.449,-0.161,-0.616,-0.45
1517.0,-8.605,-3.315,3.449,-0.161,-0.616,-0.45
1521.0,-8.358,-3.302,3.373,-0.161,-0.616,-0.45
1525.0,-8.358,-3.302,3.373,-0.219,-0.623,-0.388
1529.0,-8.358,-3.302,3.373,-0.219,-0.623,-0.388
1533.0,-8.09,-3.214,3.267,-0.266,-0.636,-0.337
1537.0,-8.09,-3.214,3.267,-0.266,-0.636,-0.337
1541.0,-7.858,-3.05,3.118,-0.305,-0.644,-0.288
1546.0,-7.858,-3.05,3.118,-0.305,-0.644,-0.288
1550.0,-7.858,-3.05,3.118,-0.305,-0.644,-0.288
1554.0,-7.748,-2.864,2.983,-0.344,-0.645,-0.227
1558.0,-7.748,-2.864,2.983,-0.344,-0.645,-0.227
1562.0,-7.716,-2.734,2.834,-0.385,-0.637,-0.148
1566.0,-7.716,-2.734,2.834,-0.385,-0.637,-0.148
1570.0,-7.716,-2.734,2.771,-0.385,-0.637,-0.148
1574.0,-7.693,-2.751,2.771,-0.424,-0.62,-0.05
1578.0,-7.693,-2.751,2.771,-0.424,-0.62,-0.05
1582.0,-7.612,-2.692,2.725,-0.448,-0.598,0.059
1586.0,-7.612,-2.692,2.725,-0.448,-0.598,0.059
1590.0,-7.679,-2.592,2.63,-0.448,-0.598,0.162
1594.0,-7.679,-2.592,2.63,-0.486,-0.582,0.162
1598.0,-7.679,-2.592,2.63,-0.486,-0.582,0.162
1602.0,-7.711,-2.576,2.582,-0.544,-0.565,0.276
1606.0,-7.711,-2.576,2.582,-0.544,-0.565,0.276
1610.0,-7.691,-2.639,2.559,-0.544,-0.545,0.392
1614.0,-7.691,-2.639,2.559,-0.608,-0.545,0.392
1618.0,-7.691,-2.639,2.559,-0.608,-0.545,0.392
1622.0,-7.677,-2.728,2.535,-0.666,-0.526,0.504
1626.0,-7.677,-2.728,2.535,-0.666,-0.526,0.504
1630.0,-7.694,-2.81,2.485,-0.719,-0.508,0.604
1634.0,-7.694,-2.81,2.485,-0.719,-0.508,0.604
1638.0,-7.694,-2.81,2.485,-0.719,-0.508,0.604
1642.0,-7.755,-2.858,2.418,-0.776,-0.492,0.692
1646.0,-7.755,-2.858,2.418,-0.776,-0.492,0.692
1650.0,-7.845,-2.892,2.329,-0.84,-0.471,0.769
1654.0,-7.845,-2.892,2.329,-0.84,-0.471,0.769
1658.0,-7.845,-2.892,2.329,-0.84,-0.471,0.769
1662.0,-7.904,-2.937,2.261,-0.913,-0.443,0.842
1666.0,-7.904,-2.937,2.261,-0.913,-0.443,0.842
1670.0,-7.918,-2.969,2.255,-0.991,-0.417,0.907
1674.0,-7.918,-2.969,2.255,-0.991,-0.417,0.907
1678.0,-7.918,-2.969,2.255,-0.991,-0.417,0.907
1682.0,-7.898,-2.998,2.258,-1.07,-0.395,0.963
1686.0,-7.898,-2.998,2.258,-1.07,-0.395,0.963
1690.0,-7.927,-2.98,2.245,-1.148,-0.381,1.013
1694.0,-7.927,-2.98,2.245,-1.148,-0.381,1.013
1698.0,-7.927,-2.98,2.245,-1.148,-0.381,1.013
1702.0,-8.051,-2.98,2.24,-1.223,-0.369,1.07
1706.0,-8.051,-2.98,2.24,-1.223,-0.369,1.07
1710.0,-8.308,-3.035,2.206,-1.294,-0.353,1.147
1714.0,-8.308,-3.035,2.206,-1.294,-0.353,1.147
1718.0,-8.308,-3.035,2.212,-1.294,-0.353,1.147
1722.0,-8.593,-3.16,2.212,-1.355,-0.336,1.249
1726.0,-8.593,-3.16,2.212,-1.355,-0.336,1.249
1730.0,-8.806,-3.358,2.238,-1.404,-0.321,1.364
1734.0,-8.806,-3.358,2.238,-1.404,-0.321,1.364
1738.0,-8.941,-3.548,2.31,-1.404,-0.321,1.364
1742.0,-8.941,-3.548,2.31,-1.438,-0.317,1.474
1746.0,-8.941,-3.548,2.31,-1.438,-0.317,1.474
1750.0,-9.011,-3.709,2.351,-1.456,-0.327,1.568
1754.0,-9.011,-3.709,2.351,-1.456,-0.327,1.568
1758.0,-9.129,-3.836,2.32,-1.456,-0.327,1.568
1762.0,-9.129,-3.836,2.32,-1.458,-0.344,1.646
1766.0,-9.129,-3.836,2.32,-1.458,-0.344,1.646
1770.0,-9.224,-3.898,2.267,-1.446,-0.361,1.708
1774.0,-9.224,-3.898,2.267,-1.446,-0.361,1.708
1778.0,-9.288,-3.907,2.2,-1.446,-0.375,1.76
1782.0,-9.288,-3.907,2.2,-1.42,-0.375,1.76
1786.0,-9.288,-3.907,2.2,-1.42,-0.375,1.76
1790.0,-9.279,-3.852,2.135,-1.382,-0.384,1.804
1794.0,-9.279,-3.852,2.135,-1.382,-0.384,1.804
1798.0,-9.242,-3.778,2.096,-1.336,-0.391,1.841
1802.0,-9.242,-3.778,2.096,-1.336,-0.391,1.841
1806.0,-9.242,-3.778,2.096,-1.336,-0.391,1.841
1810.0,-9.275,-3.714,2.032,-1.281,-0.391,1.874
1814.0,-9.275,-3.714,2.032,-1.281,-0.391,1.874
1818.0,-9.413,-3.617,1.965,-1.221,-0.382,1.91
1822.0,-9.413,-3.617,1.965,-1.221,-0.382,1.91
1826.0,-9.413,-3.617,1.965,-1.221,-0.382,1.91
1830.0,-9.549,-3.534,1.944,-1.164,-0.368,1.95
1834.0,-9.549,-3.534,1.944,-1.164,-0.368,1.95
1838.0,-9.669,-3.473,1.9,-1.112,-0.354,1.987
1842.0,-9.669,-3.473,1.9,-1.112,-0.354,1.987
1846.0,-9.669,-3.473,1.9,-1.112,-0.354,1.987
1850.0,-9.774,-3.374,1.82,-1.069,-0.345,2.011
1854.0,-9.774,-3.374,1.82,-1.069,-0.345,2.011
1858.0,-9.898,-3.215,1.707,-1.041,-0.338,2.022
1862.0,-9.898,-3.215,1.707,-1.041,-0.338,2.022
1866.0,-9.898,-3.215,1.707,-1.041,-0.338,2.022
1870.0,-10.049,-3.045,1.501,-1.038,-0.33,2.024
1874.0,-10.049,-3.045,1.501,-1.038,-0.33,2.024
1878.0,-10.115,-2.883,1.244,-1.059,-0.315,2.015
1882.0,-10.115,-2.883,1.244,-1.059,-0.315,2.015
1886.0,-10.111,-2.746,1.028,-1.059,-0.315,2.015
1890.0,-10.111,-2.746,1.028,-1.103,-0.286,1.992
1894.0,-10.111,-2.746,1.028,-1.103,-0.286,1.992
1898.0,-10.12,-2.637,0.87,-1.16,-0.243,1.959
1902.0,-10.12,-2.637,0.87,-1.16,-0.243,1.959
1906.0,-10.28,-2.542,0.778,-1.223,-0.193,1.919
1911.0,-10.28,-2.542,0.778,-1.223,-0.193,1.919
1915.0,-10.28,-2.542,0.778,-1.223,-0.193,1.919
1919.0,-10.642,-2.473,0.681,-1.287,-0.141,1.88
1923.0,-10.642,-2.473,0.681,-1.287,-0.141,1.88
1927.0,-11.127,-2.46,0.565,-1.347,-0.092,1.845
1931.0,-11.127,-2.46,0.565,-1.347,-0.092,1.845
1935.0,-11.127,-2.46,0.565,-1.347,-0.092,1.845
1939.0,-11.586,-2.489,0.482,-1.4,-0.048,1.817
1943.0,-11.586,-2.489,0.482,-1.4,-0.048,1.817
1947.0,-11.918,-2.523,0.449,-1.444,-0.012,1.789
1951.0,-11.918,-2.523,0.449,-1.444,-0.012,1.789
1955.0,-12.039,-2.582,0.497,-1.444,-0.012,1.761
1960.0,-12.039,-2.582,0.497,-1.475,0.013,1.761
1964.0,-12.039,-2.582,0.497,-1.475,0.013,1.761
1968.0,-11.958,-2.582,0.512,-1.494,0.021,1.735
1971.0,-11.958,-2.582,0.512,-1.494,0.021,1.735
1975.0,-11.742,-2.544,0.468,-1.494,0.021,1.705
1979.0,-11.742,-2.544,0.468,-1.507,0.021,1.705
1983.0,-11.742,-2.544,0.468,-1.507,0.021,1.705
1987.0,-11.445,-2.496,0.394,-1.519,0.028,1.675
1991.0,-11.445,-2.496,0.394,-1.519,0.028,1.675
1995.0,-11.185,-2.475,0.363,-1.533,0.044,1.647
1999.0,-11.185,-2.475,0.363,-1.533,0.044,1.647
2003.0,-11.185,-2.475,0.363,-1.533,0.044,1.647
2007.0,-11.009,-2.458,0.337,-1.542,0.064,1.623
2011.0,-11.009,-2.458,0.337,-1.542,0.064,1.623
2015.0,-10.962,-2.48,0.257,-1.548,0.086,1.599
2019.0,-10.962,-2.48,0.257,-1.548,0.086,1.599
2023.0,-10.962,-2.48,0.257,-1.548,0.086,1.599
2027.0,-11.052,-2.494,0.2,-1.548,0.106,1.573
2031.0,-11.052,-2.494,0.2,-1.548,0.106,1.573
2035.0,-11.148,-2.528,0.111,-1.541,0.123,1.547
2039.0,-11.148,-2.528,0.111,-1.541,0.123,1.547
2043.0,-11.148,-2.528,0.111,-1.541,0.123,1.547
2047.0,-11.15,-2.559,0.099,-1.525,0.139,1.522
2051.0,-11.15,-2.559,0.099,-1.525,0.139,1.522
2055.0,-11.14,-2.572,0.13,-1.497,0.152,1.496
2059.0,-11.14,-2.572,0.13,-1.497,0.152,1.496
2063.0,-11.14,-2.572,0.13,-1.497,0.152,1.496
2067.0,-11.152,-2.546,0.093,-1.461,0.162,1.467
2071.0,-11.152,-2.546,0.093,-1.461,0.162,1.467
2075.0,-11.08,-2.508,0.053,-1.425,0.173,1.439
2079.0,-11.08,-2.508,0.053,-1.425,0.173,1.439
2083.0,-11.08,-2.508,0.046,-1.425,0.173,1.439
2087.0,-10.924,-2.501,0.046,-1.392,0.189,1.414
2091.0,-10.924,-2.501,0.046,-1.392,0.189,1.414
2095.0,-10.711,-2.512,0.078,-1.359,0.21,1.396
2099.0,-10.711,-2.512,0.078,-1.359,0.21,1.396
2103.0,-10.621,-2.536,0.102,-1.359,0.21,1.396
2107.0,-10.621,-2.536,0.102,-1.324,0.236,1.383
2111.0,-10.621,-2.536,0.102,-1.324,0.236,1.383
2115.0,-10.625,-2.544,0.107,-1.288,0.264,1.369
2119.0,-10.625,-2.544,0.107,-1.288,0.264,1.369
2123.0,-10.552,-2.52,0.124,-1.288,0.264,1.357
2127.0,-10.552,-2.52,0.124,-1.254,0.287,1.357
2131.0,-10.552,-2.52,0.124,-1.254,0.287,1.357
2135.0,-10.408,-2.468,0.16,-1.227,0.309,1.346
2139.0,-10.408,-2.468,0.16,-1.227,0.309,1.346
2143.0,-10.251,-2.422,0.169,-1.227,0.334,1.337
2147.0,-10.251,-2.422,0.169,-1.21,0.334,1.337
2151.0,-10.251,-2.422,0.169,-1.21,0.334,1.337
2155.0,-10.143,-2.391,0.194,-1.204,0.363,1.329
2159.0,-10.143,-2.391,0.194,-1.204,0.363,1.329
2163.0,-10.106,-2.355,0.206,-1.204,0.391,1.316
2167.0,-10.106,-2.355,0.206,-1.204,0.391,1.316
2171.0,-10.106,-2.355,0.206,-1.204,0.391,1.316
2175.0,-10.14,-2.304,0.219,-1.211,0.416,1.297
2179.0,-10.14,-2.304,0.219,-1.211,0.416,1.297
2183.0,-10.234,-2.227,0.209,-1.225,0.442,1.274
2187.0,-10.234,-2.227,0.209,-1.225,0.442,1.274
2191.0,-10.234,-2.227,0.209,-1.225,0.442,1.274
2195.0,-10.282,-2.215,0.216,-1.245,0.471,1.253
2199.0,-10.282,-2.215,0.216,-1.245,0.471,1.253
2203.0,-10.192,-2.231,0.343,-1.271,0.5,1.237
2207.0,-10.192,-2.231,0.343,-1.271,0.5,1.237
2211.0,-10.192,-2.231,0.343,-1.271,0.5,1.237
2215.0,-10.062,-2.285,0.464,-1.295,0.528,1.221
2219.0,-10.062,-2.285,0.464,-1.295,0.528,1.221
2223.0,-9.831,-2.342,0.631,-1.312,0.555,1.203
2227.0,-9.831,-2.342,0.631,-1.312,0.555,1.203
2231.0,-9.831,-2.342,0.631,-1.312,0.555,1.203
2235.0,-9.637,-2.393,0.765,-1.321,0.578,1.179
2239.0,-9.637,-2.393,0.765,-1.321,0.578,1.179
2243.0,-9.464,-2.423,0.918,-1.319,0.601,1.149
2246.0,-9.464,-2.423,0.918,-1.319,0.601,1.149
2250.0,-9.464,-2.423,0.918,-1.319,0.601,1.149
2254.0,-9.31,-2.439,1.07,-1.306,0.622,1.117
2258.0,-9.31,-2.439,1.07,-1.306,0.622,1.117
2262.0,-9.175,-2.469,1.265,-1.282,0.638,1.085
2266.0,-9.175,-2.469,1.265,-1.282,0.638,1.085
2270.0,-9.175,-2.469,1.265,-1.282,0.638,1.085
2274.0,-9.131,-2.508,1.496,-1.247,0.644,1.055
2278.0,-9.131,-2.508,1.496,-1.247,0.644,1.055
2282.0,-9.194,-2.509,1.665,-1.206,0.635,1.024
2286.0,-9.194,-2.509,1.665,-1.206,0.635,1.024
2289.0,-9.194,-2.509,1.665,-1.206,0.635,1.024
2293.0,-9.248,-2.501,1.756,-1.167,0.612,0.991
2297.0,-9.248,-2.501,1.756,-1.167,0.612,0.991
2301.0,-9.227,-2.503,1.835,-1.167,0.587,0.954
2305.0,-9.227,-2.503,1.835,-1.135,0.587,0.954
2309.0,-9.227,-2.503,1.835,-1.135,0.587,0.954
2313.0,-9.124,-2.526,1.949,-1.111,0.566,0.913
2317.0,-9.124,-2.526,1.949,-1.111,0.566,0.913
2321.0,-9.099,-2.498,2.187,-1.111,0.566,0.865
2325.0,-9.099,-2.498,2.187,-1.088,0.543,0.865
2329.0,-9.099,-2.498,2.187,-1.088,0.543,0.865
2332.0,-9.156,-2.399,2.365,-1.065,0.499,0.808
2336.0,-9.156,-2.399,2.365,-1.065,0.499,0.808
2340.0,-9.181,-2.243,2.436,-1.065,0.499,0.808
2344.0,-9.181,-2.243,2.436,-1.059,0.437,0.743
2348.0,-9.181,-2.243,2.436,-1.059,0.437,0.743
2352.0,-9.147,-2.045,2.499,-1.081,0.369,0.668
2356.0,-9.147,-2.045,2.499,-1.081,0.369,0.668
2360.0,-9.147,-1.863,2.532,-1.081,0.369,0.668
2364.0,-9.084,-1.863,2.532,-1.134,0.301,0.589
2368.0,-9.084,-1.863,2.532,-1.134,0.301,0.589
2371.0,-8.966,-1.71,2.56,-1.215,0.238,0.506
2375.0,-8.966,-1.71,2.56,-1.215,0.238,0.506
2379.0,-8.966,-1.71,2.649,-1.215,0.238,0.506
2383.0,-8.897,-1.563,2.649,-1.317,0.185,0.418
2387.0,-8.897,-1.563,2.649,-1.317,0.185,0.418
2391.0,-8.865,-1.389,2.845,-1.446,0.126,0.323
2395.0,-8.865,-1.389,2.845,-1.446,0.126,0.323
2399.0,-8.865,-1.389,2.845,-1.446,0.126,0.323
2403.0,-8.87,-1.184,3.043,-1.593,0.051,0.22
2407.0,-8.87,-1.184,3.043,-1.593,0.051,0.22
2411.0,-8.921,-0.957,3.072,-1.763,-0.034,0.103
2415.0,-8.921,-0.957,3.072,-1.763,-0.034,0.103
2419.0,-8.921,-0.957,3.072,-1.763,-0.034,0.103
2423.0,-8.802,-0.837,2.85,-1.958,-0.101,-0.021
2427.0,-8.802,-0.837,2.85,-1.958,-0.101,-0.021
2431.0,-8.603,-0.842,2.813,-2.168,-0.11,-0.152
2435.0,-8.603,-0.842,2.813,-2.168,-0.11,-0.152
2439.0,-8.492,-1.036,3.005,-2.168,-0.11,-0.152
2443.0,-8.492,-1.036,3.005,-2.366,-0.083,-0.283
2447.0,-8.492,-1.036,3.005,-2.366,-0.083,-0.283
2451.0,-8.569,-1.324,3.303,-2.518,-0.054,-0.411
2455.0,-8.569,-1.324,3.303,-2.518,-0.054,-0.411
2459.0,-8.871,-1.652,3.614,-2.606,-0.041,-0.538
2463.0,-8.871,-1.652,3.614,-2.606,-0.041,-0.538
2467.0,-8.871,-1.652,3.614,-2.606,-0.041,-0.538
2471.0,-9.243,-2.043,3.822,-2.622,-0.041,-0.661
2476.0,-9.243,-2.043,3.822,-2.622,-0.041,-0.661
2480.0,-9.543,-2.448,4.017,-2.567,-0.044,-0.776
2484.0,-9.543,-2.448,4.017,-2.567,-0.044,-0.776
2488.0,-9.543,-2.448,4.327,-2.567,-0.044,-0.776
2492.0,-9.744,-2.834,4.327,-2.44,-0.046,-0.885
2496.0,-9.744,-2.834,4.327,-2.44,-0.046,-0.885
2500.0,-9.884,-3.165,4.612,-2.229,-0.054,-0.997
2504.0,-9.884,-3.165,4.612,-2.229,-0.054,-0.997
2508.0,-9.853,-3.472,4.819,-2.229,-0.054,-1.114
2512.0,-9.853,-3.472,4.819,-1.957,-0.076,-1.114
2516.0,-9.853,-3.472,4.819,-1.957,-0.076,-1.114
2520.0,-9.747,-3.623,4.868,-1.609,-0.1,-1.244
2525.0,-9.747,-3.623,4.868,-1.609,-0.1,-1.244
2529.0,-9.75,-3.666,4.831,-1.206,-0.108,-1.363
2533.0,-9.75,-3.666,4.831,-1.206,-0.108,-1.363
2537.0,-9.75,-3.666,4.831,-1.206,-0.108,-1.363
2541.0,-9.985,-3.709,4.802,-0.768,-0.091,-1.461
2545.0,-9.985,-3.709,4.802,-0.768,-0.091,-1.461
2549.0,-10.303,-3.784,4.918,-0.294,-0.059,-1.539
2553.0,-10.303,-3.784,4.918,-0.294,-0.059,-1.539
2557.0,-10.574,-3.681,5.235,-0.294,-0.059,-1.539
2562.0,-10.574,-3.681,5.235,0.231,-0.021,-1.612
2566.0,-10.574,-3.681,5.235,0.231,-0.021,-1.612
2570.0,-10.737,-3.334,5.701,0.778,0.003,-1.67
2574.0,-10.737,-3.334,5.701,0.778,0.003,-1.67
2578.0,-10.852,-2.783,6.209,1.356,0.013,-1.727
2582.0,-10.852,-2.783,6.209,1.356,0.013,-1.727
2586.0,-10.852,-2.783,6.209,1.356,0.013,-1.727
2590.0,-11.224,-2.195,6.696,1.934,-0.003,-1.774
2594.0,-11.224,-2.195,6.696,1.934,-0.003,-1.774
2598.0,-12.089,-1.742,6.456,2.487,-0.076,-1.785
2602.0,-12.089,-1.742,6.456,2.487,-0.076,-1.785
2606.0,-12.089,-1.742,6.456,2.487,-0.076,-1.785
2610.0,-12.835,-1.565,5.422,2.941,-0.229,-1.703
2614.0,-12.835,-1.565,5.422,2.941,-0.229,-1.703
2618.0,-12.49,-1.665,4.114,3.236,-0.418,-1.555
2622.0,-12.49,-1.665,4.114,3.236,-0.418,-1.555
2626.0,-11.459,-1.627,3.215,3.236,-0.418,-1.555
2630.0,-11.459,-1.627,3.215,3.383,-0.563,-1.423
2635.0,-11.459,-1.627,3.215,3.383,-0.563,-1.423
2639.0,-10.448,-1.475,2.394,3.403,-0.654,-1.335
2643.0,-10.448,-1.475,2.394,3.403,-0.654,-1.335
2647.0,-9.707,-1.188,1.824,3.305,-0.691,-1.282
2651.0,-9.707,-1.188,1.824,3.305,-0.691,-1.282
2655.0,-9.707,-1.188,1.824,3.305,-0.691,-1.282
2659.0,-9.276,-0.768,1.505,3.107,-0.673,-1.251
2663.0,-9.276,-0.768,1.505,3.107,-0.673,-1.251
2667.0,-9.081,-0.412,1.365,2.827,-0.627,-1.211
2671.0,-9.081,-0.412,1.365,2.827,-0.627,-1.211
2675.0,-9.081,-0.412,1.365,2.827,-0.627,-1.211
2679.0,-8.991,-0.226,1.379,2.508,-0.572,-1.158
2683.0,-8.991,-0.226,1.379,2.508,-0.572,-1.158
2687.0,-8.965,-0.179,1.482,2.19,-0.516,-1.1
2691.0,-8.965,-0.179,1.482,2.19,-0.516,-1.1
2695.0,-8.965,-0.179,1.482,2.19,-0.516,-1.1
2699.0,-9.057,-0.239,1.676,1.901,-0.469,-1.034
2703.0,-9.057,-0.239,1.676,1.901,-0.469,-1.034
2707.0,-9.232,-0.407,1.829,1.659,-0.437,-0.967
2711.0,-9.232,-0.407,1.829,1.659,-0.437,-0.967
2715.0,-9.232,-0.407,1.829,1.659,-0.437,-0.967
2719.0,-9.419,-0.626,1.902,1.471,-0.425,-0.903
2723.0,-9.419,-0.626,1.902,1.471,-0.425,-0.903
2727.0,-9.584,-0.836,1.926,1.336,-0.431,-0.846
2731.0,-9.584,-0.836,1.926,1.336,-0.431,-0.846
2735.0,-9.584,-0.836,1.861,1.336,-0.431,-0.846
2739.0,-9.778,-0.988,1.861,1.246,-0.444,-0.795
2743.0,-9.778,-0.988,1.861,1.246,-0.444,-0.795
2747.0,-9.977,-1.125,1.752,1.185,-0.451,-0.744
2751.0,-9.977,-1.125,1.752,1.185,-0.451,-0.744
2755.0,-9.977,-1.287,1.626,1.185,-0.451,-0.744
2759.0,-10.178,-1.287,1.626,1.143,-0.446,-0.686
2763.0,-10.178,-1.287,1.626,1.143,-0.446,-0.686
2767.0,-10.351,-1.517,1.512,1.114,-0.43,-0.621
2771.0,-10.351,-1.517,1.512,1.114,-0.43,-0.621
2775.0,-10.456,-1.742,1.412,1.114,-0.415,-0.561
2779.0,-10.456,-1.742,1.412,1.094,-0.415,-0.561
2783.0,-10.456,-1.742,1.412,1.094,-0.415,-0.561
2787.0,-10.528,-1.92,1.309,1.08,-0.404,-0.512
2791.0,-10.528,-1.92,1.309,1.08,-0.404,-0.512
2795.0,-10.628,-2.014,1.236,1.069,-0.396,-0.476
2799.0,-10.628,-2.014,1.236,1.069,-0.396,-0.476
2803.0,-10.628,-2.014,1.236,1.069,-0.396,-0.476
2808.0,-10.604,-2.122,1.234,1.067,-0.392,-0.449
2812.0,-10.604,-2.122,1.234,1.067,-0.392,-0.449
2816.0,-10.306,-2.043,1.223,1.083,-0.402,-0.434
2820.0,-10.306,-2.043,1.223,1.083,-0.402,-0.434
2824.0,-9.957,-1.845,1.236,1.083,-0.402,-0.434
2828.0,-9.957,-1.845,1.236,1.092,-0.43,-0.443
2832.0,-9.957,-1.845,1.236,1.092,-0.43,-0.443
2836.0,-9.829,-1.573,1.137,1.081,-0.468,-0.471
2840.0,-9.829,-1.573,1.137,1.081,-0.468,-0.471
2844.0,-9.892,-1.277,0.896,1.081,-0.468,-0.511
2848.0,-9.892,-1.277,0.896,1.038,-0.494,-0.511
2852.0,-9.892,-1.277,0.896,1.038,-0.494,-0.511
2856.0,-9.958,-1.014,0.677,0.957,-0.492,-0.554
2860.0,-9.958,-1.014,0.677,0.957,-0.492,-0.554
2864.0,-9.843,-0.819,0.622,0.957,-0.463,-0.595
2868.0,-9.843,-0.819,0.622,0.838,-0.463,-0.595
2872.0,-9.843,-0.819,0.622,0.838,-0.463,-0.595
2876.0,-9.644,-0.736,0.663,0.698,-0.421,-0.634
2880.0,-9.644,-0.736,0.663,0.698,-0.421,-0.634
2884.0,-9.473,-0.736,0.733,0.553,-0.374,-0.676
2888.0,-9.473,-0.736,0.733,0.553,-0.374,-0.676
2892.0,-9.473,-0.736,0.733,0.553,-0.374,-0.676
2896.0,-9.368,-0.779,0.794,0.41,-0.324,-0.715
2900.0,-9.368,-0.779,0.794,0.41,-0.324,-0.715
2904.0,-9.363,-0.882,0.845,0.278,-0.266,-0.746
2908.0,-9.363,-0.882,0.845,0.278,-0.266,-0.746
2912.0,-9.363,-0.882,0.845,0.278,-0.266,-0.746
2916.0,-9.408,-1.029,0.881,0.16,-0.199,-0.756
2920.0,-9.408,-1.029,0.881,0.16,-0.199,-0.756
2924.0,-9.497,-1.191,0.934,0.062,-0.124,-0.748
2928.0,-9.497,-1.191,0.934,0.062,-0.124,-0.748
2932.0,-9.497,-1.191,0.934,0.062,-0.124,-0.748
2936.0,-9.631,-1.376,0.984,-0.016,-0.046,-0.724
2940.0,-9.631,-1.376,0.984,-0.016,-0.046,-0.724
2944.0,-9.767,-1.586,1.05,-0.07,0.03,-0.687
2948.0,-9.767,-1.586,1.05,-0.07,0.03,-0.687
2952.0,-9.767,-1.586,1.092,-0.07,0.03,-0.687
2956.0,-9.945,-1.79,1.092,-0.099,0.104,-0.638
2960.0,-9.945,-1.79,1.092,-0.099,0.104,-0.638
2964.0,-10.01,-1.981,1.171,-0.099,0.171,-0.581
2968.0,-10.01,-1.981,1.171,-0.099,0.171,-0.581
2972.0,-9.976,-2.177,1.27,-0.099,0.171,-0.581
2976.0,-9.976,-2.177,1.27,-0.07,0.227,-0.519
2980.0,-9.976,-2.177,1.27,-0.07,0.227,-0.519
2984.0,-9.86,-2.308,1.34,-0.012,0.269,-0.457
2988.0,-9.86,-2.308,1.34,-0.012,0.269,-0.457
2992.0,-9.741,-2.413,1.384,-0.012,0.269,-0.398
2996.0,-9.741,-2.413,1.384,0.073,0.302,-0.398
3000.0,-9.741,-2.413,1.384,0.073,0.302,-0.398
