deltaTime,Acc_X,Acc_Y,Acc_Z,Gyro_X,Gyro_Y,Gyro_Z
0.0,-10.732,-0.454,5.274,2.107,-0.817,-0.627
3.0,-10.732,-0.454,5.274,2.107,-0.817,-0.627
6.0,-10.744,0.613,5.0,2.107,-0.817,-0.627
9.0,-10.744,0.613,5.0,1.891,-0.885,-0.622
12.0,-10.744,0.613,5.0,1.891,-0.885,-0.622
15.0,-10.744,0.613,5.0,1.891,-0.885,-0.622
18.0,-11.442,1.507,4.522,1.426,-0.888,-0.65
21.0,-11.442,1.507,4.522,1.426,-0.888,-0.65
24.0,-11.442,1.507,4.522,1.426,-0.888,-0.65
27.0,-12.641,1.894,4.645,0.81,-0.901,-0.692
30.0,-12.641,1.894,4.645,0.81,-0.901,-0.692
34.0,-12.641,1.894,4.645,0.81,-0.901,-0.692
37.0,-13.583,1.835,5.285,0.161,-0.883,-0.693
41.0,-13.583,1.835,5.285,0.161,-0.883,-0.693
45.0,-13.583,1.835,5.285,0.161,-0.883,-0.693
49.0,-14.63,0.94,6.255,-0.397,-0.836,-0.629
53.0,-14.63,0.94,6.255,-0.397,-0.836,-0.629
57.0,-15.246,-0.032,7.112,-0.735,-0.805,-0.528
61.0,-15.246,-0.032,7.112,-0.735,-0.805,-0.528
65.0,-15.246,-0.032,7.112,-0.735,-0.805,-0.528
69.0,-15.124,-0.459,7.431,-0.886,-0.814,-0.445
73.0,-15.124,-0.459,7.431,-0.886,-0.814,-0.445
77.0,-14.636,-0.815,7.531,-0.979,-0.837,-0.428
81.0,-14.636,-0.815,7.531,-0.979,-0.837,-0.428
85.0,-14.636,-0.815,7.531,-0.979,-0.837,-0.428
89.0,-14.715,-1.548,7.563,-1.016,-0.831,-0.438
93.0,-14.715,-1.548,7.563,-1.016,-0.831,-0.438
97.0,-14.758,-2.03,7.285,-0.946,-0.789,-0.437
101.0,-14.758,-2.03,7.285,-0.946,-0.789,-0.437
105.0,-14.758,-2.337,6.934,-0.946,-0.789,-0.437
109.0,-14.448,-2.337,6.934,-0.805,-0.731,-0.435
113.0,-14.448,-2.337,6.934,-0.805,-0.731,-0.435
117.0,-14.222,-2.506,6.629,-0.618,-0.65,-0.426
121.0,-14.222,-2.506,6.629,-0.618,-0.65,-0.426
125.0,-14.192,-2.402,6.389,-0.618,-0.545,-0.414
129.0,-14.192,-2.402,6.389,-0.431,-0.545,-0.414
133.0,-14.192,-2.402,6.389,-0.431,-0.545,-0.414
137.0,-13.57,-2.137,6.364,-0.298,-0.427,-0.41
141.0,-13.57,-2.137,6.364,-0.298,-0.427,-0.41
146.0,-12.884,-2.444,6.496,-0.2,-0.315,-0.388
150.0,-12.884,-2.444,6.496,-0.2,-0.315,-0.388
154.0,-12.884,-2.444,6.496,-0.2,-0.315,-0.388
158.0,-12.799,-3.115,6.416,-0.03,-0.222,-0.323
162.0,-12.799,-3.115,6.416,-0.03,-0.222,-0.323
166.0,-12.625,-3.785,6.222,0.25,-0.137,-0.217
170.0,-12.625,-3.785,6.222,0.25,-0.137,-0.217
174.0,-12.258,-3.916,5.624,0.25,-0.137,-0.217
178.0,-12.258,-3.916,5.624,0.598,-0.081,-0.12
182.0,-12.258,-3.916,5.624,0.598,-0.081,-0.12
186.0,-12.528,-3.953,5.167,0.897,-0.089,-0.076
190.0,-12.528,-3.953,5.167,0.897,-0.089,-0.076
194.0,-12.678,-3.781,4.919,0.897,-0.089,-0.018
198.0,-12.678,-3.781,4.919,1.089,-0.127,-0.018
202.0,-12.678,-3.781,4.919,1.089,-0.127,-0.018
206.0,-12.294,-3.456,4.686,1.174,-0.167,0.045
210.0,-12.294,-3.456,4.686,1.174,-0.167,0.045
214.0,-12.001,-3.149,4.504,1.174,-0.167,0.089
218.0,-12.001,-3.149,4.504,1.163,-0.223,0.089
221.0,-12.001,-3.149,4.504,1.163,-0.223,0.089
225.0,-11.568,-2.967,4.051,1.077,-0.278,0.11
229.0,-11.568,-2.967,4.051,1.077,-0.278,0.11
233.0,-11.181,-3.069,3.567,1.077,-0.278,0.11
237.0,-11.181,-3.069,3.567,0.944,-0.303,0.159
241.0,-11.181,-3.069,3.567,0.944,-0.303,0.159
245.0,-10.984,-3.187,3.273,0.795,-0.296,0.255
249.0,-10.984,-3.187,3.273,0.795,-0.296,0.255
253.0,-10.984,-3.328,3.111,0.795,-0.296,0.255
257.0,-10.895,-3.328,3.111,0.641,-0.278,0.384
261.0,-10.895,-3.328,3.111,0.641,-0.278,0.384
264.0,-10.959,-3.421,3.056,0.476,-0.258,0.522
268.0,-10.959,-3.421,3.056,0.476,-0.258,0.522
272.0,-10.959,-3.421,3.166,0.476,-0.258,0.522
276.0,-11.003,-3.739,3.166,0.31,-0.24,0.659
280.0,-11.003,-3.739,3.166,0.31,-0.24,0.659
284.0,-10.953,-4.038,3.311,0.167,-0.231,0.806
288.0,-10.953,-4.038,3.311,0.167,-0.231,0.806
292.0,-10.953,-4.038,3.311,0.167,-0.231,0.806
296.0,-10.877,-4.408,3.526,0.043,-0.236,0.956
300.0,-10.877,-4.408,3.526,0.043,-0.236,0.956
304.0,-10.716,-4.723,3.606,-0.06,-0.258,1.098
307.0,-10.716,-4.723,3.606,-0.06,-0.258,1.098
311.0,-10.716,-4.723,3.606,-0.06,-0.258,1.098
315.0,-10.536,-4.979,3.639,-0.143,-0.293,1.216
319.0,-10.536,-4.979,3.639,-0.143,-0.293,1.216
323.0,-10.362,-5.14,3.592,-0.222,-0.333,1.301
327.0,-10.362,-5.14,3.592,-0.222,-0.333,1.301
331.0,-10.362,-5.14,3.592,-0.222,-0.333,1.301
335.0,-10.063,-5.124,3.366,-0.306,-0.369,1.354
339.0,-10.063,-5.124,3.366,-0.306,-0.369,1.354
343.0,-9.603,-5.0,3.132,-0.409,-0.384,1.378
347.0,-9.603,-5.0,3.132,-0.409,-0.384,1.378
351.0,-9.603,-5.0,2.999,-0.409,-0.384,1.378
355.0,-9.179,-4.802,2.999,-0.539,-0.363,1.378
359.0,-9.179,-4.802,2.999,-0.539,-0.363,1.378
363.0,-8.719,-4.539,2.847,-0.698,-0.317,1.354
367.0,-8.719,-4.539,2.847,-0.698,-0.317,1.354
371.0,-8.719,-4.539,2.847,-0.698,-0.317,1.354
375.0,-8.251,-4.3,2.771,-0.879,-0.256,1.305
379.0,-8.251,-4.3,2.771,-0.879,-0.256,1.305
382.0,-7.841,-4.092,2.785,-1.07,-0.189,1.229
386.0,-7.841,-4.092,2.785,-1.07,-0.189,1.229
390.0,-7.841,-4.092,2.785,-1.07,-0.189,1.229
394.0,-7.515,-3.873,2.76,-1.256,-0.121,1.133
398.0,-7.515,-3.873,2.76,-1.256,-0.121,1.133
402.0,-7.179,-3.617,2.704,-1.428,-0.059,1.027
406.0,-7.179,-3.617,2.704,-1.428,-0.059,1.027
410.0,-7.179,-3.617,2.704,-1.428,-0.059,1.027
414.0,-6.76,-3.373,2.623,-1.581,-0.007,0.918
418.0,-6.76,-3.373,2.623,-1.581,-0.007,0.918
422.0,-6.374,-3.227,2.605,-1.708,0.042,0.815
425.0,-6.374,-3.227,2.605,-1.708,0.042,0.815
429.0,-6.374,-3.227,2.605,-1.708,0.042,0.815
433.0,-6.096,-3.124,2.593,-1.803,0.095,0.722
437.0,-6.096,-3.124,2.593,-1.803,0.095,0.722
441.0,-5.825,-3.007,2.476,-1.803,0.095,0.65
444.0,-5.825,-3.007,2.476,-1.869,0.15,0.65
448.0,-5.825,-3.007,2.476,-1.869,0.15,0.65
452.0,-5.578,-2.975,2.426,-1.907,0.209,0.603
456.0,-5.578,-2.975,2.426,-1.907,0.209,0.603
460.0,-5.578,-2.975,2.426,-1.907,0.209,0.603
464.0,-5.395,-2.968,2.316,-1.924,0.266,0.57
467.0,-5.395,-2.968,2.316,-1.924,0.266,0.57
471.0,-5.258,-2.961,2.168,-1.924,0.327,0.548
475.0,-5.258,-2.961,2.168,-1.924,0.327,0.548
479.0,-5.258,-2.961,2.168,-1.924,0.327,0.548
483.0,-5.176,-2.971,2.045,-1.91,0.392,0.537
486.0,-5.176,-2.971,2.045,-1.91,0.392,0.537
490.0,-5.136,-2.98,1.939,-1.91,0.458,0.531
494.0,-5.136,-2.98,1.939,-1.886,0.458,0.531
498.0,-5.136,-2.98,1.939,-1.886,0.458,0.531
502.0,-5.09,-2.972,1.822,-1.852,0.52,0.525
506.0,-5.09,-2.972,1.822,-1.852,0.52,0.525
509.0,-5.09,-2.95,1.746,-1.852,0.52,0.525
513.0,-5.035,-2.95,1.746,-1.811,0.572,0.516
517.0,-5.035,-2.95,1.746,-1.811,0.572,0.516
521.0,-4.971,-2.931,1.676,-1.766,0.616,0.503
525.0,-4.971,-2.931,1.676,-1.766,0.616,0.503
529.0,-4.971,-2.931,1.676,-1.766,0.616,0.503
532.0,-4.92,-2.896,1.609,-1.714,0.65,0.488
536.0,-4.92,-2.896,1.609,-1.714,0.65,0.488
540.0,-4.863,-2.828,1.559,-1.656,0.68,0.474
544.0,-4.863,-2.828,1.559,-1.656,0.68,0.474
548.0,-4.863,-2.828,1.559,-1.656,0.68,0.474
551.0,-4.804,-2.764,1.513,-1.59,0.704,0.466
555.0,-4.804,-2.764,1.513,-1.59,0.704,0.466
559.0,-4.749,-2.715,1.459,-1.59,0.704,0.466
563.0,-4.749,-2.715,1.459,-1.514,0.724,0.464
567.0,-4.749,-2.715,1.459,-1.514,0.724,0.464
571.0,-4.726,-2.658,1.394,-1.425,0.742,0.469
574.0,-4.726,-2.658,1.394,-1.425,0.742,0.469
578.0,-4.726,-2.658,1.394,-1.425,0.742,0.469
582.0,-4.735,-2.6,1.33,-1.325,0.763,0.482
586.0,-4.735,-2.6,1.33,-1.325,0.763,0.482
590.0,-4.786,-2.548,1.286,-1.216,0.787,0.507
593.0,-4.786,-2.548,1.286,-1.216,0.787,0.507
597.0,-4.786,-2.548,1.286,-1.216,0.787,0.507
601.0,-4.889,-2.519,1.231,-1.097,0.811,0.538
605.0,-4.889,-2.519,1.231,-1.097,0.811,0.538
609.0,-4.998,-2.508,1.205,-1.097,0.835,0.576
613.0,-4.998,-2.508,1.205,-0.968,0.835,0.576
616.0,-4.998,-2.508,1.205,-0.968,0.835,0.576
620.0,-5.077,-2.505,1.202,-0.829,0.854,0.616
624.0,-5.077,-2.505,1.202,-0.829,0.854,0.616
628.0,-5.077,-2.505,1.21,-0.829,0.854,0.616
632.0,-5.175,-2.495,1.21,-0.681,0.866,0.657
635.0,-5.175,-2.495,1.21,-0.681,0.866,0.657
639.0,-5.331,-2.498,1.169,-0.526,0.875,0.698
643.0,-5.331,-2.498,1.169,-0.526,0.875,0.698
647.0,-5.331,-2.498,1.169,-0.526,0.875,0.698
651.0,-5.57,-2.486,1.085,-0.37,0.884,0.744
655.0,-5.57,-2.486,1.085,-0.37,0.884,0.744
658.0,-5.917,-2.46,0.979,-0.216,0.901,0.798
662.0,-5.917,-2.46,0.979,-0.216,0.901,0.798
666.0,-5.917,-2.46,0.979,-0.216,0.901,0.798
670.0,-6.412,-2.444,0.861,-0.071,0.93,0.866
674.0,-6.412,-2.444,0.861,-0.071,0.93,0.866
677.0,-7.13,-2.428,0.726,-0.071,0.93,0.866
681.0,-7.13,-2.428,0.726,0.063,0.981,0.951
685.0,-7.13,-2.428,0.726,0.063,0.981,0.951
689.0,-8.108,-2.464,0.635,0.184,1.058,1.056
692.0,-8.108,-2.464,0.635,0.184,1.058,1.056
696.0,-8.108,-2.464,0.635,0.184,1.058,1.056
700.0,-9.348,-2.527,0.652,0.296,1.15,1.182
704.0,-9.348,-2.527,0.652,0.296,1.15,1.182
707.0,-10.775,-2.639,0.779,0.296,1.239,1.325
711.0,-10.775,-2.639,0.779,0.401,1.239,1.325
715.0,-10.775,-2.639,0.779,0.401,1.239,1.325
719.0,-12.323,-2.802,1.029,0.502,1.305,1.482
723.0,-12.323,-2.802,1.029,0.502,1.305,1.482
727.0,-12.323,-2.802,1.347,0.502,1.305,1.482
730.0,-13.745,-3.007,1.347,0.609,1.328,1.637
734.0,-13.745,-3.007,1.347,0.609,1.328,1.637
738.0,-14.667,-3.19,1.721,0.724,1.293,1.779
742.0,-14.667,-3.19,1.721,0.724,1.293,1.779
746.0,-14.667,-3.19,1.721,0.724,1.293,1.779
749.0,-15.062,-3.284,1.987,0.848,1.203,1.887
753.0,-15.062,-3.284,1.987,0.848,1.203,1.887
757.0,-15.189,-3.258,2.003,0.974,1.09,1.944
761.0,-15.189,-3.258,2.003,0.974,1.09,1.944
765.0,-15.189,-3.258,2.003,0.974,1.09,1.944
769.0,-15.522,-3.087,1.842,1.097,0.984,1.94
772.0,-15.522,-3.087,1.842,1.097,0.984,1.94
776.0,-15.882,-2.698,1.49,1.097,0.984,1.94
780.0,-15.882,-2.698,1.49,1.204,0.891,1.888
784.0,-15.882,-2.698,1.49,1.204,0.891,1.888
788.0,-16.015,-2.174,1.099,1.277,0.813,1.805
791.0,-16.015,-2.174,1.099,1.277,0.813,1.805
795.0,-16.015,-2.174,1.099,1.277,0.813,1.805
799.0,-16.216,-1.6,0.75,1.301,0.755,1.696
803.0,-16.216,-1.6,0.75,1.301,0.755,1.696
807.0,-16.775,-1.03,0.419,1.279,0.729,1.568
811.0,-16.775,-1.03,0.419,1.279,0.729,1.568
814.0,-16.775,-1.03,0.419,1.279,0.729,1.568
818.0,-17.725,-0.485,0.151,1.215,0.727,1.432
822.0,-17.725,-0.485,0.151,1.215,0.727,1.432
826.0,-18.936,-0.022,0.056,1.215,0.727,1.303
830.0,-18.936,-0.022,0.056,1.118,0.735,1.303
833.0,-18.936,-0.022,0.056,1.118,0.735,1.303
837.0,-19.594,0.316,0.078,0.995,0.729,1.187
841.0,-19.594,0.316,0.078,0.995,0.729,1.187
845.0,-19.594,0.316,0.078,0.995,0.729,1.187
848.0,-19.6,0.511,0.139,0.847,0.689,1.088
852.0,-19.6,0.511,0.139,0.847,0.689,1.088
856.0,-19.327,0.627,0.323,0.671,0.617,0.995
860.0,-19.327,0.627,0.323,0.671,0.617,0.995
863.0,-19.327,0.627,0.323,0.671,0.617,0.995
867.0,-17.291,0.638,0.547,0.463,0.518,0.887
871.0,-17.291,0.638,0.547,0.463,0.518,0.887
875.0,-17.291,0.638,0.64,0.463,0.518,0.887
878.0,-15.202,0.64,0.64,0.231,0.432,0.753
882.0,-15.202,0.64,0.64,0.231,0.432,0.753
886.0,-13.638,0.705,0.744,-0.021,0.398,0.603
890.0,-13.638,0.705,0.744,-0.021,0.398,0.603
893.0,-13.638,0.705,0.744,-0.021,0.398,0.603
897.0,-12.371,0.773,0.93,-0.284,0.404,0.465
901.0,-12.371,0.773,0.93,-0.284,0.404,0.465
905.0,-11.415,0.811,1.185,-0.284,0.425,0.369
909.0,-11.415,0.811,1.185,-0.556,0.425,0.369
913.0,-11.415,0.811,1.185,-0.556,0.425,0.369
916.0,-10.844,0.771,1.461,-0.829,0.456,0.332
920.0,-10.844,0.771,1.461,-0.829,0.456,0.332
924.0,-10.844,0.598,1.587,-0.829,0.456,0.332
928.0,-10.929,0.598,1.587,-1.097,0.496,0.353
932.0,-10.929,0.598,1.587,-1.097,0.496,0.353
935.0,-11.283,0.31,1.461,-1.356,0.548,0.425
939.0,-11.283,0.31,1.461,-1.356,0.548,0.425
943.0,-11.283,0.31,1.461,-1.356,0.548,0.425
947.0,-11.145,0.005,1.439,-1.61,0.59,0.544
951.0,-11.145,0.005,1.439,-1.61,0.59,0.544
955.0,-10.476,-0.332,1.581,-1.852,0.597,0.688
958.0,-10.476,-0.332,1.581,-1.852,0.597,0.688
962.0,-10.476,-0.332,1.581,-1.852,0.597,0.688
966.0,-9.488,-0.705,1.735,-2.06,0.564,0.815
970.0,-9.488,-0.705,1.735,-2.06,0.564,0.815
974.0,-8.582,-1.106,1.807,-2.06,0.564,0.896
978.0,-8.582,-1.106,1.807,-2.215,0.48,0.896
982.0,-8.582,-1.106,1.807,-2.215,0.48,0.896
985.0,-8.096,-1.419,1.542,-2.316,0.35,0.92
989.0,-8.096,-1.419,1.542,-2.316,0.35,0.92
993.0,-8.096,-1.419,0.959,-2.316,0.35,0.92
997.0,-8.053,-1.597,0.959,-2.37,0.208,0.884
1001.0,-8.053,-1.597,0.959,-2.37,0.208,0.884
1005.0,-8.387,-1.558,0.379,-2.386,0.084,0.818
1008.0,-8.387,-1.558,0.379,-2.386,0.084,0.818
1012.0,-8.387,-1.558,0.379,-2.386,0.084,0.818
1016.0,-8.883,-1.411,-0.084,-2.377,-0.021,0.769
1020.0,-8.883,-1.411,-0.084,-2.377,-0.021,0.769
1024.0,-9.186,-1.279,-0.355,-2.359,-0.115,0.773
1028.0,-9.186,-1.279,-0.355,-2.359,-0.115,0.773
1033.0,-9.186,-1.293,-0.434,-2.359,-0.115,0.773
1037.0,-9.041,-1.293,-0.434,-2.333,-0.203,0.827
1041.0,-9.041,-1.293,-0.434,-2.333,-0.203,0.827
1045.0,-8.462,-1.421,-0.328,-2.291,-0.29,0.892
1049.0,-8.462,-1.421,-0.328,-2.291,-0.29,0.892
1053.0,-7.847,-1.539,-0.268,-2.291,-0.371,0.929
1057.0,-7.847,-1.539,-0.268,-2.228,-0.371,0.929
1061.0,-7.847,-1.539,-0.268,-2.228,-0.371,0.929
1065.0,-7.335,-1.618,-0.221,-2.147,-0.431,0.923
1069.0,-7.335,-1.618,-0.221,-2.147,-0.431,0.923
1073.0,-6.778,-1.648,-0.166,-2.061,-0.474,0.887
1077.0,-6.778,-1.648,-0.166,-2.061,-0.474,0.887
1082.0,-6.778,-1.648,-0.166,-2.061,-0.474,0.887
1086.0,-6.346,-1.621,-0.12,-1.982,-0.498,0.837
1090.0,-6.346,-1.621,-0.12,-1.982,-0.498,0.837
1094.0,-6.116,-1.605,-0.019,-1.919,-0.493,0.789
1098.0,-6.116,-1.605,-0.019,-1.919,-0.493,0.789
1102.0,-5.981,-1.576,0.103,-1.919,-0.493,0.789
1106.0,-5.981,-1.576,0.103,-1.874,-0.466,0.747
1110.0,-5.981,-1.576,0.103,-1.874,-0.466,0.747
1114.0,-5.822,-1.564,0.236,-1.848,-0.435,0.705
1118.0,-5.822,-1.564,0.236,-1.848,-0.435,0.705
1122.0,-5.649,-1.583,0.367,-1.848,-0.435,0.651
1126.0,-5.649,-1.583,0.367,-1.835,-0.414,0.651
1130.0,-5.649,-1.583,0.367,-1.835,-0.414,0.651
1134.0,-5.413,-1.604,0.478,-1.828,-0.41,0.575
1138.0,-5.413,-1.604,0.478,-1.828,-0.41,0.575
1142.0,-5.066,-1.603,0.528,-1.828,-0.42,0.473
1146.0,-5.066,-1.603,0.528,-1.818,-0.42,0.473
1150.0,-5.066,-1.603,0.528,-1.818,-0.42,0.473
1154.0,-4.687,-1.56,0.562,-1.804,-0.436,0.351
1158.0,-4.687,-1.56,0.562,-1.804,-0.436,0.351
1162.0,-4.33,-1.488,0.562,-1.783,-0.444,0.224
1166.0,-4.33,-1.488,0.562,-1.783,-0.444,0.224
1170.0,-4.33,-1.488,0.562,-1.783,-0.444,0.224
1174.0,-4.013,-1.382,0.557,-1.757,-0.436,0.099
1178.0,-4.013,-1.382,0.557,-1.757,-0.436,0.099
1182.0,-3.793,-1.265,0.604,-1.728,-0.416,-0.022
1186.0,-3.793,-1.265,0.604,-1.728,-0.416,-0.022
1190.0,-3.793,-1.265,0.604,-1.728,-0.416,-0.022
1194.0,-3.669,-1.119,0.64,-1.699,-0.393,-0.134
1198.0,-3.669,-1.119,0.64,-1.699,-0.393,-0.134
1202.0,-3.633,-0.988,0.701,-1.672,-0.372,-0.241
1206.0,-3.633,-0.988,0.701,-1.672,-0.372,-0.241
1210.0,-3.633,-0.835,0.787,-1.672,-0.372,-0.241
1214.0,-3.668,-0.835,0.787,-1.649,-0.358,-0.338
1219.0,-3.668,-0.835,0.787,-1.649,-0.358,-0.338
1223.0,-3.813,-0.694,0.91,-1.633,-0.355,-0.425
1227.0,-3.813,-0.694,0.91,-1.633,-0.355,-0.425
1231.0,-4.027,-0.616,1.094,-1.623,-0.366,-0.493
1235.0,-4.027,-0.616,1.094,-1.623,-0.366,-0.493
1239.0,-4.027,-0.616,1.094,-1.623,-0.366,-0.493
1243.0,-4.138,-0.558,1.278,-1.616,-0.388,-0.538
1247.0,-4.138,-0.558,1.278,-1.616,-0.388,-0.538
1251.0,-4.167,-0.499,1.597,-1.615,-0.421,-0.573
1255.0,-4.167,-0.499,1.597,-1.615,-0.421,-0.573
1259.0,-4.167,-0.499,1.597,-1.615,-0.421,-0.573
1263.0,-4.171,-0.452,2.077,-1.615,-0.464,-0.61
1267.0,-4.171,-0.452,2.077,-1.615,-0.464,-0.61
1272.0,-4.257,-0.373,2.755,-1.6,-0.512,-0.654
1276.0,-4.257,-0.373,2.755,-1.6,-0.512,-0.654
1280.0,-4.403,-0.246,3.632,-1.6,-0.512,-0.654
1284.0,-4.403,-0.246,3.632,-1.547,-0.576,-0.705
1288.0,-4.403,-0.246,3.632,-1.547,-0.576,-0.705
1292.0,-4.549,-0.135,4.576,-1.44,-0.674,-0.751
1296.0,-4.549,-0.135,4.576,-1.44,-0.674,-0.751
1300.0,-4.763,-0.036,5.307,-1.272,-0.797,-0.79
1304.0,-4.763,-0.036,5.307,-1.272,-0.797,-0.79
1308.0,-4.763,-0.036,5.307,-1.272,-0.797,-0.79
1312.0,-5.131,0.056,5.647,-1.05,-0.912,-0.822
1316.0,-5.131,0.056,5.647,-1.05,-0.912,-0.822
1320.0,-5.787,0.145,5.524,-0.795,-0.982,-0.851
1324.0,-5.787,0.145,5.524,-0.795,-0.982,-0.851
1328.0,-5.787,0.145,5.524,-0.795,-0.982,-0.851
1332.0,-6.465,0.263,4.945,-0.54,-0.962,-0.88
1336.0,-6.465,0.263,4.945,-0.54,-0.962,-0.88
1340.0,-7.135,0.554,4.798,-0.307,-0.819,-0.932
1344.0,-7.135,0.554,4.798,-0.307,-0.819,-0.932
1348.0,-7.135,0.554,5.264,-0.307,-0.819,-0.932
1352.0,-7.604,0.935,5.264,-0.093,-0.596,-1.001
1356.0,-7.604,0.935,5.264,-0.093,-0.596,-1.001
1360.0,-8.057,1.363,6.257,0.111,-0.385,-1.072
1364.0,-8.057,1.363,6.257,0.111,-0.385,-1.072
1368.0,-8.057,1.363,7.178,0.111,-0.385,-1.072
1372.0,-8.579,1.746,7.178,0.31,-0.265,-1.13
1376.0,-8.579,1.746,7.178,0.31,-0.265,-1.13
1380.0,-9.204,2.0,7.464,0.506,-0.244,-1.165
1384.0,-9.204,2.0,7.464,0.506,-0.244,-1.165
1388.0,-9.204,2.0,7.464,0.506,-0.244,-1.165
1392.0,-9.834,2.277,7.358,0.68,-0.255,-1.179
1395.0,-9.834,2.277,7.358,0.68,-0.255,-1.179
1399.0,-10.468,2.52,7.15,0.813,-0.248,-1.178
1403.0,-10.468,2.52,7.15,0.813,-0.248,-1.178
1407.0,-10.468,2.52,7.15,0.813,-0.248,-1.178
1411.0,-11.155,2.669,6.992,0.897,-0.202,-1.153
1415.0,-11.155,2.669,6.992,0.897,-0.202,-1.153
1419.0,-11.92,2.707,6.818,0.943,-0.116,-1.092
1423.0,-11.92,2.707,6.818,0.943,-0.116,-1.092
1427.0,-11.92,2.707,6.712,0.943,-0.116,-1.092
1431.0,-12.733,2.719,6.712,0.959,0.005,-0.996
1435.0,-12.733,2.719,6.712,0.959,0.005,-0.996
1439.0,-13.561,2.678,6.554,0.948,0.148,-0.865
1443.0,-13.561,2.678,6.554,0.948,0.148,-0.865
1447.0,-13.561,2.678,6.554,0.948,0.148,-0.865
1451.0,-14.334,2.641,6.428,0.905,0.298,-0.713
1455.0,-14.334,2.641,6.428,0.905,0.298,-0.713
1459.0,-14.891,2.478,6.068,0.823,0.442,-0.558
1463.0,-14.891,2.478,6.068,0.823,0.442,-0.558
1466.0,-14.891,2.478,6.068,0.823,0.442,-0.558
1470.0,-15.558,2.236,5.575,0.699,0.595,-0.428
1474.0,-15.558,2.236,5.575,0.699,0.595,-0.428
1478.0,-16.285,2.065,5.11,0.539,0.787,-0.337
1482.0,-16.285,2.065,5.11,0.539,0.787,-0.337
1486.0,-16.285,2.065,5.11,0.539,0.787,-0.337
1490.0,-16.292,1.935,4.923,0.354,0.995,-0.273
1494.0,-16.292,1.935,4.923,0.354,0.995,-0.273
1498.0,-15.292,1.665,4.899,0.167,1.172,-0.224
1502.0,-15.292,1.665,4.899,0.167,1.172,-0.224
1505.0,-15.292,1.665,4.899,0.167,1.172,-0.224
1509.0,-13.687,1.35,4.905,0.017,1.285,-0.204
1513.0,-13.687,1.35,4.905,0.017,1.285,-0.204
1517.0,-12.887,1.124,4.733,-0.074,1.34,-0.227
1521.0,-12.887,1.124,4.733,-0.074,1.34,-0.227
1525.0,-12.887,1.124,4.733,-0.074,1.34,-0.227
1529.0,-13.589,0.925,4.262,-0.107,1.376,-0.273
1533.0,-13.589,0.925,4.262,-0.107,1.376,-0.273
1537.0,-14.975,0.757,3.484,-0.103,1.422,-0.296
1541.0,-14.975,0.757,3.484,-0.103,1.422,-0.296
1545.0,-14.975,0.757,3.484,-0.103,1.422,-0.296
1549.0,-15.827,0.642,2.937,-0.096,1.471,-0.244
1553.0,-15.827,0.642,2.937,-0.096,1.471,-0.244
1557.0,-15.683,0.402,2.873,-0.095,1.484,-0.115
1561.0,-15.683,0.402,2.873,-0.095,1.484,-0.115
1565.0,-15.683,0.402,2.873,-0.095,1.484,-0.115
1569.0,-14.925,0.026,3.139,-0.078,1.435,0.043
1573.0,-14.925,0.026,3.139,-0.078,1.435,0.043
1577.0,-14.276,-0.406,3.309,-0.02,1.324,0.166
1581.0,-14.276,-0.406,3.309,-0.02,1.324,0.166
1585.0,-14.276,-0.406,3.309,-0.02,1.324,0.166
1589.0,-13.987,-0.818,3.11,0.085,1.152,0.213
1593.0,-13.987,-0.818,3.11,0.085,1.152,0.213
1597.0,-13.956,-1.025,2.568,0.22,0.924,0.188
1601.0,-13.956,-1.025,2.568,0.22,0.924,0.188
1605.0,-13.956,-1.025,2.568,0.22,0.924,0.188
1608.0,-14.186,-1.027,1.862,0.346,0.673,0.126
1612.0,-14.186,-1.027,1.862,0.346,0.673,0.126
1616.0,-14.474,-0.899,1.239,0.441,0.438,0.074
1620.0,-14.474,-0.899,1.239,0.441,0.438,0.074
1624.0,-14.474,-0.899,1.239,0.441,0.438,0.074
1628.0,-14.405,-0.762,0.852,0.503,0.234,0.068
1632.0,-14.405,-0.762,0.852,0.503,0.234,0.068
1636.0,-14.113,-0.732,0.586,0.538,0.065,0.117
1640.0,-14.113,-0.732,0.586,0.538,0.065,0.117
1644.0,-14.113,-0.732,0.586,0.538,0.065,0.117
1648.0,-13.778,-0.752,0.402,0.547,-0.067,0.198
1651.0,-13.778,-0.752,0.402,0.547,-0.067,0.198
1655.0,-13.297,-0.79,0.285,0.527,-0.176,0.294
1659.0,-13.297,-0.79,0.285,0.527,-0.176,0.294
1663.0,-13.297,-0.79,0.285,0.527,-0.176,0.294
1667.0,-12.73,-0.833,0.209,0.476,-0.271,0.384
1671.0,-12.73,-0.833,0.209,0.476,-0.271,0.384
1675.0,-12.279,-0.87,0.127,0.397,-0.341,0.452
1679.0,-12.279,-0.87,0.127,0.397,-0.341,0.452
1683.0,-12.279,-0.87,0.127,0.397,-0.341,0.452
1687.0,-11.882,-0.882,0.13,0.292,-0.383,0.493
1691.0,-11.882,-0.882,0.13,0.292,-0.383,0.493
1695.0,-11.497,-0.857,0.227,0.16,-0.404,0.518
1699.0,-11.497,-0.857,0.227,0.16,-0.404,0.518
1703.0,-11.497,-0.857,0.227,0.16,-0.404,0.518
1707.0,-11.227,-0.813,0.408,-0.0,-0.407,0.53
1711.0,-11.227,-0.813,0.408,-0.0,-0.407,0.53
1716.0,-11.124,-0.73,0.647,-0.185,-0.393,0.527
1720.0,-11.124,-0.73,0.647,-0.185,-0.393,0.527
1724.0,-11.099,-0.706,0.879,-0.185,-0.393,0.527
1728.0,-11.099,-0.706,0.879,-0.385,-0.38,0.517
1732.0,-11.099,-0.706,0.879,-0.385,-0.38,0.517
1736.0,-10.707,-0.768,0.889,-0.593,-0.383,0.492
1740.0,-10.707,-0.768,0.889,-0.593,-0.383,0.492
1744.0,-10.236,-0.752,0.961,-0.803,-0.395,0.438
1748.0,-10.236,-0.752,0.961,-0.803,-0.395,0.438
1752.0,-10.236,-0.752,0.961,-0.803,-0.395,0.438
1756.0,-9.705,-0.745,0.976,-1.009,-0.411,0.352
1760.0,-9.705,-0.745,0.976,-1.009,-0.411,0.352
1764.0,-9.056,-0.779,0.887,-1.197,-0.427,0.241
1768.0,-9.056,-0.779,0.887,-1.197,-0.427,0.241
1772.0,-9.056,-0.779,0.887,-1.197,-0.427,0.241
1776.0,-8.276,-0.785,0.682,-1.364,-0.44,0.108
1780.0,-8.276,-0.785,0.682,-1.364,-0.44,0.108
1784.0,-7.535,-0.779,0.498,-1.511,-0.436,-0.043
1788.0,-7.535,-0.779,0.498,-1.511,-0.436,-0.043
1792.0,-7.535,-0.779,0.306,-1.511,-0.436,-0.043
1797.0,-6.837,-0.767,0.306,-1.634,-0.413,-0.209
1801.0,-6.837,-0.767,0.306,-1.634,-0.413,-0.209
1805.0,-6.218,-0.75,0.212,-1.727,-0.371,-0.375
1809.0,-6.218,-0.75,0.212,-1.727,-0.371,-0.375
1813.0,-5.752,-0.776,0.214,-1.727,-0.371,-0.53
1817.0,-5.752,-0.776,0.214,-1.787,-0.317,-0.53
1821.0,-5.752,-0.776,0.214,-1.787,-0.317,-0.53
1825.0,-5.378,-0.861,0.233,-1.811,-0.26,-0.669
1829.0,-5.378,-0.861,0.233,-1.811,-0.26,-0.669
1833.0,-5.068,-0.995,0.319,-1.795,-0.205,-0.788
1837.0,-5.068,-0.995,0.319,-1.795,-0.205,-0.788
1841.0,-5.068,-0.995,0.319,-1.795,-0.205,-0.788
1846.0,-4.853,-1.169,0.403,-1.737,-0.153,-0.893
1850.0,-4.853,-1.169,0.403,-1.737,-0.153,-0.893
1854.0,-4.686,-1.372,0.492,-1.637,-0.106,-0.984
1858.0,-4.686,-1.372,0.492,-1.637,-0.106,-0.984
1862.0,-4.686,-1.578,0.552,-1.637,-0.106,-0.984
1866.0,-4.591,-1.578,0.552,-1.496,-0.062,-1.064
1870.0,-4.591,-1.578,0.552,-1.496,-0.062,-1.064
1874.0,-4.514,-1.79,0.632,-1.322,-0.022,-1.132
1878.0,-4.514,-1.79,0.632,-1.322,-0.022,-1.132
1882.0,-4.437,-1.975,0.709,-1.322,0.014,-1.19
1886.0,-4.437,-1.975,0.709,-1.119,0.014,-1.19
1890.0,-4.437,-1.975,0.709,-1.119,0.014,-1.19
1894.0,-4.37,-2.133,0.742,-0.889,0.048,-1.237
1898.0,-4.37,-2.133,0.742,-0.889,0.048,-1.237
1902.0,-4.341,-2.26,0.737,-0.638,0.081,-1.269
1906.0,-4.341,-2.26,0.737,-0.638,0.081,-1.269
1910.0,-4.341,-2.26,0.737,-0.638,0.081,-1.269
1914.0,-4.362,-2.347,0.685,-0.374,0.118,-1.288
1918.0,-4.362,-2.347,0.685,-0.374,0.118,-1.288
1922.0,-4.408,-2.401,0.621,-0.105,0.158,-1.29
1926.0,-4.408,-2.401,0.621,-0.105,0.158,-1.29
1930.0,-4.408,-2.401,0.621,-0.105,0.158,-1.29
1934.0,-4.458,-2.448,0.586,0.166,0.202,-1.276
1938.0,-4.458,-2.448,0.586,0.166,0.202,-1.276
1942.0,-4.535,-2.477,0.603,0.439,0.245,-1.247
1946.0,-4.535,-2.477,0.603,0.439,0.245,-1.247
1950.0,-4.535,-2.477,0.603,0.439,0.245,-1.247
1954.0,-4.688,-2.48,0.598,0.71,0.281,-1.209
1958.0,-4.688,-2.48,0.598,0.71,0.281,-1.209
1961.0,-5.02,-2.44,0.538,0.975,0.313,-1.159
1965.0,-5.02,-2.44,0.538,0.975,0.313,-1.159
1969.0,-5.02,-2.44,0.538,0.975,0.313,-1.159
1973.0,-5.552,-2.366,0.375,1.225,0.351,-1.094
1977.0,-5.552,-2.366,0.375,1.225,0.351,-1.094
1981.0,-6.296,-2.302,0.219,1.453,0.409,-1.002
1985.0,-6.296,-2.302,0.219,1.453,0.409,-1.002
1989.0,-6.296,-2.302,0.219,1.453,0.409,-1.002
1993.0,-7.376,-2.264,0.147,1.659,0.482,-0.871
1997.0,-7.376,-2.264,0.147,1.659,0.482,-0.871
2001.0,-9.134,-2.302,0.045,1.659,0.482,-0.7
2004.0,-9.134,-2.302,0.045,1.843,0.563,-0.7
2008.0,-9.134,-2.302,0.045,1.843,0.563,-0.7
2012.0,-11.749,-2.466,-0.136,2.012,0.645,-0.49
2016.0,-11.749,-2.466,-0.136,2.012,0.645,-0.49
2020.0,-14.84,-2.69,-0.372,2.012,0.702,-0.242
2024.0,-14.84,-2.69,-0.372,2.168,0.702,-0.242
2029.0,-14.84,-2.69,-0.372,2.168,0.702,-0.242
2033.0,-16.895,-2.793,-0.337,2.305,0.696,0.049
2037.0,-16.895,-2.793,-0.337,2.305,0.696,0.049
2041.0,-16.847,-2.87,-0.142,2.415,0.607,0.369
2045.0,-16.847,-2.87,-0.142,2.415,0.607,0.369
2049.0,-16.847,-2.87,-0.142,2.415,0.607,0.369
2053.0,-15.879,-2.925,-0.069,2.496,0.488,0.658
2057.0,-15.879,-2.925,-0.069,2.496,0.488,0.658
2061.0,-15.446,-2.85,-0.148,2.564,0.396,0.873
2065.0,-15.446,-2.85,-0.148,2.564,0.396,0.873
2069.0,-15.446,-2.85,-0.148,2.564,0.396,0.873
2073.0,-15.778,-2.585,-0.385,2.621,0.329,1.027
2077.0,-15.778,-2.585,-0.385,2.621,0.329,1.027
2081.0,-16.131,-2.197,-0.696,2.648,0.253,1.158
2085.0,-16.131,-2.197,-0.696,2.648,0.253,1.158
2089.0,-16.131,-2.197,-0.696,2.648,0.253,1.158
2093.0,-16.305,-1.775,-0.998,2.632,0.167,1.284
2097.0,-16.305,-1.775,-0.998,2.632,0.167,1.284
2101.0,-16.317,-1.357,-1.379,2.566,0.091,1.398
2105.0,-16.317,-1.357,-1.379,2.566,0.091,1.398
2109.0,-16.317,-1.357,-1.705,2.566,0.091,1.398
2113.0,-16.416,-0.937,-1.705,2.449,0.045,1.498
2117.0,-16.416,-0.937,-1.705,2.449,0.045,1.498
2120.0,-16.714,-0.523,-1.813,2.283,0.042,1.586
2124.0,-16.714,-0.523,-1.813,2.283,0.042,1.586
2128.0,-17.062,-0.172,-1.633,2.283,0.042,1.586
2132.0,-17.062,-0.172,-1.633,2.075,0.067,1.668
2136.0,-17.062,-0.172,-1.633,2.075,0.067,1.668
2140.0,-16.962,0.078,-1.324,1.837,0.093,1.745
2144.0,-16.962,0.078,-1.324,1.837,0.093,1.745
2148.0,-16.405,0.287,-0.842,1.837,0.093,1.745
2152.0,-16.405,0.287,-0.842,1.578,0.106,1.802
2156.0,-16.405,0.287,-0.842,1.578,0.106,1.802
2160.0,-15.468,0.508,-0.403,1.305,0.097,1.82
2164.0,-15.468,0.508,-0.403,1.305,0.097,1.82
2168.0,-15.468,0.757,-0.028,1.305,0.097,1.82
2172.0,-14.078,0.757,-0.028,1.026,0.063,1.78
2176.0,-14.078,0.757,-0.028,1.026,0.063,1.78
2180.0,-12.541,0.991,0.414,0.746,0.0,1.662
2183.0,-12.541,0.991,0.414,0.746,0.0,1.662
2187.0,-12.541,0.991,0.414,0.746,0.0,1.662
2191.0,-11.293,1.17,0.718,0.472,-0.104,1.452
2195.0,-11.293,1.17,0.718,0.472,-0.104,1.452
2199.0,-10.758,1.369,0.739,0.204,-0.242,1.16
2203.0,-10.758,1.369,0.739,0.204,-0.242,1.16
2207.0,-10.758,1.369,0.739,0.204,-0.242,1.16
2211.0,-11.128,1.638,0.397,-0.072,-0.379,0.822
2215.0,-11.128,1.638,0.397,-0.072,-0.379,0.822
2219.0,-12.078,1.893,-0.098,-0.377,-0.478,0.5
2223.0,-12.078,1.893,-0.098,-0.377,-0.478,0.5
2227.0,-12.078,1.893,-0.098,-0.377,-0.478,0.5
2231.0,-12.809,1.993,-0.438,-0.723,-0.525,0.239
2235.0,-12.809,1.993,-0.438,-0.723,-0.525,0.239
2239.0,-12.76,1.837,-0.498,-1.1,-0.541,0.044
2243.0,-12.76,1.837,-0.498,-1.1,-0.541,0.044
2247.0,-12.184,1.47,-0.252,-1.1,-0.541,0.044
2251.0,-12.184,1.47,-0.252,-1.48,-0.539,-0.105
2255.0,-12.184,1.47,-0.252,-1.48,-0.539,-0.105
2259.0,-11.337,1.059,-0.007,-1.833,-0.526,-0.226
2264.0,-11.337,1.059,-0.007,-1.833,-0.526,-0.226
2268.0,-10.324,0.68,0.242,-2.148,-0.502,-0.327
2272.0,-10.324,0.68,0.242,-2.148,-0.502,-0.327
2276.0,-10.324,0.68,0.242,-2.148,-0.502,-0.327
2280.0,-9.466,0.364,0.452,-2.416,-0.473,-0.413
2284.0,-9.466,0.364,0.452,-2.416,-0.473,-0.413
2288.0,-8.804,0.103,0.572,-2.632,-0.435,-0.491
2292.0,-8.804,0.103,0.572,-2.632,-0.435,-0.491
2296.0,-8.804,0.103,0.625,-2.632,-0.435,-0.491
2300.0,-8.172,-0.086,0.625,-2.801,-0.394,-0.562
2304.0,-8.172,-0.086,0.625,-2.801,-0.394,-0.562
2308.0,-7.686,-0.257,0.649,-2.931,-0.343,-0.614
2312.0,-7.686,-0.257,0.649,-2.931,-0.343,-0.614
2316.0,-7.182,-0.403,0.687,-2.931,-0.343,-0.631
2320.0,-7.182,-0.403,0.687,-3.017,-0.278,-0.631
2324.0,-7.182,-0.403,0.687,-3.017,-0.278,-0.631
2329.0,-6.724,-0.548,0.791,-3.06,-0.205,-0.621
2333.0,-6.724,-0.548,0.791,-3.06,-0.205,-0.621
2337.0,-6.424,-0.706,0.919,-3.055,-0.129,-0.587
2341.0,-6.424,-0.706,0.919,-3.055,-0.129,-0.587
2345.0,-6.424,-0.706,0.919,-3.055,-0.129,-0.587
2349.0,-6.181,-0.883,0.962,-3.001,-0.058,-0.531
2353.0,-6.181,-0.883,0.962,-3.001,-0.058,-0.531
2357.0,-5.924,-1.059,1.03,-2.901,0.001,-0.453
2361.0,-5.924,-1.059,1.03,-2.901,0.001,-0.453
2365.0,-5.924,-1.059,1.116,-2.901,0.001,-0.453
2369.0,-5.64,-1.223,1.116,-2.757,0.045,-0.36
2373.0,-5.64,-1.223,1.116,-2.757,0.045,-0.36
2377.0,-5.355,-1.35,1.18,-2.572,0.08,-0.263
2381.0,-5.355,-1.35,1.18,-2.572,0.08,-0.263
2385.0,-5.355,-1.445,1.257,-2.572,0.08,-0.263
2389.0,-5.103,-1.445,1.257,-2.351,0.108,-0.166
2393.0,-5.103,-1.445,1.257,-2.351,0.108,-0.166
2397.0,-4.841,-1.505,1.324,-2.103,0.121,-0.065
2401.0,-4.841,-1.505,1.324,-2.103,0.121,-0.065
2405.0,-4.539,-1.543,1.387,-2.103,0.121,-0.065
2409.0,-4.539,-1.543,1.387,-1.842,0.12,0.039
2413.0,-4.539,-1.543,1.387,-1.842,0.12,0.039
2417.0,-4.191,-1.503,1.475,-1.575,0.112,0.14
2421.0,-4.191,-1.503,1.475,-1.575,0.112,0.14
2425.0,-3.899,-1.434,1.586,-1.575,0.112,0.14
2429.0,-3.899,-1.434,1.586,-1.308,0.099,0.239
2432.0,-3.899,-1.434,1.586,-1.308,0.099,0.239
2436.0,-3.623,-1.36,1.707,-1.049,0.079,0.337
2440.0,-3.623,-1.36,1.707,-1.049,0.079,0.337
2444.0,-3.623,-1.36,1.735,-1.049,0.079,0.337
2448.0,-3.32,-1.269,1.735,-0.806,0.052,0.426
2452.0,-3.32,-1.269,1.735,-0.806,0.052,0.426
2456.0,-3.029,-1.154,1.771,-0.586,0.025,0.498
2460.0,-3.029,-1.154,1.771,-0.586,0.025,0.498
2464.0,-3.029,-1.154,1.771,-0.586,0.025,0.498
2468.0,-2.769,-1.015,1.768,-0.394,0.001,0.553
2472.0,-2.769,-1.015,1.768,-0.394,0.001,0.553
2475.0,-2.519,-0.893,1.734,-0.232,-0.021,0.594
2479.0,-2.519,-0.893,1.734,-0.232,-0.021,0.594
2483.0,-2.519,-0.893,1.734,-0.232,-0.021,0.594
2487.0,-2.35,-0.734,1.762,-0.102,-0.039,0.63
2491.0,-2.35,-0.734,1.762,-0.102,-0.039,0.63
2495.0,-2.292,-0.592,1.694,-0.002,-0.053,0.666
2499.0,-2.292,-0.592,1.694,-0.002,-0.053,0.666
2503.0,-2.292,-0.592,1.668,-0.002,-0.053,0.666
2507.0,-2.337,-0.451,1.668,0.065,-0.053,0.708
2511.0,-2.337,-0.451,1.668,0.065,-0.053,0.708
2515.0,-2.551,-0.301,1.667,0.1,-0.037,0.752
2519.0,-2.551,-0.301,1.667,0.1,-0.037,0.752
2523.0,-2.551,-0.301,1.662,0.1,-0.037,0.752
2527.0,-2.891,-0.196,1.662,0.105,-0.009,0.796
2531.0,-2.891,-0.196,1.662,0.105,-0.009,0.796
2535.0,-3.333,-0.089,1.716,0.082,0.031,0.835
2539.0,-3.333,-0.089,1.716,0.082,0.031,0.835
2542.0,-3.333,-0.089,1.716,0.082,0.031,0.835
2546.0,-3.901,0.085,2.046,0.04,0.071,0.865
2550.0,-3.901,0.085,2.046,0.04,0.071,0.865
2554.0,-4.537,0.303,2.462,-0.01,0.078,0.894
2557.0,-4.537,0.303,2.462,-0.01,0.078,0.894
2561.0,-4.537,0.303,2.462,-0.01,0.078,0.894
2565.0,-5.297,0.629,2.976,-0.063,0.034,0.926
2569.0,-5.297,0.629,2.976,-0.063,0.034,0.926
2573.0,-6.19,1.007,3.431,-0.063,0.034,0.926
2577.0,-6.19,1.007,3.431,-0.118,-0.067,0.969
2580.0,-6.19,1.007,3.431,-0.118,-0.067,0.969
2584.0,-7.123,1.216,3.35,-0.185,-0.197,1.031
2588.0,-7.123,1.216,3.35,-0.185,-0.197,1.031
2592.0,-7.123,1.216,2.819,-0.185,-0.197,1.031
2596.0,-7.827,1.303,2.819,-0.281,-0.293,1.088
2600.0,-7.827,1.303,2.819,-0.281,-0.293,1.088
2604.0,-8.384,1.449,2.224,-0.431,-0.31,1.122
2608.0,-8.384,1.449,2.224,-0.431,-0.31,1.122
2612.0,-8.384,1.449,2.224,-0.431,-0.31,1.122
2616.0,-8.656,1.582,1.595,-0.649,-0.222,1.127
2620.0,-8.656,1.582,1.595,-0.649,-0.222,1.127
2623.0,-9.09,1.676,1.327,-0.917,0.005,1.077
2627.0,-9.09,1.676,1.327,-0.917,0.005,1.077
2631.0,-9.09,1.676,1.327,-0.917,0.005,1.077
2635.0,-10.214,1.814,1.502,-1.209,0.342,0.974
2639.0,-10.214,1.814,1.502,-1.209,0.342,0.974
2643.0,-12.156,1.832,1.969,-1.491,0.734,0.84
2647.0,-12.156,1.832,1.969,-1.491,0.734,0.84
2651.0,-12.156,1.832,1.969,-1.491,0.734,0.84
2654.0,-14.959,2.072,2.844,-1.739,1.128,0.687
2658.0,-14.959,2.072,2.844,-1.739,1.128,0.687
2662.0,-17.332,2.444,4.097,-1.938,1.453,0.555
2666.0,-17.332,2.444,4.097,-1.938,1.453,0.555
2670.0,-17.332,2.444,4.097,-1.938,1.453,0.555
2674.0,-17.575,2.554,5.352,-2.08,1.638,0.481
2678.0,-17.575,2.554,5.352,-2.08,1.638,0.481
2682.0,-16.132,2.404,6.32,-2.08,1.688,0.433
2686.0,-16.132,2.404,6.32,-2.159,1.688,0.433
2690.0,-16.132,2.404,6.32,-2.159,1.688,0.433
2693.0,-14.437,2.2,6.808,-2.16,1.667,0.371
2697.0,-14.437,2.2,6.808,-2.16,1.667,0.371
2701.0,-13.094,1.956,6.671,-2.16,1.667,0.281
2705.0,-13.094,1.956,6.671,-2.104,1.641,0.281
2709.0,-13.094,1.956,6.671,-2.104,1.641,0.281
2713.0,-12.388,1.883,6.6,-2.025,1.654,0.179
2717.0,-12.388,1.883,6.6,-2.025,1.654,0.179
2721.0,-11.979,2.395,6.878,-2.025,1.654,0.179
2725.0,-11.979,2.395,6.878,-2.005,1.697,0.103
2729.0,-11.979,2.395,6.878,-2.005,1.697,0.103
2733.0,-11.8,3.423,7.234,-2.214,1.762,0.057
2736.0,-11.8,3.423,7.234,-2.214,1.762,0.057
2740.0,-11.8,4.517,7.267,-2.214,1.762,0.057
2744.0,-12.106,4.517,7.267,-2.83,1.835,0.035
2748.0,-12.106,4.517,7.267,-2.83,1.835,0.035
2752.0,-13.184,3.67,6.185,-3.8,1.816,0.006
2756.0,-13.184,3.67,6.185,-3.8,1.816,0.006
2760.0,-13.184,3.67,4.618,-3.8,1.816,0.006
2764.0,-14.94,0.498,4.618,-4.512,1.518,-0.036
2768.0,-14.94,0.498,4.618,-4.512,1.518,-0.036
2772.0,-15.667,-1.125,4.334,-4.538,1.046,-0.037
2776.0,-15.667,-1.125,4.334,-4.538,1.046,-0.037
2780.0,-15.667,-2.349,3.713,-4.538,1.046,-0.037
2784.0,-15.153,-2.349,3.713,-4.169,0.63,0.083
2788.0,-15.153,-2.349,3.713,-4.169,0.63,0.083
2792.0,-13.711,-3.539,3.06,-3.589,0.359,0.289
2796.0,-13.711,-3.539,3.06,-3.589,0.359,0.289
2800.0,-12.472,-4.402,2.796,-3.589,0.359,0.471
2804.0,-12.472,-4.402,2.796,-2.865,0.246,0.471
2808.0,-12.472,-4.402,2.796,-2.865,0.246,0.471
2812.0,-12.165,-5.005,2.938,-2.074,0.242,0.577
2816.0,-12.165,-5.005,2.938,-2.074,0.242,0.577
2820.0,-12.324,-5.484,3.035,-2.074,0.257,0.598
2824.0,-12.324,-5.484,3.035,-1.274,0.257,0.598
2828.0,-12.324,-5.484,3.035,-1.274,0.257,0.598
2832.0,-12.682,-5.767,3.297,-0.486,0.224,0.527
2836.0,-12.682,-5.767,3.297,-0.486,0.224,0.527
2840.0,-12.974,-5.774,3.336,0.281,0.129,0.364
2844.0,-12.974,-5.774,3.336,0.281,0.129,0.364
2848.0,-12.974,-5.774,3.336,0.281,0.129,0.364
2852.0,-13.491,-5.451,3.491,1.001,-0.001,0.148
2856.0,-13.491,-5.451,3.491,1.001,-0.001,0.148
2860.0,-13.699,-5.036,2.798,1.652,-0.147,-0.07
2864.0,-13.699,-5.036,2.798,1.652,-0.147,-0.07
2868.0,-13.699,-5.036,2.798,1.652,-0.147,-0.07
2872.0,-13.699,-4.466,2.506,2.222,-0.264,-0.281
2876.0,-13.699,-4.466,2.506,2.222,-0.264,-0.281
2880.0,-13.979,-3.989,2.386,2.717,-0.358,-0.483
2884.0,-13.979,-3.989,2.386,2.717,-0.358,-0.483
2888.0,-13.979,-3.989,2.386,2.717,-0.358,-0.483
2892.0,-14.462,-3.514,2.322,3.154,-0.46,-0.658
2896.0,-14.462,-3.514,2.322,3.154,-0.46,-0.658
2900.0,-14.821,-2.989,2.068,3.526,-0.587,-0.796
2905.0,-14.821,-2.989,2.068,3.526,-0.587,-0.796
2909.0,-14.951,-2.426,1.71,3.526,-0.587,-0.907
2913.0,-14.951,-2.426,1.71,3.818,-0.729,-0.907
2917.0,-14.951,-2.426,1.71,3.818,-0.729,-0.907
2921.0,-14.881,-1.867,1.235,4.029,-0.874,-1.01
2925.0,-14.881,-1.867,1.235,4.029,-0.874,-1.01
2929.0,-14.638,-1.362,0.75,4.166,-1.002,-1.121
2933.0,-14.638,-1.362,0.75,4.166,-1.002,-1.121
2937.0,-14.638,-1.362,0.75,4.166,-1.002,-1.121
2941.0,-14.325,-0.931,0.329,4.231,-1.117,-1.236
2945.0,-14.325,-0.931,0.329,4.231,-1.117,-1.236
2949.0,-14.086,-0.605,-0.062,4.227,-1.219,-1.345
2954.0,-14.086,-0.605,-0.062,4.227,-1.219,-1.345
2958.0,-13.903,-0.357,-0.362,4.227,-1.219,-1.345
2962.0,-13.903,-0.357,-0.362,4.158,-1.304,-1.441
2966.0,-13.903,-0.357,-0.362,4.158,-1.304,-1.441
2970.0,-13.615,-0.25,-0.544,4.031,-1.379,-1.513
2974.0,-13.615,-0.25,-0.544,4.031,-1.379,-1.513
2979.0,-13.302,-0.173,-0.669,3.852,-1.453,-1.568
2983.0,-13.302,-0.173,-0.669,3.852,-1.453,-1.568
2987.0,-13.302,-0.173,-0.669,3.852,-1.453,-1.568
2991.0,-12.895,-0.146,-0.745,3.629,-1.522,-1.612
2995.0,-12.895,-0.146,-0.745,3.629,-1.522,-1.612
2999.0,-12.413,-0.147,-0.802,3.371,-1.586,-1.648
