deltaTime,Acc_X,Acc_Y,Acc_Z,Gyro_X,Gyro_Y,Gyro_Z
0.0,-13.938,-0.342,1.957,-1.563,0.849,0.53
3.0,-13.938,-0.342,1.957,-1.453,0.813,0.575
6.0,-13.938,-0.342,1.957,-1.453,0.813,0.575
9.0,-13.938,-0.342,1.957,-1.453,0.813,0.575
12.0,-13.161,-0.369,2.079,-1.343,0.716,0.599
15.0,-13.161,-0.369,2.079,-1.343,0.716,0.599
18.0,-13.161,-0.369,2.079,-1.343,0.716,0.599
21.0,-12.156,-0.337,2.084,-1.221,0.552,0.593
24.0,-12.156,-0.337,2.084,-1.221,0.552,0.593
27.0,-12.156,-0.337,2.084,-1.221,0.552,0.593
30.0,-11.232,-0.224,1.969,-1.221,0.552,0.55
34.0,-11.232,-0.224,1.969,-1.101,0.342,0.55
37.0,-11.232,-0.224,1.969,-1.101,0.342,0.55
41.0,-10.467,-0.214,1.621,-1.005,0.106,0.465
45.0,-10.467,-0.214,1.621,-1.005,0.106,0.465
49.0,-10.467,-0.214,1.621,-1.005,0.106,0.465
53.0,-9.726,-0.431,1.005,-0.939,-0.116,0.342
57.0,-9.726,-0.431,1.005,-0.939,-0.116,0.342
60.0,-9.327,-0.728,0.358,-0.882,-0.271,0.203
64.0,-9.327,-0.728,0.358,-0.882,-0.271,0.203
68.0,-9.327,-0.728,0.358,-0.882,-0.271,0.203
72.0,-9.547,-1.023,-0.114,-0.825,-0.339,0.076
76.0,-9.547,-1.023,-0.114,-0.825,-0.339,0.076
80.0,-10.265,-1.312,-0.348,-0.825,-0.339,0.076
84.0,-10.265,-1.312,-0.348,-0.763,-0.339,-0.011
88.0,-10.265,-1.312,-0.348,-0.763,-0.339,-0.011
92.0,-11.008,-1.518,-0.297,-0.69,-0.298,-0.046
96.0,-11.008,-1.518,-0.297,-0.69,-0.298,-0.046
100.0,-11.562,-1.645,-0.026,-0.611,-0.246,-0.041
104.0,-11.562,-1.645,-0.026,-0.611,-0.246,-0.041
108.0,-11.562,-1.645,-0.026,-0.611,-0.246,-0.041
112.0,-11.856,-1.503,0.348,-0.546,-0.21,-0.015
117.0,-11.856,-1.503,0.348,-0.546,-0.21,-0.015
121.0,-11.934,-1.147,0.745,-0.548,-0.195,0.002
125.0,-11.934,-1.147,0.745,-0.548,-0.195,0.002
129.0,-11.934,-1.147,1.209,-0.548,-0.195,0.002
133.0,-11.789,-0.917,1.209,-0.64,-0.184,0.004
137.0,-11.789,-0.917,1.209,-0.64,-0.184,0.004
141.0,-11.319,-0.759,1.585,-0.795,-0.175,-0.009
145.0,-11.319,-0.759,1.585,-0.795,-0.175,-0.009
149.0,-10.667,-0.675,1.842,-0.795,-0.175,-0.009
153.0,-10.667,-0.675,1.842,-0.99,-0.172,-0.04
157.0,-10.667,-0.675,1.842,-0.99,-0.172,-0.04
161.0,-10.015,-0.753,1.924,-1.19,-0.19,-0.09
165.0,-10.015,-0.753,1.924,-1.19,-0.19,-0.09
169.0,-9.519,-0.936,2.04,-1.353,-0.224,-0.146
173.0,-9.519,-0.936,2.04,-1.353,-0.224,-0.146
177.0,-9.519,-0.936,2.04,-1.353,-0.224,-0.146
181.0,-9.44,-1.025,2.186,-1.452,-0.245,-0.203
185.0,-9.44,-1.025,2.186,-1.452,-0.245,-0.203
189.0,-9.6,-1.079,2.259,-1.488,-0.264,-0.268
193.0,-9.6,-1.079,2.259,-1.488,-0.264,-0.268
197.0,-9.6,-1.079,2.259,-1.488,-0.264,-0.268
201.0,-9.805,-1.186,2.262,-1.469,-0.301,-0.328
205.0,-9.805,-1.186,2.262,-1.469,-0.301,-0.328
209.0,-10.015,-1.256,2.241,-1.402,-0.349,-0.379
213.0,-10.015,-1.256,2.241,-1.402,-0.349,-0.379
217.0,-10.015,-1.256,2.241,-1.402,-0.349,-0.379
221.0,-10.234,-1.185,2.194,-1.299,-0.403,-0.422
225.0,-10.234,-1.185,2.194,-1.299,-0.403,-0.422
229.0,-10.325,-0.995,2.123,-1.2,-0.455,-0.467
234.0,-10.325,-0.995,2.123,-1.2,-0.455,-0.467
238.0,-10.257,-0.812,2.06,-1.2,-0.455,-0.514
242.0,-10.257,-0.812,2.06,-1.135,-0.497,-0.514
246.0,-10.257,-0.812,2.06,-1.135,-0.497,-0.514
250.0,-10.125,-0.665,2.032,-1.105,-0.526,-0.563
254.0,-10.125,-0.665,2.032,-1.105,-0.526,-0.563
258.0,-10.278,-0.636,1.967,-1.098,-0.555,-0.609
262.0,-10.278,-0.636,1.967,-1.098,-0.555,-0.609
266.0,-10.278,-0.636,1.967,-1.098,-0.555,-0.609
270.0,-10.139,-0.692,1.965,-1.095,-0.609,-0.651
274.0,-10.139,-0.692,1.965,-1.095,-0.609,-0.651
278.0,-9.991,-0.743,2.012,-1.081,-0.656,-0.684
282.0,-9.991,-0.743,2.012,-1.081,-0.656,-0.684
286.0,-9.991,-0.743,2.048,-1.081,-0.656,-0.684
290.0,-9.909,-0.786,2.048,-1.053,-0.693,-0.707
294.0,-9.909,-0.786,2.048,-1.053,-0.693,-0.707
298.0,-9.902,-0.815,2.062,-1.018,-0.726,-0.72
302.0,-9.902,-0.815,2.062,-1.018,-0.726,-0.72
306.0,-9.902,-0.843,2.106,-1.018,-0.726,-0.72
310.0,-9.888,-0.843,2.106,-0.982,-0.761,-0.723
314.0,-9.888,-0.843,2.106,-0.982,-0.761,-0.723
318.0,-9.881,-0.879,2.161,-0.944,-0.796,-0.72
322.0,-9.881,-0.879,2.161,-0.944,-0.796,-0.72
326.0,-9.868,-0.932,2.174,-0.944,-0.796,-0.72
330.0,-9.868,-0.932,2.174,-0.903,-0.835,-0.711
334.0,-9.868,-0.932,2.174,-0.903,-0.835,-0.711
338.0,-9.873,-0.989,2.163,-0.86,-0.869,-0.696
342.0,-9.873,-0.989,2.163,-0.86,-0.869,-0.696
346.0,-9.904,-1.034,2.149,-0.86,-0.869,-0.675
350.0,-9.904,-1.034,2.149,-0.817,-0.897,-0.675
354.0,-9.904,-1.034,2.149,-0.817,-0.897,-0.675
358.0,-10.011,-1.088,2.139,-0.772,-0.917,-0.646
362.0,-10.011,-1.088,2.139,-0.772,-0.917,-0.646
366.0,-10.149,-1.163,2.166,-0.724,-0.931,-0.605
371.0,-10.149,-1.163,2.166,-0.724,-0.931,-0.605
375.0,-10.149,-1.163,2.166,-0.724,-0.931,-0.605
379.0,-10.289,-1.213,2.186,-0.672,-0.943,-0.553
383.0,-10.289,-1.213,2.186,-0.672,-0.943,-0.553
387.0,-10.386,-1.282,2.175,-0.616,-0.955,-0.494
391.0,-10.386,-1.282,2.175,-0.616,-0.955,-0.494
395.0,-10.386,-1.282,2.176,-0.616,-0.955,-0.494
399.0,-10.513,-1.347,2.176,-0.556,-0.962,-0.431
403.0,-10.513,-1.347,2.176,-0.556,-0.962,-0.431
407.0,-10.607,-1.384,2.18,-0.492,-0.966,-0.365
411.0,-10.607,-1.384,2.18,-0.492,-0.966,-0.365
415.0,-10.644,-1.426,2.175,-0.492,-0.966,-0.299
419.0,-10.644,-1.426,2.175,-0.425,-0.97,-0.299
424.0,-10.644,-1.426,2.175,-0.425,-0.97,-0.299
428.0,-10.665,-1.45,2.182,-0.356,-0.973,-0.231
432.0,-10.665,-1.45,2.182,-0.356,-0.973,-0.231
436.0,-10.711,-1.468,2.204,-0.285,-0.973,-0.167
440.0,-10.711,-1.468,2.204,-0.285,-0.973,-0.167
444.0,-10.711,-1.468,2.204,-0.285,-0.973,-0.167
448.0,-10.765,-1.48,2.193,-0.213,-0.972,-0.105
452.0,-10.765,-1.48,2.193,-0.213,-0.972,-0.105
456.0,-10.798,-1.487,2.17,-0.14,-0.971,-0.045
460.0,-10.798,-1.487,2.17,-0.14,-0.971,-0.045
464.0,-10.798,-1.478,2.124,-0.14,-0.971,-0.045
468.0,-10.816,-1.478,2.124,-0.068,-0.97,0.01
472.0,-10.816,-1.478,2.124,-0.068,-0.97,0.01
476.0,-10.833,-1.464,2.072,0.005,-0.972,0.058
480.0,-10.833,-1.464,2.072,0.005,-0.972,0.058
484.0,-10.886,-1.433,2.019,0.005,-0.972,0.058
488.0,-10.886,-1.433,2.019,0.075,-0.975,0.096
492.0,-10.886,-1.433,2.019,0.075,-0.975,0.096
496.0,-10.926,-1.362,2.006,0.14,-0.978,0.123
500.0,-10.926,-1.362,2.006,0.14,-0.978,0.123
504.0,-10.926,-1.263,1.977,0.14,-0.978,0.123
508.0,-10.946,-1.263,1.977,0.197,-0.988,0.139
512.0,-10.946,-1.263,1.977,0.197,-0.988,0.139
515.0,-10.861,-1.181,1.937,0.24,-1.001,0.143
519.0,-10.861,-1.181,1.937,0.24,-1.001,0.143
523.0,-10.861,-1.181,1.893,0.24,-1.001,0.143
527.0,-10.737,-1.073,1.893,0.268,-1.013,0.135
531.0,-10.737,-1.073,1.893,0.268,-1.013,0.135
535.0,-10.563,-0.955,1.911,0.284,-1.019,0.115
539.0,-10.563,-0.955,1.911,0.284,-1.019,0.115
543.0,-10.563,-0.955,1.911,0.284,-1.019,0.115
547.0,-10.36,-0.826,1.944,0.29,-1.024,0.09
551.0,-10.36,-0.826,1.944,0.29,-1.024,0.09
555.0,-10.211,-0.715,1.991,0.289,-1.028,0.063
558.0,-10.211,-0.715,1.991,0.289,-1.028,0.063
562.0,-10.211,-0.715,1.991,0.289,-1.028,0.063
566.0,-10.095,-0.629,2.057,0.28,-1.032,0.038
570.0,-10.095,-0.629,2.057,0.28,-1.032,0.038
574.0,-10.004,-0.568,2.109,0.266,-1.04,0.021
578.0,-10.004,-0.568,2.109,0.266,-1.04,0.021
582.0,-10.004,-0.568,2.109,0.266,-1.04,0.021
586.0,-9.876,-0.532,2.103,0.246,-1.051,0.008
590.0,-9.876,-0.532,2.103,0.246,-1.051,0.008
593.0,-9.671,-0.5,2.122,0.219,-1.063,0.002
597.0,-9.671,-0.5,2.122,0.219,-1.063,0.002
601.0,-9.671,-0.5,2.122,0.219,-1.063,0.002
605.0,-9.438,-0.47,2.149,0.184,-1.078,0.003
609.0,-9.438,-0.47,2.149,0.184,-1.078,0.003
613.0,-9.22,-0.464,2.15,0.184,-1.078,0.003
616.0,-9.22,-0.464,2.15,0.142,-1.088,0.011
620.0,-9.22,-0.464,2.15,0.142,-1.088,0.011
624.0,-9.09,-0.441,2.176,0.093,-1.09,0.024
628.0,-9.09,-0.441,2.176,0.093,-1.09,0.024
632.0,-9.09,-0.441,2.176,0.093,-1.09,0.024
635.0,-9.047,-0.44,2.167,0.041,-1.083,0.04
639.0,-9.047,-0.44,2.167,0.041,-1.083,0.04
643.0,-9.065,-0.459,2.174,-0.019,-1.063,0.059
647.0,-9.065,-0.459,2.174,-0.019,-1.063,0.059
651.0,-9.065,-0.459,2.174,-0.019,-1.063,0.059
655.0,-9.096,-0.478,2.221,-0.089,-1.027,0.083
659.0,-9.096,-0.478,2.221,-0.089,-1.027,0.083
663.0,-9.12,-0.468,2.324,-0.166,-0.978,0.113
667.0,-9.12,-0.468,2.324,-0.166,-0.978,0.113
670.0,-9.12,-0.468,2.324,-0.166,-0.978,0.113
674.0,-9.126,-0.466,2.449,-0.246,-0.921,0.154
678.0,-9.126,-0.466,2.449,-0.246,-0.921,0.154
682.0,-9.098,-0.491,2.575,-0.246,-0.863,0.205
686.0,-9.098,-0.491,2.575,-0.325,-0.863,0.205
690.0,-9.098,-0.491,2.575,-0.325,-0.863,0.205
694.0,-8.983,-0.55,2.673,-0.397,-0.805,0.268
698.0,-8.983,-0.55,2.673,-0.397,-0.805,0.268
702.0,-8.759,-0.639,2.696,-0.397,-0.805,0.339
706.0,-8.759,-0.639,2.696,-0.465,-0.75,0.339
710.0,-8.759,-0.639,2.696,-0.465,-0.75,0.339
713.0,-8.515,-0.75,2.691,-0.525,-0.689,0.413
717.0,-8.515,-0.75,2.691,-0.525,-0.689,0.413
721.0,-8.241,-0.888,2.699,-0.525,-0.689,0.413
725.0,-8.241,-0.888,2.699,-0.581,-0.618,0.486
729.0,-8.241,-0.888,2.699,-0.581,-0.618,0.486
733.0,-7.987,-0.996,2.76,-0.633,-0.534,0.553
737.0,-7.987,-0.996,2.76,-0.633,-0.534,0.553
741.0,-7.987,-1.098,2.839,-0.633,-0.534,0.553
745.0,-7.711,-1.098,2.839,-0.68,-0.439,0.618
749.0,-7.711,-1.098,2.839,-0.68,-0.439,0.618
752.0,-7.467,-1.21,2.956,-0.716,-0.335,0.685
756.0,-7.467,-1.21,2.956,-0.716,-0.335,0.685
760.0,-7.467,-1.21,3.071,-0.716,-0.335,0.685
764.0,-7.289,-1.313,3.071,-0.738,-0.228,0.756
768.0,-7.289,-1.313,3.071,-0.738,-0.228,0.756
772.0,-7.187,-1.46,3.154,-0.744,-0.124,0.835
776.0,-7.187,-1.46,3.154,-0.744,-0.124,0.835
780.0,-7.187,-1.46,3.154,-0.744,-0.124,0.835
784.0,-7.238,-1.616,3.221,-0.736,-0.023,0.928
788.0,-7.238,-1.616,3.221,-0.736,-0.023,0.928
792.0,-7.39,-1.812,3.293,-0.712,0.07,1.036
795.0,-7.39,-1.812,3.293,-0.712,0.07,1.036
799.0,-7.39,-1.812,3.293,-0.712,0.07,1.036
803.0,-7.496,-2.061,3.351,-0.673,0.154,1.157
807.0,-7.496,-2.061,3.351,-0.673,0.154,1.157
811.0,-7.552,-2.308,3.383,-0.621,0.223,1.281
814.0,-7.552,-2.308,3.383,-0.621,0.223,1.281
818.0,-7.552,-2.308,3.383,-0.621,0.223,1.281
822.0,-7.592,-2.545,3.388,-0.558,0.281,1.399
826.0,-7.592,-2.545,3.388,-0.558,0.281,1.399
830.0,-7.716,-2.845,3.422,-0.558,0.281,1.399
834.0,-7.716,-2.845,3.422,-0.487,0.335,1.502
837.0,-7.716,-2.845,3.422,-0.487,0.335,1.502
841.0,-7.911,-3.129,3.431,-0.408,0.381,1.587
845.0,-7.911,-3.129,3.431,-0.408,0.381,1.587
849.0,-7.911,-3.129,3.431,-0.408,0.381,1.587
853.0,-8.079,-3.364,3.434,-0.323,0.422,1.654
856.0,-8.079,-3.364,3.434,-0.323,0.422,1.654
860.0,-8.25,-3.558,3.494,-0.232,0.46,1.706
864.0,-8.25,-3.558,3.494,-0.232,0.46,1.706
868.0,-8.25,-3.558,3.494,-0.232,0.46,1.706
872.0,-8.465,-3.736,3.529,-0.139,0.494,1.748
876.0,-8.465,-3.736,3.529,-0.139,0.494,1.748
879.0,-8.663,-3.896,3.538,-0.139,0.494,1.776
883.0,-8.663,-3.896,3.538,-0.048,0.523,1.776
887.0,-8.663,-3.896,3.538,-0.048,0.523,1.776
891.0,-8.854,-3.997,3.569,0.045,0.543,1.79
895.0,-8.854,-3.997,3.569,0.045,0.543,1.79
898.0,-8.854,-3.997,3.569,0.045,0.543,1.79
902.0,-8.897,-4.116,3.587,0.146,0.544,1.783
906.0,-8.897,-4.116,3.587,0.146,0.544,1.783
910.0,-8.78,-4.193,3.537,0.254,0.528,1.75
913.0,-8.78,-4.193,3.537,0.254,0.528,1.75
917.0,-8.78,-4.193,3.537,0.254,0.528,1.75
921.0,-8.6,-4.242,3.48,0.368,0.511,1.69
924.0,-8.6,-4.242,3.48,0.368,0.511,1.69
928.0,-8.6,-4.242,3.388,0.368,0.511,1.69
932.0,-8.449,-4.263,3.388,0.49,0.501,1.608
936.0,-8.449,-4.263,3.388,0.49,0.501,1.608
939.0,-8.418,-4.275,3.289,0.616,0.507,1.515
943.0,-8.418,-4.275,3.289,0.616,0.507,1.515
947.0,-8.418,-4.275,3.289,0.616,0.507,1.515
951.0,-8.479,-4.286,3.252,0.744,0.527,1.422
954.0,-8.479,-4.286,3.252,0.744,0.527,1.422
958.0,-8.59,-4.314,3.277,0.744,0.527,1.422
962.0,-8.59,-4.314,3.277,0.869,0.547,1.333
965.0,-8.59,-4.314,3.277,0.869,0.547,1.333
969.0,-8.697,-4.351,3.277,0.991,0.557,1.242
973.0,-8.697,-4.351,3.277,0.991,0.557,1.242
977.0,-8.697,-4.351,3.277,0.991,0.557,1.242
980.0,-8.708,-4.362,3.256,1.109,0.558,1.143
984.0,-8.708,-4.362,3.256,1.109,0.558,1.143
988.0,-8.621,-4.349,3.256,1.109,0.558,1.039
992.0,-8.621,-4.349,3.256,1.218,0.556,1.039
995.0,-8.621,-4.349,3.256,1.218,0.556,1.039
999.0,-8.5,-4.322,3.254,1.316,0.552,0.932
1003.0,-8.5,-4.322,3.254,1.316,0.552,0.932
1007.0,-8.5,-4.322,3.254,1.316,0.552,0.932
1010.0,-8.4,-4.298,3.229,1.396,0.548,0.825
1014.0,-8.4,-4.298,3.229,1.396,0.548,0.825
1018.0,-8.331,-4.239,3.153,1.452,0.541,0.718
1022.0,-8.331,-4.239,3.153,1.452,0.541,0.718
1026.0,-8.331,-4.239,3.153,1.452,0.541,0.718
1030.0,-8.3,-4.132,3.062,1.478,0.53,0.61
1033.0,-8.3,-4.132,3.062,1.478,0.53,0.61
1037.0,-8.33,-3.982,2.925,1.478,0.53,0.51
1041.0,-8.33,-3.982,2.925,1.466,0.514,0.51
1045.0,-8.33,-3.982,2.925,1.466,0.514,0.51
1049.0,-8.49,-3.841,2.762,1.402,0.497,0.428
1052.0,-8.49,-3.841,2.762,1.402,0.497,0.428
1056.0,-8.49,-3.841,2.762,1.402,0.497,0.428
1060.0,-8.726,-3.806,2.539,1.27,0.483,0.377
1064.0,-8.726,-3.806,2.539,1.27,0.483,0.377
1068.0,-8.818,-3.837,2.297,1.065,0.476,0.351
1072.0,-8.818,-3.837,2.297,1.065,0.476,0.351
1075.0,-8.818,-3.837,2.297,1.065,0.476,0.351
1079.0,-8.59,-3.948,2.079,0.797,0.472,0.321
1083.0,-8.59,-3.948,2.079,0.797,0.472,0.321
1087.0,-8.112,-4.088,1.957,0.797,0.475,0.247
1091.0,-8.112,-4.088,1.957,0.489,0.475,0.247
1094.0,-8.112,-4.088,1.957,0.489,0.475,0.247
1098.0,-7.627,-4.234,1.882,0.178,0.485,0.102
1102.0,-7.627,-4.234,1.882,0.178,0.485,0.102
1106.0,-7.627,-4.293,1.764,0.178,0.485,0.102
1110.0,-7.276,-4.293,1.764,-0.103,0.499,-0.111
1114.0,-7.276,-4.293,1.764,-0.103,0.499,-0.111
1118.0,-7.074,-4.255,1.616,-0.342,0.515,-0.369
1122.0,-7.074,-4.255,1.616,-0.342,0.515,-0.369
1126.0,-7.074,-4.105,1.491,-0.342,0.515,-0.369
1130.0,-7.006,-4.105,1.491,-0.529,0.53,-0.642
1134.0,-7.006,-4.105,1.491,-0.529,0.53,-0.642
1138.0,-6.982,-3.916,1.408,-0.653,0.548,-0.903
1142.0,-6.982,-3.916,1.408,-0.653,0.548,-0.903
1146.0,-7.013,-3.732,1.398,-0.653,0.548,-0.903
1150.0,-7.013,-3.732,1.398,-0.705,0.571,-1.135
1154.0,-7.013,-3.732,1.398,-0.705,0.571,-1.135
1158.0,-7.048,-3.615,1.445,-0.683,0.602,-1.325
1162.0,-7.048,-3.615,1.445,-0.683,0.602,-1.325
1166.0,-7.134,-3.552,1.464,-0.683,0.602,-1.477
1170.0,-7.134,-3.552,1.464,-0.595,0.634,-1.477
1174.0,-7.134,-3.552,1.464,-0.595,0.634,-1.477
1178.0,-7.298,-3.547,1.421,-0.458,0.67,-1.597
1182.0,-7.298,-3.547,1.421,-0.458,0.67,-1.597
1186.0,-7.579,-3.642,1.33,-0.286,0.71,-1.693
1190.0,-7.579,-3.642,1.33,-0.286,0.71,-1.693
1194.0,-7.579,-3.642,1.33,-0.286,0.71,-1.693
1198.0,-7.994,-3.746,1.227,-0.097,0.757,-1.766
1202.0,-7.994,-3.746,1.227,-0.097,0.757,-1.766
1206.0,-8.541,-3.861,1.139,0.098,0.808,-1.815
1210.0,-8.541,-3.861,1.139,0.098,0.808,-1.815
1213.0,-8.541,-3.861,1.139,0.098,0.808,-1.815
1217.0,-9.187,-4.052,1.044,0.288,0.857,-1.842
1221.0,-9.187,-4.052,1.044,0.288,0.857,-1.842
1225.0,-9.91,-4.292,1.007,0.462,0.906,-1.856
1229.0,-9.91,-4.292,1.007,0.462,0.906,-1.856
1233.0,-9.91,-4.292,1.007,0.462,0.906,-1.856
1237.0,-10.734,-4.537,1.048,0.618,0.945,-1.868
1241.0,-10.734,-4.537,1.048,0.618,0.945,-1.868
1245.0,-11.646,-4.744,1.093,0.618,0.97,-1.882
1249.0,-11.646,-4.744,1.093,0.757,0.97,-1.882
1253.0,-11.646,-4.744,1.093,0.757,0.97,-1.882
1257.0,-12.724,-4.935,1.129,0.886,0.987,-1.892
1261.0,-12.724,-4.935,1.129,0.886,0.987,-1.892
1265.0,-13.776,-5.082,1.216,1.009,0.997,-1.883
1269.0,-13.776,-5.082,1.216,1.009,0.997,-1.883
1273.0,-13.776,-5.082,1.216,1.009,0.997,-1.883
1277.0,-14.566,-5.155,1.382,1.135,0.986,-1.855
1281.0,-14.566,-5.155,1.382,1.135,0.986,-1.855
1285.0,-15.021,-5.161,1.576,1.268,0.947,-1.812
1289.0,-15.021,-5.161,1.576,1.268,0.947,-1.812
1293.0,-15.021,-5.161,1.576,1.268,0.947,-1.812
1297.0,-15.357,-5.13,1.705,1.412,0.889,-1.759
1301.0,-15.357,-5.13,1.705,1.412,0.889,-1.759
1305.0,-15.834,-5.127,1.744,1.57,0.832,-1.697
1309.0,-15.834,-5.127,1.744,1.57,0.832,-1.697
1313.0,-15.834,-5.127,1.744,1.57,0.832,-1.697
1317.0,-16.47,-5.112,1.723,1.746,0.779,-1.625
1321.0,-16.47,-5.112,1.723,1.746,0.779,-1.625
1325.0,-17.052,-5.032,1.665,1.934,0.716,-1.547
1329.0,-17.052,-5.032,1.665,1.934,0.716,-1.547
1333.0,-17.052,-5.032,1.665,1.934,0.716,-1.547
1337.0,-17.262,-4.915,1.613,2.135,0.63,-1.477
1341.0,-17.262,-4.915,1.613,2.135,0.63,-1.477
1345.0,-16.816,-4.679,1.545,2.342,0.515,-1.428
1349.0,-16.816,-4.679,1.545,2.342,0.515,-1.428
1353.0,-16.816,-4.679,1.487,2.342,0.515,-1.428
1357.0,-15.784,-4.314,1.487,2.546,0.379,-1.417
1361.0,-15.784,-4.314,1.487,2.546,0.379,-1.417
1365.0,-14.532,-3.857,1.464,2.738,0.237,-1.452
1369.0,-14.532,-3.857,1.464,2.738,0.237,-1.452
1373.0,-13.275,-3.377,1.485,2.738,0.237,-1.452
1377.0,-13.275,-3.377,1.485,2.909,0.087,-1.532
1381.0,-13.275,-3.377,1.485,2.909,0.087,-1.532
1385.0,-12.118,-2.913,1.484,3.054,-0.073,-1.655
1389.0,-12.118,-2.913,1.484,3.054,-0.073,-1.655
1393.0,-11.164,-2.445,1.436,3.054,-0.242,-1.821
1397.0,-11.164,-2.445,1.436,3.173,-0.242,-1.821
1401.0,-11.164,-2.445,1.436,3.173,-0.242,-1.821
1405.0,-10.545,-1.99,1.306,3.263,-0.411,-2.021
1409.0,-10.545,-1.99,1.306,3.263,-0.411,-2.021
1413.0,-10.33,-1.552,1.111,3.316,-0.568,-2.235
1417.0,-10.33,-1.552,1.111,3.316,-0.568,-2.235
1421.0,-10.33,-1.552,1.111,3.316,-0.568,-2.235
1425.0,-10.591,-1.131,0.808,3.324,-0.703,-2.433
1429.0,-10.591,-1.131,0.808,3.324,-0.703,-2.433
1434.0,-11.209,-0.844,0.544,3.283,-0.806,-2.582
1438.0,-11.209,-0.844,0.544,3.283,-0.806,-2.582
1442.0,-11.953,-0.703,0.437,3.283,-0.806,-2.582
1446.0,-11.953,-0.703,0.437,3.197,-0.884,-2.676
1450.0,-11.953,-0.703,0.437,3.197,-0.884,-2.676
1454.0,-12.564,-0.677,0.497,3.072,-0.954,-2.717
1458.0,-12.564,-0.677,0.497,3.072,-0.954,-2.717
1462.0,-12.888,-0.677,0.651,2.919,-1.032,-2.716
1466.0,-12.888,-0.677,0.651,2.919,-1.032,-2.716
1470.0,-12.888,-0.677,0.651,2.919,-1.032,-2.716
1474.0,-12.951,-0.677,0.887,2.745,-1.118,-2.679
1478.0,-12.951,-0.677,0.887,2.745,-1.118,-2.679
1483.0,-12.782,-0.653,1.128,2.55,-1.212,-2.611
1487.0,-12.782,-0.653,1.128,2.55,-1.212,-2.611
1491.0,-12.782,-0.653,1.128,2.55,-1.212,-2.611
1495.0,-12.404,-0.614,1.313,2.335,-1.308,-2.515
1499.0,-12.404,-0.614,1.313,2.335,-1.308,-2.515
1503.0,-11.87,-0.559,1.465,2.101,-1.399,-2.393
1507.0,-11.87,-0.559,1.465,2.101,-1.399,-2.393
1511.0,-11.212,-0.544,1.549,2.101,-1.399,-2.255
1515.0,-11.212,-0.544,1.549,1.849,-1.481,-2.255
1519.0,-11.212,-0.544,1.549,1.849,-1.481,-2.255
1523.0,-10.522,-0.525,1.579,1.585,-1.552,-2.108
1527.0,-10.522,-0.525,1.579,1.585,-1.552,-2.108
1531.0,-9.854,-0.523,1.539,1.315,-1.607,-1.958
1535.0,-9.854,-0.523,1.539,1.315,-1.607,-1.958
1539.0,-9.854,-0.523,1.539,1.315,-1.607,-1.958
1543.0,-9.219,-0.52,1.461,1.045,-1.643,-1.807
1547.0,-9.219,-0.52,1.461,1.045,-1.643,-1.807
1551.0,-8.648,-0.507,1.353,0.776,-1.659,-1.653
1555.0,-8.648,-0.507,1.353,0.776,-1.659,-1.653
1559.0,-8.648,-0.507,1.353,0.776,-1.659,-1.653
1563.0,-8.145,-0.485,1.258,0.514,-1.654,-1.495
1567.0,-8.145,-0.485,1.258,0.514,-1.654,-1.495
1571.0,-7.702,-0.465,1.167,0.26,-1.628,-1.33
1575.0,-7.702,-0.465,1.167,0.26,-1.628,-1.33
1579.0,-7.702,-0.465,1.167,0.26,-1.628,-1.33
1583.0,-7.36,-0.444,1.08,0.015,-1.583,-1.158
1587.0,-7.36,-0.444,1.08,0.015,-1.583,-1.158
1591.0,-7.077,-0.443,1.027,-0.22,-1.521,-0.975
1595.0,-7.077,-0.443,1.027,-0.22,-1.521,-0.975
1600.0,-7.077,-0.458,1.005,-0.22,-1.521,-0.975
1604.0,-6.883,-0.458,1.005,-0.444,-1.449,-0.781
1608.0,-6.883,-0.458,1.005,-0.444,-1.449,-0.781
1612.0,-6.732,-0.489,1.006,-0.655,-1.371,-0.581
1616.0,-6.732,-0.489,1.006,-0.655,-1.371,-0.581
1620.0,-6.639,-0.543,1.041,-0.655,-1.288,-0.374
1624.0,-6.639,-0.543,1.041,-0.853,-1.288,-0.374
1628.0,-6.639,-0.543,1.041,-0.853,-1.288,-0.374
1632.0,-6.575,-0.62,1.094,-1.037,-1.208,-0.162
1636.0,-6.575,-0.62,1.094,-1.037,-1.208,-0.162
1640.0,-6.497,-0.729,1.175,-1.199,-1.131,0.052
1644.0,-6.497,-0.729,1.175,-1.199,-1.131,0.052
1648.0,-6.497,-0.729,1.175,-1.199,-1.131,0.052
1652.0,-6.428,-0.843,1.235,-1.338,-1.059,0.262
1656.0,-6.428,-0.843,1.235,-1.338,-1.059,0.262
1660.0,-6.386,-0.928,1.274,-1.457,-0.993,0.466
1664.0,-6.386,-0.928,1.274,-1.457,-0.993,0.466
1668.0,-6.386,-0.928,1.274,-1.457,-0.993,0.466
1672.0,-6.367,-0.986,1.289,-1.561,-0.933,0.663
1676.0,-6.367,-0.986,1.289,-1.561,-0.933,0.663
1680.0,-6.385,-1.043,1.315,-1.656,-0.878,0.854
1684.0,-6.385,-1.043,1.315,-1.656,-0.878,0.854
1688.0,-6.385,-1.043,1.324,-1.656,-0.878,0.854
1692.0,-6.431,-1.119,1.324,-1.736,-0.823,1.04
1696.0,-6.431,-1.119,1.324,-1.736,-0.823,1.04
1700.0,-6.498,-1.164,1.342,-1.804,-0.768,1.228
1704.0,-6.498,-1.164,1.342,-1.804,-0.768,1.228
1708.0,-6.566,-1.186,1.353,-1.804,-0.768,1.228
1712.0,-6.566,-1.186,1.353,-1.859,-0.714,1.414
1716.0,-6.566,-1.186,1.353,-1.859,-0.714,1.414
1720.0,-6.645,-1.181,1.333,-1.908,-0.66,1.594
1724.0,-6.645,-1.181,1.333,-1.908,-0.66,1.594
1728.0,-6.723,-1.16,1.307,-1.908,-0.66,1.594
1732.0,-6.723,-1.16,1.307,-1.955,-0.604,1.77
1736.0,-6.723,-1.16,1.307,-1.955,-0.604,1.77
1740.0,-6.795,-1.107,1.247,-2.008,-0.546,1.941
1744.0,-6.795,-1.107,1.247,-2.008,-0.546,1.941
1748.0,-6.867,-1.064,1.201,-2.008,-0.484,2.107
1752.0,-6.867,-1.064,1.201,-2.069,-0.484,2.107
1756.0,-6.867,-1.064,1.201,-2.069,-0.484,2.107
1760.0,-6.964,-1.045,1.174,-2.14,-0.421,2.268
1764.0,-6.964,-1.045,1.174,-2.14,-0.421,2.268
1768.0,-7.081,-1.012,1.147,-2.216,-0.352,2.42
1772.0,-7.081,-1.012,1.147,-2.216,-0.352,2.42
1776.0,-7.081,-1.012,1.147,-2.216,-0.352,2.42
1780.0,-7.25,-0.964,1.117,-2.303,-0.284,2.566
1784.0,-7.25,-0.964,1.117,-2.303,-0.284,2.566
1788.0,-7.476,-0.974,1.091,-2.401,-0.217,2.708
1792.0,-7.476,-0.974,1.091,-2.401,-0.217,2.708
1796.0,-7.476,-0.974,1.091,-2.401,-0.217,2.708
1800.0,-7.719,-1.001,1.059,-2.505,-0.146,2.846
1804.0,-7.719,-1.001,1.059,-2.505,-0.146,2.846
1808.0,-8.012,-1.038,1.028,-2.61,-0.073,2.977
1812.0,-8.012,-1.038,1.028,-2.61,-0.073,2.977
1816.0,-8.012,-1.038,1.028,-2.61,-0.073,2.977
1820.0,-8.367,-1.092,0.989,-2.715,0.001,3.107
1824.0,-8.367,-1.092,0.989,-2.715,0.001,3.107
1828.0,-8.774,-1.153,0.976,-2.82,0.073,3.232
1832.0,-8.774,-1.153,0.976,-2.82,0.073,3.232
1836.0,-8.774,-1.153,0.976,-2.82,0.073,3.232
1840.0,-9.257,-1.24,0.948,-2.923,0.142,3.353
1843.0,-9.257,-1.24,0.948,-2.923,0.142,3.353
1847.0,-9.784,-1.311,0.927,-3.019,0.206,3.465
1851.0,-9.784,-1.311,0.927,-3.019,0.206,3.465
1855.0,-9.784,-1.311,0.927,-3.019,0.206,3.465
1859.0,-10.362,-1.388,0.897,-3.112,0.264,3.564
1863.0,-10.362,-1.388,0.897,-3.112,0.264,3.564
1867.0,-10.949,-1.455,0.867,-3.201,0.312,3.646
1871.0,-10.949,-1.455,0.867,-3.201,0.312,3.646
1875.0,-10.949,-1.455,0.867,-3.201,0.312,3.646
1879.0,-11.556,-1.532,0.789,-3.285,0.352,3.707
1883.0,-11.556,-1.532,0.789,-3.285,0.352,3.707
1887.0,-12.099,-1.597,0.696,-3.366,0.387,3.745
1891.0,-12.099,-1.597,0.696,-3.366,0.387,3.745
1895.0,-12.099,-1.597,0.696,-3.366,0.387,3.745
1899.0,-12.604,-1.654,0.648,-3.442,0.417,3.758
1903.0,-12.604,-1.654,0.648,-3.442,0.417,3.758
1907.0,-13.015,-1.708,0.648,-3.509,0.439,3.742
1911.0,-13.015,-1.708,0.648,-3.509,0.439,3.742
1915.0,-13.015,-1.708,0.648,-3.509,0.439,3.742
1919.0,-13.354,-1.75,0.697,-3.566,0.445,3.693
1923.0,-13.354,-1.75,0.697,-3.566,0.445,3.693
1927.0,-13.636,-1.79,0.765,-3.601,0.432,3.609
1931.0,-13.636,-1.79,0.765,-3.601,0.432,3.609
1935.0,-13.636,-1.79,0.847,-3.601,0.432,3.609
1939.0,-13.844,-1.861,0.847,-3.612,0.395,3.486
1943.0,-13.844,-1.861,0.847,-3.612,0.395,3.486
1947.0,-13.96,-1.853,0.855,-3.595,0.34,3.316
1951.0,-13.96,-1.853,0.855,-3.595,0.34,3.316
1955.0,-13.96,-1.81,0.909,-3.595,0.34,3.316
1959.0,-14.225,-1.81,0.909,-3.556,0.27,3.099
1963.0,-14.225,-1.81,0.909,-3.556,0.27,3.099
1967.0,-14.221,-1.879,0.957,-3.487,0.187,2.857
1971.0,-14.221,-1.879,0.957,-3.487,0.187,2.857
1975.0,-14.14,-1.771,0.915,-3.487,0.187,2.857
1979.0,-14.14,-1.771,0.915,-3.395,0.088,2.578
1983.0,-14.14,-1.771,0.915,-3.395,0.088,2.578
1987.0,-14.197,-1.546,0.861,-3.296,-0.004,2.291
1991.0,-14.197,-1.546,0.861,-3.296,-0.004,2.291
1995.0,-14.157,-1.388,0.842,-3.296,-0.078,2.019
1999.0,-14.157,-1.388,0.842,-3.186,-0.078,2.019
2003.0,-14.157,-1.388,0.842,-3.186,-0.078,2.019
2007.0,-13.877,-1.213,0.947,-3.06,-0.146,1.768
2011.0,-13.877,-1.213,0.947,-3.06,-0.146,1.768
2015.0,-13.527,-1.06,1.098,-2.924,-0.221,1.537
2019.0,-13.527,-1.06,1.098,-2.924,-0.221,1.537
2024.0,-13.527,-1.06,1.098,-2.924,-0.221,1.537
2028.0,-13.39,-0.983,1.155,-2.775,-0.296,1.312
2032.0,-13.39,-0.983,1.155,-2.775,-0.296,1.312
2036.0,-13.554,-0.91,1.101,-2.62,-0.355,1.092
2040.0,-13.554,-0.91,1.101,-2.62,-0.355,1.092
2044.0,-13.912,-0.911,1.01,-2.62,-0.355,1.092
2048.0,-13.912,-0.911,1.01,-2.473,-0.4,0.889
2052.0,-13.912,-0.911,1.01,-2.473,-0.4,0.889
2056.0,-14.368,-0.97,0.982,-2.341,-0.429,0.714
2060.0,-14.368,-0.97,0.982,-2.341,-0.429,0.714
2064.0,-14.951,-1.046,1.048,-2.223,-0.441,0.571
2068.0,-14.951,-1.046,1.048,-2.223,-0.441,0.571
2073.0,-14.951,-1.046,1.048,-2.223,-0.441,0.571
2077.0,-15.382,-1.156,1.205,-2.118,-0.449,0.467
2081.0,-15.382,-1.156,1.205,-2.118,-0.449,0.467
2085.0,-15.396,-1.292,1.344,-2.03,-0.468,0.415
2089.0,-15.396,-1.292,1.344,-2.03,-0.468,0.415
2093.0,-15.396,-1.292,1.426,-2.03,-0.468,0.415
2097.0,-14.885,-1.419,1.426,-1.966,-0.495,0.418
2101.0,-14.885,-1.419,1.426,-1.966,-0.495,0.418
2105.0,-14.031,-1.557,1.561,-1.927,-0.512,0.473
2109.0,-14.031,-1.557,1.561,-1.927,-0.512,0.473
2113.0,-13.152,-1.739,1.635,-1.927,-0.512,0.573
2117.0,-13.152,-1.739,1.635,-1.905,-0.509,0.573
2121.0,-13.152,-1.739,1.635,-1.905,-0.509,0.573
2126.0,-12.309,-1.896,1.737,-1.894,-0.484,0.71
2130.0,-12.309,-1.896,1.737,-1.894,-0.484,0.71
2134.0,-11.492,-2.044,1.857,-1.887,-0.447,0.882
2138.0,-11.492,-2.044,1.857,-1.887,-0.447,0.882
2142.0,-11.492,-2.044,1.857,-1.887,-0.447,0.882
2146.0,-10.761,-2.194,1.909,-1.882,-0.41,1.081
2150.0,-10.761,-2.194,1.909,-1.882,-0.41,1.081
2154.0,-10.178,-2.347,1.927,-1.878,-0.371,1.292
2158.0,-10.178,-2.347,1.927,-1.878,-0.371,1.292
2162.0,-10.178,-2.495,1.876,-1.878,-0.371,1.292
2166.0,-9.729,-2.495,1.876,-1.872,-0.33,1.505
2170.0,-9.729,-2.495,1.876,-1.872,-0.33,1.505
2174.0,-9.422,-2.621,1.793,-1.865,-0.289,1.717
2178.0,-9.422,-2.621,1.793,-1.865,-0.289,1.717
2182.0,-9.325,-2.746,1.686,-1.865,-0.289,1.926
2186.0,-9.325,-2.746,1.686,-1.857,-0.237,1.926
2190.0,-9.325,-2.746,1.686,-1.857,-0.237,1.926
2194.0,-9.492,-2.852,1.595,-1.846,-0.168,2.13
2198.0,-9.492,-2.852,1.595,-1.846,-0.168,2.13
2202.0,-9.936,-2.932,1.525,-1.846,-0.083,2.333
2206.0,-9.936,-2.932,1.525,-1.832,-0.083,2.333
2210.0,-9.936,-2.932,1.525,-1.832,-0.083,2.333
2214.0,-10.6,-3.012,1.531,-1.81,0.006,2.538
2218.0,-10.6,-3.012,1.531,-1.81,0.006,2.538
2222.0,-11.247,-3.121,1.574,-1.778,0.078,2.741
2226.0,-11.247,-3.121,1.574,-1.778,0.078,2.741
2230.0,-11.247,-3.121,1.574,-1.778,0.078,2.741
2234.0,-11.748,-3.3,1.659,-1.733,0.116,2.931
2238.0,-11.748,-3.3,1.659,-1.733,0.116,2.931
2242.0,-12.101,-3.497,1.806,-1.671,0.113,3.086
2246.0,-12.101,-3.497,1.806,-1.671,0.113,3.086
2250.0,-12.101,-3.497,1.806,-1.671,0.113,3.086
2254.0,-12.346,-3.693,1.967,-1.588,0.072,3.175
2258.0,-12.346,-3.693,1.967,-1.588,0.072,3.175
2262.0,-12.461,-3.855,2.019,-1.485,-0.004,3.179
2266.0,-12.461,-3.855,2.019,-1.485,-0.004,3.179
2270.0,-12.461,-3.855,2.019,-1.485,-0.004,3.179
2274.0,-12.361,-3.956,1.953,-1.374,-0.098,3.087
2279.0,-12.361,-3.956,1.953,-1.374,-0.098,3.087
2283.0,-11.918,-3.962,1.833,-1.262,-0.198,2.898
2287.0,-11.918,-3.962,1.833,-1.262,-0.198,2.898
2291.0,-11.166,-3.894,1.62,-1.262,-0.198,2.898
2295.0,-11.166,-3.894,1.62,-1.159,-0.293,2.607
2299.0,-11.166,-3.894,1.62,-1.159,-0.293,2.607
2303.0,-10.025,-3.753,1.147,-1.068,-0.368,2.219
2307.0,-10.025,-3.753,1.147,-1.068,-0.368,2.219
2311.0,-8.621,-3.52,0.565,-0.992,-0.384,1.741
2315.0,-8.621,-3.52,0.565,-0.992,-0.384,1.741
2319.0,-8.621,-3.52,0.565,-0.992,-0.384,1.741
2323.0,-7.283,-3.148,0.223,-0.936,-0.323,1.19
2327.0,-7.283,-3.148,0.223,-0.936,-0.323,1.19
2331.0,-6.541,-2.55,0.538,-0.893,-0.211,0.618
2335.0,-6.541,-2.55,0.538,-0.893,-0.211,0.618
2339.0,-6.541,-2.55,0.538,-0.893,-0.211,0.618
2343.0,-6.454,-1.856,1.058,-0.844,-0.115,0.108
2347.0,-6.454,-1.856,1.058,-0.844,-0.115,0.108
2351.0,-6.744,-1.297,1.372,-0.77,-0.068,-0.281
2355.0,-6.744,-1.297,1.372,-0.77,-0.068,-0.281
2359.0,-6.744,-1.297,1.372,-0.77,-0.068,-0.281
2363.0,-7.08,-1.025,1.417,-0.659,-0.061,-0.549
2367.0,-7.08,-1.025,1.417,-0.659,-0.061,-0.549
2371.0,-7.272,-1.025,1.306,-0.512,-0.063,-0.737
2376.0,-7.272,-1.025,1.306,-0.512,-0.063,-0.737
2380.0,-7.311,-1.243,1.128,-0.512,-0.063,-0.737
2384.0,-7.311,-1.243,1.128,-0.345,-0.052,-0.885
2388.0,-7.311,-1.243,1.128,-0.345,-0.052,-0.885
2392.0,-7.249,-1.485,0.992,-0.187,-0.018,-1.016
2396.0,-7.249,-1.485,0.992,-0.187,-0.018,-1.016
2400.0,-7.235,-1.722,0.913,-0.054,0.032,-1.137
2404.0,-7.235,-1.722,0.913,-0.054,0.032,-1.137
2408.0,-7.235,-1.722,0.913,-0.054,0.032,-1.137
2412.0,-7.31,-1.987,0.886,0.049,0.09,-1.246
2416.0,-7.31,-1.987,0.886,0.049,0.09,-1.246
2420.0,-7.412,-2.285,0.896,0.128,0.141,-1.345
2424.0,-7.412,-2.285,0.896,0.128,0.141,-1.345
2428.0,-7.412,-2.285,0.896,0.128,0.141,-1.345
2432.0,-7.534,-2.632,0.944,0.187,0.181,-1.44
2435.0,-7.534,-2.632,0.944,0.187,0.181,-1.44
2439.0,-7.732,-2.927,0.995,0.226,0.206,-1.539
2443.0,-7.732,-2.927,0.995,0.226,0.206,-1.539
2447.0,-7.732,-2.927,0.995,0.226,0.206,-1.539
2451.0,-8.003,-3.112,1.013,0.244,0.222,-1.635
2455.0,-8.003,-3.112,1.013,0.244,0.222,-1.635
2459.0,-8.27,-3.197,1.115,0.244,0.238,-1.718
2463.0,-8.27,-3.197,1.115,0.245,0.238,-1.718
2467.0,-8.27,-3.197,1.115,0.245,0.238,-1.718
2471.0,-8.452,-3.211,1.222,0.23,0.244,-1.787
2475.0,-8.452,-3.211,1.222,0.23,0.244,-1.787
2478.0,-8.606,-3.225,1.259,0.23,0.244,-1.787
2482.0,-8.606,-3.225,1.259,0.206,0.246,-1.84
2486.0,-8.606,-3.225,1.259,0.206,0.246,-1.84
2490.0,-8.9,-3.194,1.235,0.183,0.264,-1.871
2494.0,-8.9,-3.194,1.235,0.183,0.264,-1.871
2498.0,-9.284,-3.08,1.289,0.183,0.264,-1.871
2502.0,-9.284,-3.08,1.289,0.165,0.3,-1.874
2506.0,-9.284,-3.08,1.289,0.165,0.3,-1.874
2510.0,-9.512,-2.875,1.426,0.162,0.338,-1.84
2514.0,-9.512,-2.875,1.426,0.162,0.338,-1.84
2517.0,-9.512,-2.875,1.574,0.162,0.338,-1.84
2521.0,-9.395,-2.708,1.574,0.182,0.355,-1.769
2525.0,-9.395,-2.708,1.574,0.182,0.355,-1.769
2529.0,-9.077,-2.606,1.637,0.232,0.356,-1.685
2533.0,-9.077,-2.606,1.637,0.232,0.356,-1.685
2537.0,-9.077,-2.606,1.637,0.232,0.356,-1.685
2541.0,-8.751,-2.526,1.573,0.312,0.356,-1.607
2545.0,-8.751,-2.526,1.573,0.312,0.356,-1.607
2549.0,-8.671,-2.465,1.383,0.412,0.373,-1.551
2553.0,-8.671,-2.465,1.383,0.412,0.373,-1.551
2557.0,-8.671,-2.465,1.383,0.412,0.373,-1.551
2560.0,-8.906,-2.393,1.183,0.52,0.423,-1.514
2564.0,-8.906,-2.393,1.183,0.52,0.423,-1.514
2568.0,-9.432,-2.354,1.102,0.624,0.499,-1.482
2572.0,-9.432,-2.354,1.102,0.624,0.499,-1.482
2576.0,-9.432,-2.354,1.102,0.624,0.499,-1.482
2580.0,-10.114,-2.378,1.175,0.726,0.582,-1.449
2584.0,-10.114,-2.378,1.175,0.726,0.582,-1.449
2588.0,-10.938,-2.506,1.387,0.832,0.652,-1.421
2592.0,-10.938,-2.506,1.387,0.832,0.652,-1.421
2596.0,-10.938,-2.506,1.387,0.832,0.652,-1.421
2600.0,-11.873,-2.681,1.671,0.953,0.694,-1.414
2604.0,-11.873,-2.681,1.671,0.953,0.694,-1.414
2608.0,-12.885,-2.883,1.981,1.102,0.697,-1.439
2612.0,-12.885,-2.883,1.981,1.102,0.697,-1.439
2616.0,-12.885,-2.883,1.981,1.102,0.697,-1.439
2620.0,-13.938,-3.005,2.247,1.283,0.655,-1.51
2624.0,-13.938,-3.005,2.247,1.283,0.655,-1.51
2628.0,-14.722,-2.959,2.301,1.498,0.569,-1.625
2632.0,-14.722,-2.959,2.301,1.498,0.569,-1.625
2636.0,-14.722,-2.959,2.224,1.498,0.569,-1.625
2640.0,-14.83,-2.694,2.224,1.732,0.447,-1.778
2644.0,-14.83,-2.694,2.224,1.732,0.447,-1.778
2648.0,-14.222,-2.278,2.08,1.965,0.299,-1.955
2652.0,-14.222,-2.278,2.08,1.965,0.299,-1.955
2656.0,-14.222,-1.795,2.044,1.965,0.299,-1.955
2660.0,-13.424,-1.795,2.044,2.188,0.149,-2.151
2664.0,-13.424,-1.795,2.044,2.188,0.149,-2.151
2668.0,-12.875,-1.374,1.979,2.399,0.002,-2.356
2672.0,-12.875,-1.374,1.979,2.399,0.002,-2.356
2676.0,-12.523,-0.972,1.939,2.399,0.002,-2.356
2680.0,-12.523,-0.972,1.939,2.598,-0.134,-2.551
2684.0,-12.523,-0.972,1.939,2.598,-0.134,-2.551
2688.0,-12.093,-0.741,2.327,2.786,-0.218,-2.744
2692.0,-12.093,-0.741,2.327,2.786,-0.218,-2.744
2696.0,-11.361,0.253,4.402,2.967,-0.186,-2.997
2700.0,-11.361,0.253,4.402,2.967,-0.186,-2.997
2704.0,-11.361,0.253,4.402,2.967,-0.186,-2.997
2708.0,-11.815,2.98,6.394,3.028,-0.095,-3.223
2712.0,-11.815,2.98,6.394,3.028,-0.095,-3.223
2716.0,-14.392,4.835,6.806,2.859,-0.135,-3.199
2720.0,-14.392,4.835,6.806,2.859,-0.135,-3.199
2724.0,-14.392,4.835,6.806,2.859,-0.135,-3.199
2728.0,-16.832,4.212,5.948,2.664,-0.405,-2.926
2732.0,-16.832,4.212,5.948,2.664,-0.405,-2.926
2736.0,-16.763,3.512,5.325,2.62,-0.78,-2.587
2740.0,-16.763,3.512,5.325,2.62,-0.78,-2.587
2744.0,-16.763,3.512,5.325,2.62,-0.78,-2.587
2748.0,-14.984,2.573,4.656,2.677,-1.1,-2.26
2752.0,-14.984,2.573,4.656,2.677,-1.1,-2.26
2756.0,-13.763,1.457,3.717,2.744,-1.341,-1.989
2760.0,-13.763,1.457,3.717,2.744,-1.341,-1.989
2764.0,-13.763,1.457,3.717,2.744,-1.341,-1.989
2768.0,-13.012,0.651,2.862,2.776,-1.523,-1.754
2772.0,-13.012,0.651,2.862,2.776,-1.523,-1.754
2776.0,-12.304,0.252,2.197,2.74,-1.649,-1.538
2780.0,-12.304,0.252,2.197,2.74,-1.649,-1.538
2784.0,-12.304,0.252,1.659,2.74,-1.649,-1.538
2788.0,-11.572,0.102,1.659,2.605,-1.734,-1.329
2792.0,-11.572,0.102,1.659,2.605,-1.734,-1.329
2796.0,-10.705,-0.036,1.4,2.37,-1.785,-1.129
2800.0,-10.705,-0.036,1.4,2.37,-1.785,-1.129
2804.0,-9.677,0.005,1.335,2.37,-1.785,-1.129
2808.0,-9.677,0.005,1.335,2.056,-1.825,-0.965
2812.0,-9.677,0.005,1.335,2.056,-1.825,-0.965
2816.0,-8.889,0.186,1.339,1.685,-1.856,-0.842
2820.0,-8.889,0.186,1.339,1.685,-1.856,-0.842
2824.0,-8.889,0.4,1.367,1.685,-1.856,-0.842
2828.0,-8.218,0.4,1.367,1.299,-1.865,-0.738
2831.0,-8.218,0.4,1.367,1.299,-1.865,-0.738
2835.0,-7.753,0.564,1.336,0.932,-1.862,-0.637
2839.0,-7.753,0.564,1.336,0.932,-1.862,-0.637
2843.0,-7.753,0.564,1.211,0.932,-1.862,-0.637
2847.0,-7.459,0.721,1.211,0.592,-1.842,-0.529
2851.0,-7.459,0.721,1.211,0.592,-1.842,-0.529
2855.0,-7.24,0.884,1.056,0.277,-1.807,-0.402
2859.0,-7.24,0.884,1.056,0.277,-1.807,-0.402
2863.0,-7.24,0.884,1.056,0.277,-1.807,-0.402
2867.0,-7.073,1.026,0.928,-0.02,-1.756,-0.253
2871.0,-7.073,1.026,0.928,-0.02,-1.756,-0.253
2875.0,-6.986,1.092,0.899,-0.301,-1.69,-0.083
2879.0,-6.986,1.092,0.899,-0.301,-1.69,-0.083
2883.0,-6.986,1.092,0.875,-0.301,-1.69,-0.083
2887.0,-7.021,1.085,0.875,-0.569,-1.611,0.105
2890.0,-7.021,1.085,0.875,-0.569,-1.611,0.105
2894.0,-7.11,1.042,0.866,-0.828,-1.517,0.306
2898.0,-7.11,1.042,0.866,-0.828,-1.517,0.306
2902.0,-7.11,1.042,0.866,-0.828,-1.517,0.306
2906.0,-7.28,0.945,0.884,-1.086,-1.409,0.51
2910.0,-7.28,0.945,0.884,-1.086,-1.409,0.51
2914.0,-7.505,0.793,0.899,-1.348,-1.297,0.709
2918.0,-7.505,0.793,0.899,-1.348,-1.297,0.709
2922.0,-7.505,0.793,0.899,-1.348,-1.297,0.709
2926.0,-7.768,0.567,0.87,-1.617,-1.185,0.898
2930.0,-7.768,0.567,0.87,-1.617,-1.185,0.898
2933.0,-7.988,0.252,0.836,-1.893,-1.078,1.071
2937.0,-7.988,0.252,0.836,-1.893,-1.078,1.071
2941.0,-7.988,0.252,0.836,-1.893,-1.078,1.071
2945.0,-8.203,-0.045,0.768,-2.169,-0.975,1.225
2949.0,-8.203,-0.045,0.768,-2.169,-0.975,1.225
2953.0,-8.42,-0.316,0.688,-2.442,-0.877,1.361
2957.0,-8.42,-0.316,0.688,-2.442,-0.877,1.361
2961.0,-8.42,-0.316,0.688,-2.442,-0.877,1.361
2965.0,-8.634,-0.567,0.581,-2.707,-0.78,1.486
2969.0,-8.634,-0.567,0.581,-2.707,-0.78,1.486
2973.0,-8.833,-0.772,0.502,-2.957,-0.688,1.602
2977.0,-8.833,-0.772,0.502,-2.957,-0.688,1.602
2981.0,-8.833,-0.772,0.502,-2.957,-0.688,1.602
2985.0,-9.041,-0.949,0.444,-3.185,-0.604,1.713
2989.0,-9.041,-0.949,0.444,-3.185,-0.604,1.713
2993.0,-9.273,-1.089,0.376,-3.383,-0.53,1.822
2997.0,-9.273,-1.089,0.376,-3.383,-0.53,1.822
