deltaTime,Acc_X,Acc_Y,Acc_Z,Gyro_X,Gyro_Y,Gyro_Z
0.0,-7.729,-4.204,0.867,0.78,-0.298,0.366
3.0,-7.729,-4.204,0.867,0.78,-0.298,0.366
6.0,-7.729,-4.204,0.867,0.78,-0.298,0.366
9.0,-7.692,-3.709,0.605,0.983,-0.308,0.337
12.0,-7.692,-3.709,0.605,0.983,-0.308,0.337
15.0,-7.692,-3.709,0.605,0.983,-0.308,0.337
18.0,-7.692,-3.709,0.435,0.983,-0.308,0.337
21.0,-7.518,-2.853,0.435,1.086,-0.33,0.268
24.0,-7.518,-2.853,0.435,1.086,-0.33,0.268
27.0,-7.518,-2.853,0.435,1.086,-0.33,0.268
30.0,-7.658,-1.717,-0.16,1.006,-0.234,0.197
33.0,-7.658,-1.717,-0.16,1.006,-0.234,0.197
36.0,-7.658,-1.717,-0.16,1.006,-0.234,0.197
40.0,-7.917,-1.153,-0.364,0.753,-0.187,0.135
44.0,-7.917,-1.153,-0.364,0.753,-0.187,0.135
47.0,-7.917,-1.153,-0.412,0.753,-0.187,0.135
51.0,-8.167,-1.079,-0.412,0.402,-0.147,0.113
55.0,-8.167,-1.079,-0.412,0.402,-0.147,0.113
59.0,-8.338,-1.296,-0.399,0.05,-0.117,0.113
63.0,-8.338,-1.296,-0.399,0.05,-0.117,0.113
66.0,-8.338,-1.296,-0.399,0.05,-0.117,0.113
70.0,-8.386,-1.515,-0.227,-0.263,-0.086,0.115
74.0,-8.386,-1.515,-0.227,-0.263,-0.086,0.115
78.0,-8.232,-1.561,0.102,-0.539,-0.043,0.105
82.0,-8.232,-1.561,0.102,-0.539,-0.043,0.105
86.0,-8.232,-1.561,0.102,-0.539,-0.043,0.105
90.0,-7.957,-1.341,0.441,-0.801,-0.019,0.068
93.0,-7.957,-1.341,0.441,-0.801,-0.019,0.068
97.0,-7.664,-1.26,0.647,-0.801,-0.019,0.019
101.0,-7.664,-1.26,0.647,-1.076,-0.024,0.019
105.0,-7.664,-1.26,0.647,-1.076,-0.024,0.019
109.0,-7.464,-1.588,0.785,-1.326,-0.039,-0.004
113.0,-7.464,-1.588,0.785,-1.326,-0.039,-0.004
117.0,-7.265,-1.786,0.915,-1.326,-0.039,-0.004
121.0,-7.265,-1.786,0.915,-1.499,-0.052,-0.012
125.0,-7.265,-1.786,0.915,-1.499,-0.052,-0.012
129.0,-6.924,-2.077,1.035,-1.614,-0.063,-0.015
133.0,-6.924,-2.077,1.035,-1.614,-0.063,-0.015
137.0,-6.668,-2.625,1.107,-1.614,-0.063,0.007
141.0,-6.668,-2.625,1.107,-1.652,-0.077,0.007
145.0,-6.668,-2.625,1.107,-1.652,-0.077,0.007
148.0,-6.455,-2.995,1.129,-1.579,-0.098,0.038
152.0,-6.455,-2.995,1.129,-1.579,-0.098,0.038
156.0,-6.297,-2.913,1.001,-1.579,-0.098,0.038
160.0,-6.297,-2.913,1.001,-1.438,-0.122,0.045
164.0,-6.297,-2.913,1.001,-1.438,-0.122,0.045
168.0,-6.173,-2.467,0.799,-1.311,-0.146,0.025
172.0,-6.173,-2.467,0.799,-1.311,-0.146,0.025
176.0,-6.173,-1.985,0.665,-1.311,-0.146,0.025
180.0,-6.2,-1.985,0.665,-1.247,-0.161,-0.004
184.0,-6.2,-1.985,0.665,-1.247,-0.161,-0.004
188.0,-6.115,-1.632,0.534,-1.24,-0.161,-0.024
192.0,-6.115,-1.632,0.534,-1.24,-0.161,-0.024
196.0,-5.877,-1.363,0.409,-1.24,-0.161,-0.024
200.0,-5.877,-1.363,0.409,-1.267,-0.147,-0.036
204.0,-5.877,-1.363,0.409,-1.267,-0.147,-0.036
208.0,-5.946,-1.233,0.385,-1.31,-0.12,-0.045
212.0,-5.946,-1.233,0.385,-1.31,-0.12,-0.045
216.0,-6.202,-1.199,0.454,-1.31,-0.12,-0.038
220.0,-6.202,-1.199,0.454,-1.348,-0.091,-0.038
224.0,-6.202,-1.199,0.454,-1.348,-0.091,-0.038
228.0,-6.565,-1.102,0.639,-1.371,-0.052,-0.007
232.0,-6.565,-1.102,0.639,-1.371,-0.052,-0.007
236.0,-6.916,-0.646,0.846,-1.371,-0.013,0.022
240.0,-6.916,-0.646,0.846,-1.414,-0.013,0.022
243.0,-6.916,-0.646,0.846,-1.414,-0.013,0.022
247.0,-7.047,-0.319,1.136,-1.505,0.009,0.034
251.0,-7.047,-0.319,1.136,-1.505,0.009,0.034
255.0,-7.093,0.101,1.379,-1.505,0.009,0.034
259.0,-7.093,0.101,1.379,-1.621,0.017,0.043
262.0,-7.093,0.101,1.379,-1.621,0.017,0.043
266.0,-7.26,0.624,1.528,-1.783,0.01,0.059
270.0,-7.26,0.624,1.528,-1.783,0.01,0.059
274.0,-7.26,0.624,1.528,-1.783,0.01,0.059
277.0,-7.712,1.069,1.388,-2.011,0.006,0.093
281.0,-7.712,1.069,1.388,-2.011,0.006,0.093
285.0,-8.548,1.147,1.132,-2.011,0.039,0.147
289.0,-8.548,1.147,1.132,-2.302,0.039,0.147
292.0,-8.548,1.147,1.132,-2.302,0.039,0.147
296.0,-9.743,0.856,1.007,-2.602,0.1,0.23
300.0,-9.743,0.856,1.007,-2.602,0.1,0.23
304.0,-9.743,0.856,1.007,-2.602,0.1,0.23
307.0,-10.932,0.142,1.121,-2.845,0.128,0.35
311.0,-10.932,0.142,1.121,-2.845,0.128,0.35
315.0,-11.654,-0.445,1.256,-2.972,0.065,0.489
319.0,-11.654,-0.445,1.256,-2.972,0.065,0.489
323.0,-11.654,-0.445,1.256,-2.972,0.065,0.489
327.0,-10.965,-0.747,1.391,-2.993,-0.068,0.604
331.0,-10.965,-0.747,1.391,-2.993,-0.068,0.604
335.0,-10.12,-0.871,1.341,-2.942,-0.185,0.675
339.0,-10.12,-0.871,1.341,-2.942,-0.185,0.675
343.0,-10.12,-0.871,1.341,-2.942,-0.185,0.675
347.0,-9.669,-0.762,0.986,-2.863,-0.25,0.724
350.0,-9.669,-0.762,0.986,-2.863,-0.25,0.724
354.0,-9.799,-0.589,0.739,-2.806,-0.257,0.794
358.0,-9.799,-0.589,0.739,-2.806,-0.257,0.794
362.0,-9.799,-0.589,0.739,-2.806,-0.257,0.794
366.0,-10.411,-0.529,0.603,-2.783,-0.215,0.881
370.0,-10.411,-0.529,0.603,-2.783,-0.215,0.881
374.0,-11.432,-0.546,0.791,-2.821,-0.158,0.977
378.0,-11.432,-0.546,0.791,-2.821,-0.158,0.977
382.0,-11.432,-0.546,0.791,-2.821,-0.158,0.977
386.0,-12.789,-0.745,1.25,-2.927,-0.127,1.062
390.0,-12.789,-0.745,1.25,-2.927,-0.127,1.062
394.0,-14.185,-1.322,1.853,-3.091,-0.16,1.112
398.0,-14.185,-1.322,1.853,-3.091,-0.16,1.112
402.0,-14.185,-1.322,1.853,-3.091,-0.16,1.112
406.0,-15.081,-2.101,2.344,-3.281,-0.261,1.105
410.0,-15.081,-2.101,2.344,-3.281,-0.261,1.105
414.0,-15.268,-2.772,2.547,-3.464,-0.388,1.054
418.0,-15.268,-2.772,2.547,-3.464,-0.388,1.054
422.0,-15.268,-2.772,2.547,-3.464,-0.388,1.054
426.0,-14.935,-3.22,2.729,-3.615,-0.486,1.003
430.0,-14.935,-3.22,2.729,-3.615,-0.486,1.003
434.0,-14.601,-3.401,2.8,-3.712,-0.523,1.0
438.0,-14.601,-3.401,2.8,-3.712,-0.523,1.0
442.0,-14.601,-3.401,2.8,-3.712,-0.523,1.0
446.0,-14.423,-3.508,2.486,-3.731,-0.472,1.075
450.0,-14.423,-3.508,2.486,-3.731,-0.472,1.075
454.0,-14.308,-3.378,2.22,-3.657,-0.329,1.216
458.0,-14.308,-3.378,2.22,-3.657,-0.329,1.216
462.0,-14.308,-3.378,2.13,-3.657,-0.329,1.216
466.0,-14.035,-2.812,2.13,-3.514,-0.163,1.41
470.0,-14.035,-2.812,2.13,-3.514,-0.163,1.41
474.0,-13.528,-2.359,2.134,-3.321,-0.013,1.648
478.0,-13.528,-2.359,2.134,-3.321,-0.013,1.648
482.0,-13.092,-2.23,2.269,-3.321,-0.013,1.648
486.0,-13.092,-2.23,2.269,-3.067,0.119,1.88
490.0,-13.092,-2.23,2.269,-3.067,0.119,1.88
494.0,-12.831,-2.217,2.546,-2.749,0.221,2.072
498.0,-12.831,-2.217,2.546,-2.749,0.221,2.072
502.0,-12.831,-2.352,2.852,-2.749,0.221,2.072
505.0,-12.824,-2.352,2.852,-2.386,0.285,2.223
509.0,-12.824,-2.352,2.852,-2.386,0.285,2.223
513.0,-12.971,-2.521,3.018,-1.987,0.323,2.348
517.0,-12.971,-2.521,3.018,-1.987,0.323,2.348
521.0,-12.971,-2.521,3.081,-1.987,0.323,2.348
525.0,-13.073,-2.741,3.081,-1.567,0.345,2.471
529.0,-13.073,-2.741,3.081,-1.567,0.345,2.471
533.0,-13.03,-3.022,3.068,-1.142,0.351,2.591
537.0,-13.03,-3.022,3.068,-1.142,0.351,2.591
541.0,-13.03,-3.022,3.068,-1.142,0.351,2.591
544.0,-12.808,-3.31,3.004,-0.73,0.339,2.684
548.0,-12.808,-3.31,3.004,-0.73,0.339,2.684
552.0,-12.433,-3.575,2.996,-0.35,0.316,2.73
556.0,-12.433,-3.575,2.996,-0.35,0.316,2.73
560.0,-12.433,-3.575,2.996,-0.35,0.316,2.73
564.0,-12.135,-3.724,3.075,-0.011,0.281,2.729
568.0,-12.135,-3.724,3.075,-0.011,0.281,2.729
572.0,-11.992,-3.748,2.995,0.281,0.235,2.701
576.0,-11.992,-3.748,2.995,0.281,0.235,2.701
579.0,-11.992,-3.748,2.995,0.281,0.235,2.701
583.0,-11.987,-3.675,2.838,0.52,0.187,2.661
587.0,-11.987,-3.675,2.838,0.52,0.187,2.661
591.0,-12.05,-3.555,2.728,0.52,0.144,2.61
595.0,-12.05,-3.555,2.728,0.702,0.144,2.61
599.0,-12.05,-3.555,2.728,0.702,0.144,2.61
602.0,-12.137,-3.407,2.691,0.83,0.099,2.548
606.0,-12.137,-3.407,2.691,0.83,0.099,2.548
610.0,-12.137,-3.173,2.698,0.83,0.099,2.548
614.0,-12.186,-3.173,2.698,0.911,0.046,2.472
618.0,-12.186,-3.173,2.698,0.911,0.046,2.472
621.0,-12.194,-2.91,2.754,0.952,-0.016,2.383
625.0,-12.194,-2.91,2.754,0.952,-0.016,2.383
629.0,-12.194,-2.91,2.754,0.952,-0.016,2.383
633.0,-12.114,-2.676,2.87,0.964,-0.087,2.275
637.0,-12.114,-2.676,2.87,0.964,-0.087,2.275
641.0,-11.868,-2.467,3.084,0.955,-0.179,2.141
645.0,-11.868,-2.467,3.084,0.955,-0.179,2.141
649.0,-11.868,-2.467,3.084,0.955,-0.179,2.141
653.0,-11.352,-2.292,3.178,0.93,-0.304,1.982
657.0,-11.352,-2.292,3.178,0.93,-0.304,1.982
661.0,-10.585,-2.121,3.052,0.893,-0.457,1.796
664.0,-10.585,-2.121,3.052,0.893,-0.457,1.796
668.0,-10.585,-2.121,3.052,0.893,-0.457,1.796
672.0,-9.738,-1.979,2.748,0.842,-0.606,1.583
676.0,-9.738,-1.979,2.748,0.842,-0.606,1.583
680.0,-9.065,-1.9,2.335,0.78,-0.718,1.348
684.0,-9.065,-1.9,2.335,0.78,-0.718,1.348
688.0,-9.065,-1.9,2.335,0.78,-0.718,1.348
691.0,-8.858,-1.872,1.944,0.704,-0.773,1.107
695.0,-8.858,-1.872,1.944,0.704,-0.773,1.107
699.0,-9.029,-1.931,1.625,0.704,-0.773,1.107
703.0,-9.029,-1.931,1.625,0.62,-0.784,0.871
707.0,-9.029,-1.931,1.625,0.62,-0.784,0.871
710.0,-9.591,-2.113,1.517,0.536,-0.775,0.644
714.0,-9.591,-2.113,1.517,0.536,-0.775,0.644
718.0,-9.591,-2.113,1.517,0.536,-0.775,0.644
722.0,-10.321,-2.302,1.54,0.462,-0.788,0.415
726.0,-10.321,-2.302,1.54,0.462,-0.788,0.415
730.0,-10.648,-2.445,1.478,0.408,-0.853,0.179
734.0,-10.648,-2.445,1.478,0.408,-0.853,0.179
738.0,-10.648,-2.445,1.478,0.408,-0.853,0.179
741.0,-10.469,-2.507,1.37,0.378,-0.953,-0.062
745.0,-10.469,-2.507,1.37,0.378,-0.953,-0.062
749.0,-10.027,-2.451,1.177,0.364,-1.047,-0.295
753.0,-10.027,-2.451,1.177,0.364,-1.047,-0.295
757.0,-10.027,-2.451,1.177,0.364,-1.047,-0.295
761.0,-9.549,-2.353,1.022,0.363,-1.106,-0.506
765.0,-9.549,-2.353,1.022,0.363,-1.106,-0.506
769.0,-9.214,-2.292,0.961,0.372,-1.129,-0.685
773.0,-9.214,-2.292,0.961,0.372,-1.129,-0.685
777.0,-9.214,-2.292,0.961,0.372,-1.129,-0.685
781.0,-9.071,-2.273,0.939,0.386,-1.135,-0.836
785.0,-9.071,-2.273,0.939,0.386,-1.135,-0.836
789.0,-9.023,-2.258,0.869,0.404,-1.145,-0.971
793.0,-9.023,-2.258,0.869,0.404,-1.145,-0.971
797.0,-9.023,-2.258,0.869,0.404,-1.145,-0.971
800.0,-9.028,-2.271,0.785,0.426,-1.163,-1.096
804.0,-9.028,-2.271,0.785,0.426,-1.163,-1.096
808.0,-9.007,-2.283,0.684,0.455,-1.182,-1.211
812.0,-9.007,-2.283,0.684,0.455,-1.182,-1.211
816.0,-9.007,-2.283,0.684,0.455,-1.182,-1.211
820.0,-8.951,-2.302,0.607,0.49,-1.196,-1.316
824.0,-8.951,-2.302,0.607,0.49,-1.196,-1.316
828.0,-8.94,-2.311,0.467,0.49,-1.207,-1.41
832.0,-8.94,-2.311,0.467,0.534,-1.207,-1.41
836.0,-8.94,-2.311,0.467,0.534,-1.207,-1.41
840.0,-8.966,-2.297,0.301,0.586,-1.218,-1.495
843.0,-8.966,-2.297,0.301,0.586,-1.218,-1.495
847.0,-8.978,-2.28,0.113,0.586,-1.218,-1.578
851.0,-8.978,-2.28,0.113,0.648,-1.225,-1.578
855.0,-8.978,-2.28,0.113,0.648,-1.225,-1.578
859.0,-8.929,-2.238,-0.042,0.722,-1.223,-1.655
863.0,-8.929,-2.238,-0.042,0.722,-1.223,-1.655
867.0,-8.73,-2.159,-0.144,0.722,-1.223,-1.722
871.0,-8.73,-2.159,-0.144,0.805,-1.216,-1.722
875.0,-8.73,-2.159,-0.144,0.805,-1.216,-1.722
879.0,-8.35,-2.076,-0.232,0.892,-1.207,-1.781
883.0,-8.35,-2.076,-0.232,0.892,-1.207,-1.781
887.0,-7.835,-1.961,-0.343,0.892,-1.199,-1.843
891.0,-7.835,-1.961,-0.343,0.976,-1.199,-1.843
895.0,-7.835,-1.961,-0.343,0.976,-1.199,-1.843
899.0,-7.35,-1.826,-0.412,1.055,-1.188,-1.907
903.0,-7.35,-1.826,-0.412,1.055,-1.188,-1.907
907.0,-6.929,-1.691,-0.489,1.127,-1.176,-1.972
911.0,-6.929,-1.691,-0.489,1.127,-1.176,-1.972
915.0,-6.929,-1.691,-0.489,1.127,-1.176,-1.972
919.0,-6.571,-1.563,-0.548,1.189,-1.16,-2.03
923.0,-6.571,-1.563,-0.548,1.189,-1.16,-2.03
927.0,-6.246,-1.461,-0.586,1.237,-1.137,-2.074
931.0,-6.246,-1.461,-0.586,1.237,-1.137,-2.074
935.0,-6.246,-1.461,-0.586,1.237,-1.137,-2.074
939.0,-6.041,-1.401,-0.593,1.269,-1.105,-2.102
943.0,-6.041,-1.401,-0.593,1.269,-1.105,-2.102
947.0,-5.981,-1.414,-0.526,1.28,-1.072,-2.114
951.0,-5.981,-1.414,-0.526,1.28,-1.072,-2.114
955.0,-5.981,-1.414,-0.526,1.28,-1.072,-2.114
959.0,-6.015,-1.481,-0.492,1.265,-1.049,-2.116
963.0,-6.015,-1.481,-0.492,1.265,-1.049,-2.116
967.0,-6.005,-1.545,-0.452,1.228,-1.038,-2.112
971.0,-6.005,-1.545,-0.452,1.228,-1.038,-2.112
975.0,-6.005,-1.545,-0.452,1.228,-1.038,-2.112
979.0,-5.898,-1.687,-0.413,1.171,-1.034,-2.113
983.0,-5.898,-1.687,-0.413,1.171,-1.034,-2.113
987.0,-5.862,-1.85,-0.428,1.099,-1.03,-2.127
991.0,-5.862,-1.85,-0.428,1.099,-1.03,-2.127
995.0,-5.862,-1.85,-0.54,1.099,-1.03,-2.127
999.0,-6.092,-1.975,-0.54,1.007,-1.016,-2.152
1003.0,-6.092,-1.975,-0.54,1.007,-1.016,-2.152
1007.0,-6.601,-2.255,-0.571,0.892,-0.98,-2.178
1011.0,-6.601,-2.255,-0.571,0.892,-0.98,-2.178
1015.0,-7.203,-2.594,-0.577,0.892,-0.98,-2.178
1019.0,-7.203,-2.594,-0.577,0.76,-0.934,-2.202
1023.0,-7.203,-2.594,-0.577,0.76,-0.934,-2.202
1027.0,-7.668,-2.915,-0.532,0.636,-0.891,-2.226
1031.0,-7.668,-2.915,-0.532,0.636,-0.891,-2.226
1035.0,-8.078,-3.156,-0.449,0.54,-0.852,-2.243
1040.0,-8.078,-3.156,-0.449,0.54,-0.852,-2.243
1044.0,-8.078,-3.156,-0.449,0.54,-0.852,-2.243
1048.0,-8.519,-3.37,-0.366,0.473,-0.811,-2.236
1052.0,-8.519,-3.37,-0.366,0.473,-0.811,-2.236
1056.0,-8.989,-3.517,-0.331,0.43,-0.766,-2.191
1060.0,-8.989,-3.517,-0.331,0.43,-0.766,-2.191
1064.0,-8.989,-3.517,-0.257,0.43,-0.766,-2.191
1068.0,-9.39,-3.742,-0.257,0.407,-0.715,-2.103
1072.0,-9.39,-3.742,-0.257,0.407,-0.715,-2.103
1076.0,-9.828,-4.178,-0.001,0.398,-0.668,-1.997
1080.0,-9.828,-4.178,-0.001,0.398,-0.668,-1.997
1084.0,-10.445,-4.596,0.19,0.398,-0.641,-1.913
1088.0,-10.445,-4.596,0.19,0.394,-0.641,-1.913
1093.0,-10.445,-4.596,0.19,0.394,-0.641,-1.913
1097.0,-11.294,-4.884,0.216,0.386,-0.625,-1.855
1101.0,-11.294,-4.884,0.216,0.386,-0.625,-1.855
1105.0,-12.368,-5.075,0.185,0.362,-0.604,-1.799
1109.0,-12.368,-5.075,0.185,0.362,-0.604,-1.799
1113.0,-12.368,-5.075,0.185,0.362,-0.604,-1.799
1117.0,-13.472,-5.268,0.129,0.315,-0.574,-1.718
1121.0,-13.472,-5.268,0.129,0.315,-0.574,-1.718
1125.0,-14.509,-5.485,0.151,0.248,-0.534,-1.607
1129.0,-14.509,-5.485,0.151,0.248,-0.534,-1.607
1133.0,-15.396,-5.638,0.191,0.248,-0.534,-1.607
1137.0,-15.396,-5.638,0.191,0.172,-0.482,-1.484
1142.0,-15.396,-5.638,0.191,0.172,-0.482,-1.484
1146.0,-15.703,-5.746,0.302,0.099,-0.431,-1.368
1150.0,-15.703,-5.746,0.302,0.099,-0.431,-1.368
1154.0,-15.291,-5.806,0.414,0.042,-0.4,-1.29
1158.0,-15.291,-5.806,0.414,0.042,-0.4,-1.29
1162.0,-15.291,-5.806,0.414,0.042,-0.4,-1.29
1166.0,-14.608,-5.69,0.397,0.006,-0.369,-1.26
1170.0,-14.608,-5.69,0.397,0.006,-0.369,-1.26
1174.0,-13.987,-5.47,0.239,-0.011,-0.312,-1.262
1178.0,-13.987,-5.47,0.239,-0.011,-0.312,-1.262
1183.0,-13.987,-5.247,0.1,-0.011,-0.312,-1.262
1187.0,-13.531,-5.247,0.1,-0.023,-0.221,-1.257
1191.0,-13.531,-5.247,0.1,-0.023,-0.221,-1.257
1195.0,-13.058,-5.143,0.068,-0.042,-0.101,-1.227
1199.0,-13.058,-5.143,0.068,-0.042,-0.101,-1.227
1203.0,-12.33,-5.079,0.197,-0.068,0.033,-1.18
1207.0,-12.33,-5.079,0.197,-0.068,0.033,-1.18
1211.0,-12.33,-5.079,0.197,-0.068,0.033,-1.18
1216.0,-11.393,-4.996,0.428,-0.102,0.159,-1.142
1220.0,-11.393,-4.996,0.428,-0.102,0.159,-1.142
1224.0,-10.471,-4.859,0.657,-0.147,0.27,-1.143
1228.0,-10.471,-4.859,0.657,-0.147,0.27,-1.143
1232.0,-10.471,-4.586,0.951,-0.147,0.27,-1.143
1236.0,-9.778,-4.586,0.951,-0.2,0.369,-1.186
1240.0,-9.778,-4.586,0.951,-0.2,0.369,-1.186
1244.0,-9.381,-4.268,1.222,-0.254,0.456,-1.246
1248.0,-9.381,-4.268,1.222,-0.254,0.456,-1.246
1252.0,-9.251,-3.952,1.421,-0.254,0.456,-1.246
1256.0,-9.251,-3.952,1.421,-0.311,0.543,-1.287
1260.0,-9.251,-3.952,1.421,-0.311,0.543,-1.287
1264.0,-9.331,-3.849,1.653,-0.368,0.641,-1.284
1268.0,-9.331,-3.849,1.653,-0.368,0.641,-1.284
1272.0,-9.688,-4.034,1.91,-0.368,0.741,-1.226
1276.0,-9.688,-4.034,1.91,-0.42,0.741,-1.226
1280.0,-9.688,-4.034,1.91,-0.42,0.741,-1.226
1284.0,-10.297,-4.362,2.097,-0.448,0.823,-1.126
1288.0,-10.297,-4.362,2.097,-0.448,0.823,-1.126
1292.0,-11.042,-4.692,2.154,-0.441,0.87,-1.005
1296.0,-11.042,-4.692,2.154,-0.441,0.87,-1.005
1300.0,-11.042,-4.692,2.154,-0.441,0.87,-1.005
1304.0,-11.768,-4.917,2.156,-0.395,0.88,-0.874
1308.0,-11.768,-4.917,2.156,-0.395,0.88,-0.874
1312.0,-12.363,-5.055,2.103,-0.318,0.857,-0.734
1317.0,-12.363,-5.055,2.103,-0.318,0.857,-0.734
1321.0,-12.363,-5.055,2.094,-0.318,0.857,-0.734
1325.0,-12.663,-5.084,2.094,-0.225,0.813,-0.584
1329.0,-12.663,-5.084,2.094,-0.225,0.813,-0.584
1333.0,-12.506,-5.006,2.154,-0.13,0.762,-0.439
1337.0,-12.506,-5.006,2.154,-0.13,0.762,-0.439
1341.0,-11.904,-4.814,2.311,-0.13,0.716,-0.318
1345.0,-11.904,-4.814,2.311,-0.041,0.716,-0.318
1349.0,-11.904,-4.814,2.311,-0.041,0.716,-0.318
1353.0,-11.104,-4.491,2.542,0.039,0.684,-0.243
1357.0,-11.104,-4.491,2.542,0.039,0.684,-0.243
1361.0,-10.322,-4.102,2.878,0.117,0.669,-0.214
1365.0,-10.322,-4.102,2.878,0.117,0.669,-0.214
1369.0,-10.322,-4.102,2.878,0.117,0.669,-0.214
1373.0,-9.622,-3.669,3.325,0.204,0.671,-0.223
1377.0,-9.622,-3.669,3.325,0.204,0.671,-0.223
1381.0,-8.912,-3.21,3.782,0.311,0.678,-0.257
1385.0,-8.912,-3.21,3.782,0.311,0.678,-0.257
1389.0,-8.912,-3.21,3.782,0.311,0.678,-0.257
1393.0,-8.277,-2.743,4.215,0.44,0.683,-0.299
1397.0,-8.277,-2.743,4.215,0.44,0.683,-0.299
1401.0,-7.815,-2.24,4.542,0.595,0.679,-0.337
1404.0,-7.815,-2.24,4.542,0.595,0.679,-0.337
1408.0,-7.815,-2.24,4.542,0.595,0.679,-0.337
1412.0,-7.481,-1.705,4.641,0.773,0.663,-0.348
1416.0,-7.481,-1.705,4.641,0.773,0.663,-0.348
1420.0,-7.219,-1.154,4.482,0.773,0.645,-0.312
1424.0,-7.219,-1.154,4.482,0.963,0.645,-0.312
1428.0,-7.219,-1.154,4.482,0.963,0.645,-0.312
1432.0,-6.939,-0.633,4.132,1.148,0.637,-0.216
1436.0,-6.939,-0.633,4.132,1.148,0.637,-0.216
1440.0,-6.634,-0.273,3.79,1.148,0.637,-0.075
1444.0,-6.634,-0.273,3.79,1.314,0.657,-0.075
1447.0,-6.634,-0.273,3.79,1.314,0.657,-0.075
1451.0,-6.333,-0.031,3.505,1.451,0.708,0.085
1455.0,-6.333,-0.031,3.505,1.451,0.708,0.085
1459.0,-6.333,0.133,3.383,1.451,0.708,0.085
1463.0,-6.167,0.133,3.383,1.553,0.772,0.238
1466.0,-6.167,0.133,3.383,1.553,0.772,0.238
1470.0,-6.202,0.312,3.393,1.614,0.819,0.376
1474.0,-6.202,0.312,3.393,1.614,0.819,0.376
1478.0,-6.202,0.312,3.393,1.614,0.819,0.376
1481.0,-6.302,0.44,3.414,1.625,0.833,0.502
1485.0,-6.302,0.44,3.414,1.625,0.833,0.502
1489.0,-6.328,0.488,3.312,1.625,0.833,0.502
1493.0,-6.328,0.488,3.312,1.583,0.815,0.621
1496.0,-6.328,0.488,3.312,1.583,0.815,0.621
1500.0,-6.451,0.467,3.103,1.489,0.789,0.733
1504.0,-6.451,0.467,3.103,1.489,0.789,0.733
1507.0,-6.451,0.467,3.103,1.489,0.789,0.733
1511.0,-6.642,0.505,2.883,1.349,0.784,0.843
1515.0,-6.642,0.505,2.883,1.349,0.784,0.843
1519.0,-6.968,0.467,2.805,1.349,0.802,0.958
1522.0,-6.968,0.467,2.805,1.165,0.802,0.958
1526.0,-6.968,0.467,2.805,1.165,0.802,0.958
1530.0,-7.509,0.405,2.669,0.959,0.842,1.091
1534.0,-7.509,0.405,2.669,0.959,0.842,1.091
1537.0,-7.509,0.405,2.669,0.959,0.842,1.091
1541.0,-8.104,0.413,2.508,0.741,0.897,1.237
1545.0,-8.104,0.413,2.508,0.741,0.897,1.237
1549.0,-8.593,0.389,2.475,0.508,0.957,1.385
1552.0,-8.593,0.389,2.475,0.508,0.957,1.385
1556.0,-8.593,0.389,2.475,0.508,0.957,1.385
1560.0,-9.08,0.338,2.515,0.278,1.017,1.538
1563.0,-9.08,0.338,2.515,0.278,1.017,1.538
1567.0,-9.08,0.338,2.515,0.278,1.017,1.538
1571.0,-9.842,0.293,2.537,0.066,1.081,1.708
1575.0,-9.842,0.293,2.537,0.066,1.081,1.708
1578.0,-10.82,0.163,2.544,-0.13,1.155,1.905
1582.0,-10.82,0.163,2.544,-0.13,1.155,1.905
1586.0,-10.82,0.163,2.544,-0.13,1.155,1.905
1590.0,-11.654,-0.08,2.542,-0.311,1.229,2.132
1594.0,-11.654,-0.08,2.542,-0.311,1.229,2.132
1598.0,-12.059,-0.402,2.672,-0.475,1.289,2.383
1602.0,-12.059,-0.402,2.672,-0.475,1.289,2.383
1606.0,-12.059,-0.402,2.672,-0.475,1.289,2.383
1610.0,-12.02,-0.799,2.915,-0.609,1.313,2.632
1614.0,-12.02,-0.799,2.915,-0.609,1.313,2.632
1618.0,-11.632,-1.141,3.074,-0.699,1.29,2.842
1622.0,-11.632,-1.141,3.074,-0.699,1.29,2.842
1626.0,-11.632,-1.141,3.074,-0.699,1.29,2.842
1630.0,-11.238,-1.434,3.02,-0.739,1.236,2.991
1634.0,-11.238,-1.434,3.02,-0.739,1.236,2.991
1638.0,-11.024,-1.65,2.783,-0.736,1.181,3.088
1642.0,-11.024,-1.65,2.783,-0.736,1.181,3.088
1646.0,-11.024,-1.65,2.783,-0.736,1.181,3.088
1650.0,-11.052,-1.823,2.538,-0.702,1.149,3.171
1654.0,-11.052,-1.823,2.538,-0.702,1.149,3.171
1658.0,-11.326,-2.014,2.369,-0.644,1.142,3.275
1662.0,-11.326,-2.014,2.369,-0.644,1.142,3.275
1666.0,-11.326,-2.014,2.368,-0.644,1.142,3.275
1670.0,-11.783,-2.329,2.368,-0.565,1.145,3.41
1674.0,-11.783,-2.329,2.368,-0.565,1.145,3.41
1678.0,-12.223,-2.731,2.486,-0.457,1.128,3.563
1682.0,-12.223,-2.731,2.486,-0.457,1.128,3.563
1686.0,-12.223,-3.206,2.647,-0.457,1.128,3.563
1690.0,-12.517,-3.206,2.647,-0.316,1.063,3.706
1694.0,-12.517,-3.206,2.647,-0.316,1.063,3.706
1698.0,-12.601,-3.647,2.752,-0.144,0.94,3.81
1702.0,-12.601,-3.647,2.752,-0.144,0.94,3.81
1706.0,-12.524,-3.999,2.752,-0.144,0.94,3.81
1710.0,-12.524,-3.999,2.752,0.052,0.775,3.857
1714.0,-12.524,-3.999,2.752,0.052,0.775,3.857
1718.0,-12.343,-4.156,2.579,0.266,0.599,3.843
1722.0,-12.343,-4.156,2.579,0.266,0.599,3.843
1726.0,-12.026,-4.254,2.212,0.266,0.599,3.843
1729.0,-12.026,-4.254,2.212,0.485,0.435,3.779
1733.0,-12.026,-4.254,2.212,0.485,0.435,3.779
1737.0,-11.615,-4.114,1.88,0.688,0.303,3.667
1741.0,-11.615,-4.114,1.88,0.688,0.303,3.667
1745.0,-11.615,-4.114,1.572,0.688,0.303,3.667
1749.0,-11.353,-3.904,1.572,0.849,0.205,3.503
1753.0,-11.353,-3.904,1.572,0.849,0.205,3.503
1757.0,-11.26,-3.683,1.439,0.962,0.14,3.297
1761.0,-11.26,-3.683,1.439,0.962,0.14,3.297
1765.0,-11.26,-3.683,1.439,0.962,0.14,3.297
1769.0,-11.25,-3.504,1.387,1.034,0.092,3.06
1772.0,-11.25,-3.504,1.387,1.034,0.092,3.06
1776.0,-11.228,-3.312,1.394,1.066,0.043,2.806
1780.0,-11.228,-3.312,1.394,1.066,0.043,2.806
1784.0,-11.228,-3.312,1.394,1.066,0.043,2.806
1788.0,-11.233,-3.057,1.347,1.062,-0.012,2.534
1792.0,-11.233,-3.057,1.347,1.062,-0.012,2.534
1796.0,-11.301,-2.743,1.229,1.018,-0.065,2.244
1800.0,-11.301,-2.743,1.229,1.018,-0.065,2.244
1804.0,-11.301,-2.743,1.229,1.018,-0.065,2.244
1808.0,-11.425,-2.41,1.192,0.933,-0.106,1.947
1812.0,-11.425,-2.41,1.192,0.933,-0.106,1.947
1816.0,-11.554,-2.17,1.254,0.817,-0.145,1.66
1820.0,-11.554,-2.17,1.254,0.817,-0.145,1.66
1824.0,-11.554,-2.17,1.335,0.817,-0.145,1.66
1828.0,-11.694,-2.052,1.335,0.68,-0.193,1.393
1832.0,-11.694,-2.052,1.335,0.68,-0.193,1.393
1836.0,-11.84,-2.034,1.449,0.535,-0.251,1.145
1840.0,-11.84,-2.034,1.449,0.535,-0.251,1.145
1844.0,-11.84,-2.143,1.56,0.535,-0.251,1.145
1848.0,-11.921,-2.143,1.56,0.388,-0.322,0.918
1852.0,-11.921,-2.143,1.56,0.388,-0.322,0.918
1856.0,-11.916,-2.314,1.604,0.249,-0.404,0.712
1860.0,-11.916,-2.314,1.604,0.249,-0.404,0.712
1864.0,-11.778,-2.496,1.551,0.249,-0.404,0.712
1868.0,-11.778,-2.496,1.551,0.12,-0.494,0.523
1872.0,-11.778,-2.496,1.551,0.12,-0.494,0.523
1876.0,-11.554,-2.662,1.491,-0.002,-0.582,0.352
1880.0,-11.554,-2.662,1.491,-0.002,-0.582,0.352
1884.0,-11.32,-2.822,1.387,-0.002,-0.663,0.188
1888.0,-11.32,-2.822,1.387,-0.119,-0.663,0.188
1892.0,-11.32,-2.822,1.387,-0.119,-0.663,0.188
1896.0,-11.12,-2.968,1.28,-0.224,-0.74,0.027
1900.0,-11.12,-2.968,1.28,-0.224,-0.74,0.027
1904.0,-10.966,-3.078,1.21,-0.314,-0.816,-0.13
1909.0,-10.966,-3.078,1.21,-0.314,-0.816,-0.13
1913.0,-10.966,-3.078,1.094,-0.314,-0.816,-0.13
1917.0,-10.82,-3.17,1.094,-0.38,-0.891,-0.281
1921.0,-10.82,-3.17,1.094,-0.38,-0.891,-0.281
1925.0,-10.734,-3.221,1.023,-0.416,-0.961,-0.432
1929.0,-10.734,-3.221,1.023,-0.416,-0.961,-0.432
1934.0,-10.628,-3.169,0.949,-0.418,-1.021,-0.589
1938.0,-10.628,-3.169,0.949,-0.418,-1.021,-0.589
1942.0,-10.628,-3.169,0.949,-0.418,-1.021,-0.589
1946.0,-10.307,-3.028,0.952,-0.389,-1.083,-0.751
1950.0,-10.307,-3.028,0.952,-0.389,-1.083,-0.751
1954.0,-9.696,-2.842,0.851,-0.332,-1.157,-0.915
1959.0,-9.696,-2.842,0.851,-0.332,-1.157,-0.915
1963.0,-9.047,-2.609,0.519,-0.332,-1.157,-0.915
1967.0,-9.047,-2.609,0.519,-0.254,-1.224,-1.084
1971.0,-9.047,-2.609,0.519,-0.254,-1.224,-1.084
1975.0,-8.916,-2.409,0.331,-0.169,-1.239,-1.244
1979.0,-8.916,-2.409,0.331,-0.169,-1.239,-1.244
1983.0,-9.077,-2.252,0.395,-0.079,-1.21,-1.388
1987.0,-9.077,-2.252,0.395,-0.079,-1.21,-1.388
1991.0,-9.077,-2.252,0.395,-0.079,-1.21,-1.388
1995.0,-8.897,-2.152,0.6,0.015,-1.194,-1.511
1999.0,-8.897,-2.152,0.6,0.015,-1.194,-1.511
2003.0,-8.371,-2.029,0.66,0.106,-1.219,-1.628
2007.0,-8.371,-2.029,0.66,0.106,-1.219,-1.628
2011.0,-8.371,-2.029,0.66,0.106,-1.219,-1.628
2015.0,-8.166,-1.877,0.483,0.186,-1.248,-1.747
2019.0,-8.166,-1.877,0.483,0.186,-1.248,-1.747
2023.0,-8.76,-1.722,0.347,0.242,-1.225,-1.863
2027.0,-8.76,-1.722,0.347,0.242,-1.225,-1.863
2031.0,-8.76,-1.722,0.439,0.242,-1.225,-1.863
2035.0,-9.781,-1.685,0.439,0.273,-1.157,-1.958
2039.0,-9.781,-1.685,0.439,0.273,-1.157,-1.958
2043.0,-10.637,-1.707,0.69,0.286,-1.1,-2.026
2047.0,-10.637,-1.707,0.69,0.286,-1.1,-2.026
2051.0,-11.27,-1.777,0.924,0.286,-1.1,-2.026
2055.0,-11.27,-1.777,0.924,0.291,-1.088,-2.07
2059.0,-11.27,-1.777,0.924,0.291,-1.088,-2.07
2064.0,-11.672,-1.835,1.146,0.293,-1.112,-2.109
2068.0,-11.672,-1.835,1.146,0.293,-1.112,-2.109
2072.0,-11.439,-1.885,1.359,0.302,-1.168,-2.157
2076.0,-11.439,-1.885,1.359,0.302,-1.168,-2.157
2080.0,-11.439,-1.885,1.359,0.302,-1.168,-2.157
2084.0,-10.58,-1.906,1.347,0.326,-1.255,-2.222
2088.0,-10.58,-1.906,1.347,0.326,-1.255,-2.222
2092.0,-9.864,-1.749,1.09,0.362,-1.329,-2.309
2096.0,-9.864,-1.749,1.09,0.362,-1.329,-2.309
2100.0,-9.864,-1.749,1.09,0.362,-1.329,-2.309
2104.0,-9.616,-1.474,0.753,0.402,-1.344,-2.405
2108.0,-9.616,-1.474,0.753,0.402,-1.344,-2.405
2112.0,-9.536,-1.178,0.53,0.443,-1.303,-2.473
2116.0,-9.536,-1.178,0.53,0.443,-1.303,-2.473
2120.0,-9.536,-1.178,0.498,0.443,-1.303,-2.473
2124.0,-9.188,-0.877,0.498,0.491,-1.239,-2.487
2128.0,-9.188,-0.877,0.498,0.491,-1.239,-2.487
2132.0,-8.837,-0.611,0.463,0.559,-1.172,-2.434
2136.0,-8.837,-0.611,0.463,0.559,-1.172,-2.434
2140.0,-8.837,-0.422,0.408,0.559,-1.172,-2.434
2144.0,-8.691,-0.422,0.408,0.644,-1.077,-2.315
2148.0,-8.691,-0.422,0.408,0.644,-1.077,-2.315
2152.0,-8.521,-0.413,0.408,0.753,-0.949,-2.14
2156.0,-8.521,-0.413,0.408,0.753,-0.949,-2.14
2160.0,-8.113,-0.541,0.565,0.753,-0.949,-2.14
2164.0,-8.113,-0.541,0.565,0.882,-0.815,-1.924
2168.0,-8.113,-0.541,0.565,0.882,-0.815,-1.924
2172.0,-7.804,-0.84,0.767,1.025,-0.69,-1.7
2176.0,-7.804,-0.84,0.767,1.025,-0.69,-1.7
2180.0,-8.124,-1.139,0.896,1.025,-0.69,-1.507
2184.0,-8.124,-1.139,0.896,1.169,-0.564,-1.507
2188.0,-8.124,-1.139,0.896,1.169,-0.564,-1.507
2192.0,-8.699,-1.411,0.919,1.305,-0.435,-1.356
2196.0,-8.699,-1.411,0.919,1.305,-0.435,-1.356
2200.0,-8.883,-1.603,1.117,1.429,-0.332,-1.228
2204.0,-8.883,-1.603,1.117,1.429,-0.332,-1.228
2208.0,-8.883,-1.603,1.117,1.429,-0.332,-1.228
2212.0,-8.637,-1.778,1.391,1.54,-0.277,-1.117
2216.0,-8.637,-1.778,1.391,1.54,-0.277,-1.117
2220.0,-8.605,-1.828,1.482,1.638,-0.245,-1.038
2224.0,-8.605,-1.828,1.482,1.638,-0.245,-1.038
2228.0,-8.605,-1.828,1.482,1.638,-0.245,-1.038
2232.0,-9.152,-1.765,1.251,1.722,-0.195,-0.979
2236.0,-9.152,-1.765,1.251,1.722,-0.195,-0.979
2240.0,-10.071,-1.726,0.922,1.78,-0.105,-0.909
2244.0,-10.071,-1.726,0.922,1.78,-0.105,-0.909
2248.0,-10.071,-1.726,0.922,1.78,-0.105,-0.909
2252.0,-10.734,-1.715,0.833,1.81,0.008,-0.801
2256.0,-10.734,-1.715,0.833,1.81,0.008,-0.801
2260.0,-10.934,-1.74,0.982,1.825,0.104,-0.653
2264.0,-10.934,-1.74,0.982,1.825,0.104,-0.653
2268.0,-10.934,-1.74,1.198,1.825,0.104,-0.653
2272.0,-10.945,-1.848,1.198,1.837,0.168,-0.49
2276.0,-10.945,-1.848,1.198,1.837,0.168,-0.49
2280.0,-10.917,-2.003,1.356,1.865,0.199,-0.345
2284.0,-10.917,-2.003,1.356,1.865,0.199,-0.345
2288.0,-10.917,-2.171,1.424,1.865,0.199,-0.345
2292.0,-10.834,-2.171,1.424,1.915,0.19,-0.23
2296.0,-10.834,-2.171,1.424,1.915,0.19,-0.23
2300.0,-10.716,-2.288,1.4,1.985,0.146,-0.144
2304.0,-10.716,-2.288,1.4,1.985,0.146,-0.144
2308.0,-10.644,-2.343,1.234,1.985,0.146,-0.144
2312.0,-10.644,-2.343,1.234,2.068,0.079,-0.08
2316.0,-10.644,-2.343,1.234,2.068,0.079,-0.08
2320.0,-10.563,-2.309,1.01,2.149,0.007,-0.034
2324.0,-10.563,-2.309,1.01,2.149,0.007,-0.034
2328.0,-10.374,-2.239,0.713,2.149,0.007,-0.006
2332.0,-10.374,-2.239,0.713,2.217,-0.061,-0.006
2336.0,-10.374,-2.239,0.713,2.217,-0.061,-0.006
2340.0,-10.231,-2.131,0.391,2.261,-0.119,0.008
2344.0,-10.231,-2.131,0.391,2.261,-0.119,0.008
2348.0,-10.325,-2.017,0.095,2.274,-0.148,0.008
2352.0,-10.325,-2.017,0.095,2.274,-0.148,0.008
2356.0,-10.325,-2.017,0.095,2.274,-0.148,0.008
2360.0,-10.652,-1.945,-0.087,2.256,-0.144,0.003
2364.0,-10.652,-1.945,-0.087,2.256,-0.144,0.003
2368.0,-11.158,-1.918,-0.128,2.214,-0.123,0.002
2372.0,-11.158,-1.918,-0.128,2.214,-0.123,0.002
2376.0,-11.158,-1.918,-0.128,2.214,-0.123,0.002
2380.0,-11.74,-1.925,-0.068,2.153,-0.1,0.009
2385.0,-11.74,-1.925,-0.068,2.153,-0.1,0.009
2389.0,-12.327,-1.933,0.095,2.076,-0.077,0.022
2393.0,-12.327,-1.933,0.095,2.076,-0.077,0.022
2397.0,-12.327,-1.941,0.315,2.076,-0.077,0.022
2401.0,-12.721,-1.941,0.315,1.985,-0.065,0.035
2405.0,-12.721,-1.941,0.315,1.985,-0.065,0.035
2409.0,-12.72,-1.908,0.498,1.875,-0.071,0.045
2413.0,-12.72,-1.908,0.498,1.875,-0.071,0.045
2417.0,-12.385,-1.827,0.592,1.875,-0.071,0.045
2421.0,-12.385,-1.827,0.592,1.746,-0.087,0.043
2425.0,-12.385,-1.827,0.592,1.746,-0.087,0.043
2429.0,-11.866,-1.761,0.604,1.599,-0.095,0.022
2433.0,-11.866,-1.761,0.604,1.599,-0.095,0.022
2437.0,-11.23,-1.718,0.595,1.599,-0.095,-0.024
2441.0,-11.23,-1.718,0.595,1.44,-0.085,-0.024
2445.0,-11.23,-1.718,0.595,1.44,-0.085,-0.024
2449.0,-10.62,-1.638,0.559,1.281,-0.053,-0.086
2453.0,-10.62,-1.638,0.559,1.281,-0.053,-0.086
2457.0,-10.131,-1.615,0.529,1.12,-0.005,-0.158
2461.0,-10.131,-1.615,0.529,1.12,-0.005,-0.158
2465.0,-10.131,-1.615,0.529,1.12,-0.005,-0.158
2469.0,-9.814,-1.64,0.533,0.971,0.065,-0.233
2473.0,-9.814,-1.64,0.533,0.971,0.065,-0.233
2477.0,-9.836,-1.697,0.548,0.844,0.153,-0.302
2481.0,-9.836,-1.697,0.548,0.844,0.153,-0.302
2485.0,-9.836,-1.697,0.548,0.844,0.153,-0.302
2489.0,-10.05,-1.807,0.605,0.736,0.241,-0.349
2493.0,-10.05,-1.807,0.605,0.736,0.241,-0.349
2497.0,-10.229,-2.003,0.7,0.648,0.314,-0.365
2501.0,-10.229,-2.003,0.7,0.648,0.314,-0.365
2505.0,-10.229,-2.003,0.7,0.648,0.314,-0.365
2509.0,-10.366,-2.268,0.767,0.584,0.37,-0.36
2513.0,-10.366,-2.268,0.767,0.584,0.37,-0.36
2517.0,-10.57,-2.543,0.753,0.548,0.415,-0.339
2521.0,-10.57,-2.543,0.753,0.548,0.415,-0.339
2525.0,-10.57,-2.543,0.753,0.548,0.415,-0.339
2529.0,-10.719,-2.816,0.743,0.535,0.456,-0.301
2533.0,-10.719,-2.816,0.743,0.535,0.456,-0.301
2537.0,-10.704,-3.083,0.772,0.547,0.489,-0.244
2541.0,-10.704,-3.083,0.772,0.547,0.489,-0.244
2545.0,-10.704,-3.344,0.756,0.547,0.489,-0.244
2549.0,-10.8,-3.344,0.756,0.583,0.516,-0.172
2553.0,-10.8,-3.344,0.756,0.583,0.516,-0.172
2557.0,-11.083,-3.619,0.712,0.643,0.546,-0.086
2561.0,-11.083,-3.619,0.712,0.643,0.546,-0.086
2565.0,-11.321,-3.867,0.687,0.643,0.546,-0.086
2569.0,-11.321,-3.867,0.687,0.728,0.573,0.007
2573.0,-11.321,-3.867,0.687,0.728,0.573,0.007
2576.0,-11.509,-4.096,0.687,0.834,0.587,0.098
2580.0,-11.509,-4.096,0.687,0.834,0.587,0.098
2584.0,-11.509,-4.302,0.718,0.834,0.587,0.098
2588.0,-11.756,-4.302,0.718,0.962,0.594,0.186
2592.0,-11.756,-4.302,0.718,0.962,0.594,0.186
2596.0,-12.039,-4.504,0.766,1.113,0.595,0.264
2600.0,-12.039,-4.504,0.766,1.113,0.595,0.264
2604.0,-12.039,-4.504,0.867,1.113,0.595,0.264
2608.0,-12.196,-4.645,0.867,1.288,0.584,0.325
2612.0,-12.196,-4.645,0.867,1.288,0.584,0.325
2615.0,-12.087,-4.693,0.968,1.481,0.551,0.359
2619.0,-12.087,-4.693,0.968,1.481,0.551,0.359
2623.0,-12.087,-4.693,0.968,1.481,0.551,0.359
2627.0,-11.793,-4.644,0.959,1.682,0.504,0.357
2631.0,-11.793,-4.644,0.959,1.682,0.504,0.357
2635.0,-11.404,-4.481,0.846,1.88,0.459,0.319
2639.0,-11.404,-4.481,0.846,1.88,0.459,0.319
2643.0,-11.404,-4.481,0.846,1.88,0.459,0.319
2647.0,-11.017,-4.28,0.683,2.059,0.427,0.254
2651.0,-11.017,-4.28,0.683,2.059,0.427,0.254
2655.0,-10.774,-4.077,0.51,2.212,0.41,0.175
2658.0,-10.774,-4.077,0.51,2.212,0.41,0.175
2662.0,-10.774,-4.077,0.51,2.212,0.41,0.175
2666.0,-10.708,-3.926,0.391,2.338,0.407,0.093
2670.0,-10.708,-3.926,0.391,2.338,0.407,0.093
2674.0,-10.822,-3.822,0.321,2.439,0.403,0.017
2678.0,-10.822,-3.822,0.321,2.439,0.403,0.017
2682.0,-10.822,-3.822,0.321,2.439,0.403,0.017
2686.0,-11.04,-3.794,0.3,2.517,0.386,-0.048
2690.0,-11.04,-3.794,0.3,2.517,0.386,-0.048
2694.0,-11.217,-3.811,0.284,2.569,0.351,-0.105
2698.0,-11.217,-3.811,0.284,2.569,0.351,-0.105
2702.0,-11.217,-3.811,0.284,2.569,0.351,-0.105
2706.0,-11.169,-3.815,0.228,2.594,0.299,-0.165
2710.0,-11.169,-3.815,0.228,2.594,0.299,-0.165
2714.0,-10.979,-3.775,0.16,2.592,0.246,-0.241
2718.0,-10.979,-3.775,0.16,2.592,0.246,-0.241
2722.0,-10.979,-3.775,0.16,2.592,0.246,-0.241
2726.0,-10.845,-3.691,0.12,2.561,0.204,-0.336
2730.0,-10.845,-3.691,0.12,2.561,0.204,-0.336
2734.0,-10.859,-3.549,0.089,2.499,0.171,-0.444
2738.0,-10.859,-3.549,0.089,2.499,0.171,-0.444
2742.0,-10.859,-3.549,0.089,2.499,0.171,-0.444
2746.0,-11.142,-3.441,0.121,2.405,0.149,-0.553
2750.0,-11.142,-3.441,0.121,2.405,0.149,-0.553
2754.0,-11.679,-3.533,0.167,2.271,0.124,-0.654
2758.0,-11.679,-3.533,0.167,2.271,0.124,-0.654
2762.0,-11.679,-3.533,0.199,2.271,0.124,-0.654
2766.0,-12.193,-3.729,0.199,2.103,0.092,-0.743
2770.0,-12.193,-3.729,0.199,2.103,0.092,-0.743
2774.0,-12.455,-3.883,0.192,1.912,0.053,-0.829
2778.0,-12.455,-3.883,0.192,1.912,0.053,-0.829
2782.0,-12.455,-4.07,0.191,1.912,0.053,-0.829
2786.0,-12.559,-4.07,0.191,1.711,0.017,-0.914
2790.0,-12.559,-4.07,0.191,1.711,0.017,-0.914
2794.0,-12.547,-4.354,0.249,1.522,-0.013,-1.0
2798.0,-12.547,-4.354,0.249,1.522,-0.013,-1.0
2802.0,-12.441,-4.637,0.361,1.522,-0.013,-1.085
2806.0,-12.441,-4.637,0.361,1.364,-0.041,-1.085
2810.0,-12.441,-4.637,0.361,1.364,-0.041,-1.085
2814.0,-12.313,-4.87,0.555,1.246,-0.064,-1.166
2818.0,-12.313,-4.87,0.555,1.246,-0.064,-1.166
2822.0,-12.182,-5.022,0.703,1.165,-0.084,-1.235
2826.0,-12.182,-5.022,0.703,1.165,-0.084,-1.235
2830.0,-12.182,-5.022,0.703,1.165,-0.084,-1.235
2834.0,-11.988,-5.112,0.778,1.115,-0.112,-1.298
2838.0,-11.988,-5.112,0.778,1.115,-0.112,-1.298
2843.0,-11.723,-5.166,0.801,1.093,-0.145,-1.361
2847.0,-11.723,-5.166,0.801,1.093,-0.145,-1.361
2851.0,-11.723,-5.295,0.837,1.093,-0.145,-1.361
2855.0,-11.374,-5.295,0.837,1.1,-0.179,-1.426
2859.0,-11.374,-5.295,0.837,1.1,-0.179,-1.426
2863.0,-10.833,-5.405,0.91,1.14,-0.213,-1.485
2867.0,-10.833,-5.405,0.91,1.14,-0.213,-1.485
2871.0,-10.28,-5.563,0.932,1.14,-0.253,-1.55
2875.0,-10.28,-5.563,0.932,1.202,-0.253,-1.55
2879.0,-10.28,-5.563,0.932,1.202,-0.253,-1.55
2883.0,-9.904,-5.768,0.966,1.273,-0.291,-1.62
2887.0,-9.904,-5.768,0.966,1.273,-0.291,-1.62
2891.0,-9.731,-5.894,1.003,1.35,-0.322,-1.693
2895.0,-9.731,-5.894,1.003,1.35,-0.322,-1.693
2899.0,-9.731,-5.894,1.003,1.35,-0.322,-1.693
2903.0,-9.596,-5.847,1.036,1.424,-0.35,-1.768
2907.0,-9.596,-5.847,1.036,1.424,-0.35,-1.768
2911.0,-9.438,-5.701,1.141,1.494,-0.382,-1.842
2915.0,-9.438,-5.701,1.141,1.494,-0.382,-1.842
2919.0,-9.438,-5.701,1.141,1.494,-0.382,-1.842
2923.0,-9.378,-5.505,1.199,1.554,-0.421,-1.918
2927.0,-9.378,-5.505,1.199,1.554,-0.421,-1.918
2931.0,-9.42,-5.308,1.191,1.605,-0.461,-1.995
2935.0,-9.42,-5.308,1.191,1.605,-0.461,-1.995
2939.0,-9.42,-5.308,1.156,1.605,-0.461,-1.995
2943.0,-9.514,-5.088,1.156,1.641,-0.501,-2.078
2947.0,-9.514,-5.088,1.156,1.641,-0.501,-2.078
2951.0,-9.636,-4.836,1.068,1.662,-0.542,-2.164
2955.0,-9.636,-4.836,1.068,1.662,-0.542,-2.164
2959.0,-9.636,-4.564,0.961,1.662,-0.542,-2.164
2963.0,-9.696,-4.564,0.961,1.665,-0.58,-2.242
2967.0,-9.696,-4.564,0.961,1.665,-0.58,-2.242
2971.0,-9.846,-4.308,0.852,1.649,-0.61,-2.301
2975.0,-9.846,-4.308,0.852,1.649,-0.61,-2.301
2979.0,-10.171,-4.12,0.712,1.649,-0.61,-2.301
2983.0,-10.171,-4.12,0.712,1.612,-0.627,-2.331
2987.0,-10.171,-4.12,0.712,1.612,-0.627,-2.331
2991.0,-10.701,-4.004,0.59,1.555,-0.63,-2.327
2996.0,-10.701,-4.004,0.59,1.555,-0.63,-2.327
3000.0,-11.416,-3.961,0.456,1.48,-0.63,-2.292
