deltaTime,Acc_X,Acc_Y,Acc_Z,Gyro_X,Gyro_Y,Gyro_Z
0.0,-2.561,-2.055,8.824,-0.147,-0.381,0.923
3.0,-2.561,-2.055,8.824,-0.147,-0.381,0.923
6.0,-2.393,-2.506,8.759,-0.147,-0.381,0.923
9.0,-2.393,-2.506,8.759,-0.295,-0.373,0.904
12.0,-2.393,-2.506,8.759,-0.295,-0.373,0.904
15.0,-2.393,-2.506,8.759,-0.295,-0.373,0.904
18.0,-2.265,-3.016,8.782,-0.369,-0.36,0.893
21.0,-2.265,-3.016,8.782,-0.369,-0.36,0.893
24.0,-2.265,-3.016,8.782,-0.369,-0.36,0.893
27.0,-2.086,-3.257,8.915,-0.365,-0.347,0.885
30.0,-2.086,-3.257,8.915,-0.365,-0.347,0.885
33.0,-2.086,-3.257,8.915,-0.365,-0.347,0.885
37.0,-1.847,-3.197,9.057,-0.328,-0.338,0.882
41.0,-1.847,-3.197,9.057,-0.328,-0.338,0.882
45.0,-1.847,-3.197,9.057,-0.328,-0.338,0.882
49.0,-1.815,-3.07,9.239,-0.322,-0.335,0.885
52.0,-1.815,-3.07,9.239,-0.322,-0.335,0.885
56.0,-1.841,-3.013,9.492,-0.359,-0.336,0.887
60.0,-1.841,-3.013,9.492,-0.359,-0.336,0.887
64.0,-1.841,-3.013,9.492,-0.359,-0.336,0.887
68.0,-1.805,-3.157,9.714,-0.399,-0.344,0.887
72.0,-1.805,-3.157,9.714,-0.399,-0.344,0.887
75.0,-1.731,-3.4,9.733,-0.399,-0.344,0.887
79.0,-1.731,-3.4,9.733,-0.429,-0.353,0.879
83.0,-1.731,-3.4,9.733,-0.429,-0.353,0.879
87.0,-1.613,-3.586,9.526,-0.443,-0.356,0.859
91.0,-1.613,-3.586,9.526,-0.443,-0.356,0.859
94.0,-1.613,-3.586,9.526,-0.443,-0.356,0.859
98.0,-1.701,-3.791,9.29,-0.429,-0.356,0.831
102.0,-1.701,-3.791,9.29,-0.429,-0.356,0.831
106.0,-1.788,-3.99,9.101,-0.392,-0.347,0.805
110.0,-1.788,-3.99,9.101,-0.392,-0.347,0.805
114.0,-1.788,-3.99,9.101,-0.392,-0.347,0.805
118.0,-1.895,-4.115,8.925,-0.334,-0.336,0.781
122.0,-1.895,-4.115,8.925,-0.334,-0.336,0.781
126.0,-1.966,-4.209,9.063,-0.261,-0.33,0.752
129.0,-1.966,-4.209,9.063,-0.261,-0.33,0.752
133.0,-1.966,-4.209,9.063,-0.261,-0.33,0.752
137.0,-1.825,-4.065,9.209,-0.188,-0.331,0.727
141.0,-1.825,-4.065,9.209,-0.188,-0.331,0.727
145.0,-1.662,-3.959,9.181,-0.135,-0.339,0.702
149.0,-1.662,-3.959,9.181,-0.135,-0.339,0.702
153.0,-1.662,-3.959,9.181,-0.135,-0.339,0.702
157.0,-1.695,-3.756,9.151,-0.103,-0.347,0.675
161.0,-1.695,-3.756,9.151,-0.103,-0.347,0.675
165.0,-1.773,-3.559,9.103,-0.103,-0.347,0.643
169.0,-1.773,-3.559,9.103,-0.1,-0.347,0.643
172.0,-1.773,-3.559,9.103,-0.1,-0.347,0.643
176.0,-1.857,-3.315,9.055,-0.113,-0.34,0.608
180.0,-1.857,-3.315,9.055,-0.113,-0.34,0.608
184.0,-2.095,-2.998,9.072,-0.113,-0.34,0.569
188.0,-2.095,-2.998,9.072,-0.136,-0.332,0.569
192.0,-2.095,-2.998,9.072,-0.136,-0.332,0.569
196.0,-2.315,-2.949,8.999,-0.174,-0.326,0.533
200.0,-2.315,-2.949,8.999,-0.174,-0.326,0.533
204.0,-2.398,-2.996,8.763,-0.174,-0.326,0.533
208.0,-2.398,-2.996,8.763,-0.207,-0.322,0.517
211.0,-2.398,-2.996,8.763,-0.207,-0.322,0.517
215.0,-2.392,-3.249,8.637,-0.217,-0.304,0.522
219.0,-2.392,-3.249,8.637,-0.217,-0.304,0.522
223.0,-2.392,-3.28,8.593,-0.217,-0.304,0.522
227.0,-2.191,-3.28,8.593,-0.207,-0.272,0.533
231.0,-2.191,-3.28,8.593,-0.207,-0.272,0.533
235.0,-1.996,-3.277,8.559,-0.208,-0.234,0.536
239.0,-1.996,-3.277,8.559,-0.208,-0.234,0.536
243.0,-1.996,-3.277,8.722,-0.208,-0.234,0.536
247.0,-2.118,-3.37,8.722,-0.215,-0.196,0.527
251.0,-2.118,-3.37,8.722,-0.215,-0.196,0.527
254.0,-2.197,-3.274,8.955,-0.21,-0.163,0.518
258.0,-2.197,-3.274,8.955,-0.21,-0.163,0.518
262.0,-2.197,-3.274,8.955,-0.21,-0.163,0.518
266.0,-2.215,-3.209,9.111,-0.207,-0.136,0.514
270.0,-2.215,-3.209,9.111,-0.207,-0.136,0.514
274.0,-2.42,-3.208,9.256,-0.205,-0.117,0.51
278.0,-2.42,-3.208,9.256,-0.205,-0.117,0.51
282.0,-2.42,-3.208,9.256,-0.205,-0.117,0.51
286.0,-2.093,-3.381,9.393,-0.195,-0.1,0.509
290.0,-2.093,-3.381,9.393,-0.195,-0.1,0.509
294.0,-2.13,-3.626,9.483,-0.158,-0.081,0.507
297.0,-2.13,-3.626,9.483,-0.158,-0.081,0.507
301.0,-2.13,-3.626,9.483,-0.158,-0.081,0.507
305.0,-1.823,-3.501,9.521,-0.096,-0.076,0.493
309.0,-1.823,-3.501,9.521,-0.096,-0.076,0.493
313.0,-1.874,-3.512,9.626,-0.06,-0.024,0.478
317.0,-1.874,-3.512,9.626,-0.06,-0.024,0.478
321.0,-1.874,-3.512,9.626,-0.06,-0.024,0.478
325.0,-1.958,-3.17,9.712,-0.04,0.004,0.447
329.0,-1.958,-3.17,9.712,-0.04,0.004,0.447
332.0,-2.163,-2.872,9.815,-0.04,0.02,0.402
336.0,-2.163,-2.872,9.815,-0.071,0.02,0.402
340.0,-2.163,-2.872,9.815,-0.071,0.02,0.402
344.0,-2.354,-2.785,9.912,-0.137,0.025,0.359
348.0,-2.354,-2.785,9.912,-0.137,0.025,0.359
352.0,-2.354,-2.792,9.891,-0.137,0.025,0.359
355.0,-2.526,-2.792,9.891,-0.205,0.022,0.327
359.0,-2.526,-2.792,9.891,-0.205,0.022,0.327
363.0,-2.48,-2.929,9.752,-0.261,-0.001,0.304
367.0,-2.48,-2.929,9.752,-0.261,-0.001,0.304
371.0,-2.48,-2.929,9.752,-0.261,-0.001,0.304
375.0,-2.392,-3.115,9.6,-0.287,-0.036,0.286
379.0,-2.392,-3.115,9.6,-0.287,-0.036,0.286
382.0,-2.389,-3.337,9.38,-0.282,-0.063,0.277
386.0,-2.389,-3.337,9.38,-0.282,-0.063,0.277
390.0,-2.389,-3.337,9.38,-0.282,-0.063,0.277
394.0,-2.317,-3.549,9.163,-0.262,-0.083,0.273
398.0,-2.317,-3.549,9.163,-0.262,-0.083,0.273
402.0,-2.072,-3.72,9.005,-0.236,-0.093,0.273
406.0,-2.072,-3.72,9.005,-0.236,-0.093,0.273
410.0,-2.072,-3.72,9.005,-0.236,-0.093,0.273
414.0,-1.566,-3.918,8.762,-0.207,-0.086,0.27
418.0,-1.566,-3.918,8.762,-0.207,-0.086,0.27
422.0,-2.177,-4.054,8.564,-0.186,-0.085,0.266
425.0,-2.177,-4.054,8.564,-0.186,-0.085,0.266
429.0,-2.177,-4.054,8.564,-0.186,-0.085,0.266
433.0,-2.442,-4.068,8.521,-0.157,-0.134,0.257
437.0,-2.442,-4.068,8.521,-0.157,-0.134,0.257
441.0,-2.355,-3.997,8.547,-0.125,-0.193,0.26
445.0,-2.355,-3.997,8.547,-0.125,-0.193,0.26
449.0,-2.355,-3.997,8.547,-0.125,-0.193,0.26
453.0,-2.237,-3.934,8.632,-0.099,-0.253,0.281
457.0,-2.237,-3.934,8.632,-0.099,-0.253,0.281
461.0,-2.274,-3.921,8.779,-0.099,-0.318,0.319
465.0,-2.274,-3.921,8.779,-0.09,-0.318,0.319
468.0,-2.274,-3.921,8.779,-0.09,-0.318,0.319
472.0,-2.407,-3.903,8.812,-0.113,-0.395,0.361
476.0,-2.407,-3.903,8.812,-0.113,-0.395,0.361
480.0,-2.46,-3.882,8.755,-0.113,-0.395,0.403
484.0,-2.46,-3.882,8.755,-0.166,-0.473,0.403
488.0,-2.46,-3.882,8.755,-0.166,-0.473,0.403
492.0,-2.456,-3.873,8.611,-0.234,-0.546,0.444
496.0,-2.456,-3.873,8.611,-0.234,-0.546,0.444
500.0,-2.423,-3.86,8.436,-0.234,-0.546,0.444
504.0,-2.423,-3.86,8.436,-0.308,-0.612,0.478
507.0,-2.423,-3.86,8.436,-0.308,-0.612,0.478
511.0,-2.348,-3.868,8.304,-0.38,-0.67,0.497
515.0,-2.348,-3.868,8.304,-0.38,-0.67,0.497
519.0,-2.348,-3.971,8.215,-0.38,-0.67,0.497
523.0,-2.246,-3.971,8.215,-0.44,-0.714,0.505
527.0,-2.246,-3.971,8.215,-0.44,-0.714,0.505
531.0,-2.198,-4.007,8.249,-0.486,-0.744,0.509
535.0,-2.198,-4.007,8.249,-0.486,-0.744,0.509
539.0,-2.198,-4.007,8.364,-0.486,-0.744,0.509
543.0,-2.223,-3.996,8.364,-0.516,-0.774,0.515
547.0,-2.223,-3.996,8.364,-0.516,-0.774,0.515
550.0,-2.25,-3.953,8.45,-0.535,-0.813,0.52
554.0,-2.25,-3.953,8.45,-0.535,-0.813,0.52
558.0,-2.25,-3.953,8.45,-0.535,-0.813,0.52
562.0,-2.213,-3.908,8.505,-0.544,-0.858,0.521
566.0,-2.213,-3.908,8.505,-0.544,-0.858,0.521
570.0,-2.098,-3.857,8.575,-0.547,-0.904,0.521
574.0,-2.098,-3.857,8.575,-0.547,-0.904,0.521
578.0,-2.098,-3.857,8.575,-0.547,-0.904,0.521
582.0,-1.96,-3.808,8.602,-0.544,-0.946,0.526
586.0,-1.96,-3.808,8.602,-0.544,-0.946,0.526
590.0,-1.822,-3.808,8.545,-0.534,-0.982,0.536
593.0,-1.822,-3.808,8.545,-0.534,-0.982,0.536
597.0,-1.822,-3.808,8.545,-0.534,-0.982,0.536
601.0,-1.675,-3.829,8.454,-0.515,-1.005,0.551
605.0,-1.675,-3.829,8.454,-0.515,-1.005,0.551
609.0,-1.526,-3.861,8.381,-0.491,-1.014,0.57
613.0,-1.526,-3.861,8.381,-0.491,-1.014,0.57
617.0,-1.526,-3.861,8.381,-0.491,-1.014,0.57
621.0,-1.402,-3.887,8.329,-0.463,-1.015,0.584
625.0,-1.402,-3.887,8.329,-0.463,-1.015,0.584
629.0,-1.301,-3.916,8.327,-0.439,-1.009,0.596
632.0,-1.301,-3.916,8.327,-0.439,-1.009,0.596
636.0,-1.301,-3.916,8.327,-0.439,-1.009,0.596
640.0,-1.217,-4.006,8.356,-0.422,-0.999,0.613
644.0,-1.217,-4.006,8.356,-0.422,-0.999,0.613
648.0,-1.015,-4.126,8.463,-0.422,-0.982,0.635
652.0,-1.015,-4.126,8.463,-0.41,-0.982,0.635
656.0,-1.015,-4.126,8.463,-0.41,-0.982,0.635
660.0,-0.822,-4.202,8.626,-0.396,-0.956,0.658
664.0,-0.822,-4.202,8.626,-0.396,-0.956,0.658
668.0,-0.744,-4.208,8.808,-0.396,-0.956,0.658
672.0,-0.744,-4.208,8.808,-0.382,-0.928,0.678
675.0,-0.744,-4.208,8.808,-0.382,-0.928,0.678
679.0,-0.773,-4.168,8.946,-0.372,-0.907,0.701
683.0,-0.773,-4.168,8.946,-0.372,-0.907,0.701
687.0,-0.863,-4.211,9.046,-0.372,-0.907,0.701
691.0,-0.863,-4.211,9.046,-0.369,-0.895,0.726
695.0,-0.863,-4.211,9.046,-0.369,-0.895,0.726
699.0,-0.919,-4.277,9.117,-0.375,-0.889,0.751
703.0,-0.919,-4.277,9.117,-0.375,-0.889,0.751
707.0,-0.919,-4.277,9.154,-0.375,-0.889,0.751
711.0,-0.993,-4.318,9.154,-0.384,-0.889,0.766
715.0,-0.993,-4.318,9.154,-0.384,-0.889,0.766
718.0,-1.071,-4.372,9.153,-0.398,-0.894,0.771
722.0,-1.071,-4.372,9.153,-0.398,-0.894,0.771
726.0,-1.071,-4.372,9.153,-0.398,-0.894,0.771
730.0,-1.161,-4.411,9.083,-0.415,-0.904,0.767
734.0,-1.161,-4.411,9.083,-0.415,-0.904,0.767
738.0,-1.219,-4.43,8.916,-0.429,-0.915,0.756
742.0,-1.219,-4.43,8.916,-0.429,-0.915,0.756
746.0,-1.219,-4.43,8.916,-0.429,-0.915,0.756
750.0,-1.178,-4.492,8.758,-0.433,-0.926,0.74
754.0,-1.178,-4.492,8.758,-0.433,-0.926,0.74
757.0,-1.038,-4.57,8.623,-0.426,-0.936,0.716
761.0,-1.038,-4.57,8.623,-0.426,-0.936,0.716
765.0,-1.038,-4.57,8.623,-0.426,-0.936,0.716
769.0,-0.822,-4.61,8.535,-0.408,-0.933,0.691
773.0,-0.822,-4.61,8.535,-0.408,-0.933,0.691
777.0,-0.598,-4.627,8.524,-0.38,-0.917,0.672
781.0,-0.598,-4.627,8.524,-0.38,-0.917,0.672
785.0,-0.598,-4.627,8.524,-0.38,-0.917,0.672
789.0,-0.51,-4.578,8.557,-0.345,-0.896,0.661
793.0,-0.51,-4.578,8.557,-0.345,-0.896,0.661
797.0,-0.498,-4.477,8.53,-0.303,-0.88,0.657
800.0,-0.498,-4.477,8.53,-0.303,-0.88,0.657
804.0,-0.498,-4.477,8.53,-0.303,-0.88,0.657
808.0,-0.43,-4.359,8.474,-0.259,-0.872,0.66
812.0,-0.43,-4.359,8.474,-0.259,-0.872,0.66
816.0,-0.305,-4.261,8.421,-0.22,-0.866,0.67
820.0,-0.305,-4.261,8.421,-0.22,-0.866,0.67
824.0,-0.305,-4.261,8.421,-0.22,-0.866,0.67
828.0,-0.171,-4.206,8.365,-0.192,-0.853,0.691
832.0,-0.171,-4.206,8.365,-0.192,-0.853,0.691
836.0,-0.077,-4.183,8.324,-0.192,-0.853,0.718
840.0,-0.077,-4.183,8.324,-0.182,-0.834,0.718
843.0,-0.077,-4.183,8.324,-0.182,-0.834,0.718
847.0,-0.056,-4.198,8.271,-0.191,-0.807,0.748
851.0,-0.056,-4.198,8.271,-0.191,-0.807,0.748
855.0,-0.083,-4.232,8.227,-0.191,-0.807,0.748
859.0,-0.083,-4.232,8.227,-0.213,-0.775,0.778
863.0,-0.083,-4.232,8.227,-0.213,-0.775,0.778
867.0,-0.15,-4.292,8.189,-0.243,-0.739,0.808
871.0,-0.15,-4.292,8.189,-0.243,-0.739,0.808
875.0,-0.15,-4.417,8.156,-0.243,-0.739,0.808
879.0,-0.261,-4.417,8.156,-0.275,-0.701,0.839
882.0,-0.261,-4.417,8.156,-0.275,-0.701,0.839
886.0,-0.358,-4.637,8.219,-0.307,-0.665,0.867
890.0,-0.358,-4.637,8.219,-0.307,-0.665,0.867
894.0,-0.358,-4.637,8.442,-0.307,-0.665,0.867
898.0,-0.449,-4.877,8.442,-0.334,-0.633,0.882
902.0,-0.449,-4.877,8.442,-0.334,-0.633,0.882
906.0,-0.617,-4.986,8.67,-0.359,-0.612,0.881
910.0,-0.617,-4.986,8.67,-0.359,-0.612,0.881
914.0,-0.617,-4.986,8.67,-0.359,-0.612,0.881
918.0,-0.787,-5.057,8.841,-0.385,-0.606,0.878
922.0,-0.787,-5.057,8.841,-0.385,-0.606,0.878
925.0,-0.891,-5.139,8.969,-0.417,-0.613,0.877
929.0,-0.891,-5.139,8.969,-0.417,-0.613,0.877
933.0,-0.891,-5.139,8.969,-0.417,-0.613,0.877
937.0,-0.87,-5.268,9.013,-0.448,-0.624,0.877
941.0,-0.87,-5.268,9.013,-0.448,-0.624,0.877
945.0,-0.777,-5.392,9.005,-0.472,-0.634,0.871
949.0,-0.777,-5.392,9.005,-0.472,-0.634,0.871
953.0,-0.777,-5.392,9.005,-0.472,-0.634,0.871
957.0,-0.674,-5.44,8.953,-0.48,-0.644,0.853
961.0,-0.674,-5.44,8.953,-0.48,-0.644,0.853
965.0,-0.528,-5.405,8.863,-0.473,-0.653,0.826
968.0,-0.528,-5.405,8.863,-0.473,-0.653,0.826
972.0,-0.528,-5.405,8.863,-0.473,-0.653,0.826
976.0,-0.471,-5.337,8.785,-0.454,-0.658,0.801
980.0,-0.471,-5.337,8.785,-0.454,-0.658,0.801
984.0,-0.479,-5.288,8.716,-0.426,-0.665,0.778
988.0,-0.479,-5.288,8.716,-0.426,-0.665,0.778
992.0,-0.479,-5.288,8.716,-0.426,-0.665,0.778
996.0,-0.457,-5.206,8.606,-0.389,-0.677,0.756
1000.0,-0.457,-5.206,8.606,-0.389,-0.677,0.756
1004.0,-0.333,-5.127,8.495,-0.351,-0.688,0.74
1008.0,-0.333,-5.127,8.495,-0.351,-0.688,0.74
1012.0,-0.333,-5.127,8.495,-0.351,-0.688,0.74
1016.0,-0.205,-5.076,8.372,-0.316,-0.693,0.74
1020.0,-0.205,-5.076,8.372,-0.316,-0.693,0.74
1024.0,-0.143,-5.075,8.302,-0.29,-0.693,0.754
1028.0,-0.143,-5.075,8.302,-0.29,-0.693,0.754
1032.0,-0.143,-5.075,8.302,-0.29,-0.693,0.754
1036.0,-0.159,-5.121,8.264,-0.273,-0.69,0.77
1040.0,-0.159,-5.121,8.264,-0.273,-0.69,0.77
1044.0,-0.159,-5.143,8.259,-0.264,-0.688,0.784
1048.0,-0.159,-5.143,8.259,-0.264,-0.688,0.784
1052.0,-0.159,-5.143,8.259,-0.264,-0.688,0.784
1056.0,-0.24,-5.157,8.271,-0.265,-0.689,0.795
1060.0,-0.24,-5.157,8.271,-0.265,-0.689,0.795
1064.0,-0.29,-5.216,8.263,-0.271,-0.697,0.801
1068.0,-0.29,-5.216,8.263,-0.271,-0.697,0.801
1072.0,-0.29,-5.216,8.263,-0.271,-0.697,0.801
1076.0,-0.255,-5.316,8.279,-0.28,-0.707,0.803
1080.0,-0.255,-5.316,8.279,-0.28,-0.707,0.803
1084.0,-0.236,-5.481,8.288,-0.298,-0.713,0.806
1088.0,-0.236,-5.481,8.288,-0.298,-0.713,0.806
1092.0,-0.236,-5.481,8.282,-0.298,-0.713,0.806
1096.0,-0.268,-5.628,8.282,-0.324,-0.715,0.813
1100.0,-0.268,-5.628,8.282,-0.324,-0.715,0.813
1103.0,-0.29,-5.758,8.275,-0.348,-0.716,0.816
1107.0,-0.29,-5.758,8.275,-0.348,-0.716,0.816
1111.0,-0.29,-5.838,8.256,-0.348,-0.716,0.816
1115.0,-0.249,-5.838,8.256,-0.366,-0.717,0.809
1119.0,-0.249,-5.838,8.256,-0.366,-0.717,0.809
1123.0,-0.162,-5.882,8.218,-0.384,-0.713,0.797
1127.0,-0.162,-5.882,8.218,-0.384,-0.713,0.797
1131.0,-0.099,-5.935,8.249,-0.384,-0.713,0.797
1135.0,-0.099,-5.935,8.249,-0.406,-0.704,0.787
1139.0,-0.099,-5.935,8.249,-0.406,-0.704,0.787
1143.0,-0.109,-6.02,8.278,-0.433,-0.689,0.778
1147.0,-0.109,-6.02,8.278,-0.433,-0.689,0.778
1151.0,-0.186,-6.084,8.268,-0.433,-0.689,0.761
1155.0,-0.186,-6.084,8.268,-0.462,-0.678,0.761
1159.0,-0.186,-6.084,8.268,-0.462,-0.678,0.761
1163.0,-0.242,-6.124,8.266,-0.486,-0.674,0.734
1167.0,-0.242,-6.124,8.266,-0.486,-0.674,0.734
1171.0,-0.236,-6.113,8.215,-0.486,-0.674,0.698
1175.0,-0.236,-6.113,8.215,-0.501,-0.674,0.698
1179.0,-0.236,-6.113,8.215,-0.501,-0.674,0.698
1183.0,-0.204,-6.088,8.158,-0.504,-0.676,0.661
1187.0,-0.204,-6.088,8.158,-0.504,-0.676,0.661
1191.0,-0.188,-6.088,8.067,-0.496,-0.674,0.63
1195.0,-0.188,-6.088,8.067,-0.496,-0.674,0.63
1199.0,-0.188,-6.088,8.067,-0.496,-0.674,0.63
1203.0,-0.196,-6.081,7.982,-0.481,-0.67,0.606
1207.0,-0.196,-6.081,7.982,-0.481,-0.67,0.606
1211.0,-0.262,-6.089,7.926,-0.457,-0.666,0.588
1215.0,-0.262,-6.089,7.926,-0.457,-0.666,0.588
1219.0,-0.262,-6.089,7.926,-0.457,-0.666,0.588
1223.0,-0.358,-6.081,7.856,-0.426,-0.666,0.572
1227.0,-0.358,-6.081,7.856,-0.426,-0.666,0.572
1231.0,-0.445,-6.004,7.774,-0.391,-0.67,0.559
1235.0,-0.445,-6.004,7.774,-0.391,-0.67,0.559
1239.0,-0.445,-6.004,7.774,-0.391,-0.67,0.559
1243.0,-0.486,-5.905,7.713,-0.356,-0.679,0.552
1247.0,-0.486,-5.905,7.713,-0.356,-0.679,0.552
1251.0,-0.507,-5.774,7.64,-0.328,-0.69,0.555
1255.0,-0.507,-5.774,7.64,-0.328,-0.69,0.555
1259.0,-0.507,-5.774,7.64,-0.328,-0.69,0.555
1263.0,-0.488,-5.7,7.628,-0.309,-0.696,0.569
1267.0,-0.488,-5.7,7.628,-0.309,-0.696,0.569
1271.0,-0.5,-5.71,7.656,-0.29,-0.702,0.593
1275.0,-0.5,-5.71,7.656,-0.29,-0.702,0.593
1279.0,-0.5,-5.71,7.689,-0.29,-0.702,0.593
1283.0,-0.552,-5.717,7.689,-0.263,-0.714,0.623
1287.0,-0.552,-5.717,7.689,-0.263,-0.714,0.623
1291.0,-0.586,-5.737,7.718,-0.228,-0.728,0.659
1295.0,-0.586,-5.737,7.718,-0.228,-0.728,0.659
1299.0,-0.598,-5.746,7.774,-0.228,-0.728,0.659
1303.0,-0.598,-5.746,7.774,-0.196,-0.742,0.705
1307.0,-0.598,-5.746,7.774,-0.196,-0.742,0.705
1311.0,-0.589,-5.716,7.814,-0.176,-0.752,0.765
1315.0,-0.589,-5.716,7.814,-0.176,-0.752,0.765
1319.0,-0.638,-5.678,7.847,-0.176,-0.752,0.837
1323.0,-0.638,-5.678,7.847,-0.175,-0.757,0.837
1327.0,-0.638,-5.678,7.847,-0.175,-0.757,0.837
1331.0,-0.721,-5.675,7.895,-0.196,-0.76,0.917
1335.0,-0.721,-5.675,7.895,-0.196,-0.76,0.917
1339.0,-0.814,-5.783,8.026,-0.196,-0.759,1.002
1343.0,-0.814,-5.783,8.026,-0.239,-0.759,1.002
1347.0,-0.814,-5.783,8.026,-0.239,-0.759,1.002
1351.0,-0.939,-6.005,8.203,-0.301,-0.754,1.088
1355.0,-0.939,-6.005,8.203,-0.301,-0.754,1.088
1359.0,-1.147,-6.256,8.407,-0.37,-0.748,1.173
1363.0,-1.147,-6.256,8.407,-0.37,-0.748,1.173
1367.0,-1.147,-6.256,8.407,-0.37,-0.748,1.173
1371.0,-1.47,-6.491,8.656,-0.433,-0.753,1.239
1375.0,-1.47,-6.491,8.656,-0.433,-0.753,1.239
1379.0,-1.818,-6.662,8.883,-0.48,-0.78,1.278
1383.0,-1.818,-6.662,8.883,-0.48,-0.78,1.278
1387.0,-1.818,-6.662,8.883,-0.48,-0.78,1.278
1391.0,-2.058,-6.672,8.904,-0.504,-0.832,1.289
1395.0,-2.058,-6.672,8.904,-0.504,-0.832,1.289
1399.0,-2.049,-6.565,8.785,-0.508,-0.894,1.285
1403.0,-2.049,-6.565,8.785,-0.508,-0.894,1.285
1407.0,-2.049,-6.565,8.785,-0.508,-0.894,1.285
1411.0,-1.838,-6.476,8.633,-0.494,-0.953,1.278
1415.0,-1.838,-6.476,8.633,-0.494,-0.953,1.278
1419.0,-1.613,-6.345,8.467,-0.464,-1.0,1.271
1423.0,-1.613,-6.345,8.467,-0.464,-1.0,1.271
1427.0,-1.613,-6.345,8.467,-0.464,-1.0,1.271
1431.0,-1.476,-6.176,8.336,-0.425,-1.037,1.27
1435.0,-1.476,-6.176,8.336,-0.425,-1.037,1.27
1439.0,-1.414,-6.041,8.263,-0.388,-1.068,1.282
1443.0,-1.414,-6.041,8.263,-0.388,-1.068,1.282
1447.0,-1.414,-6.041,8.171,-0.388,-1.068,1.282
1451.0,-1.431,-5.895,8.171,-0.358,-1.096,1.301
1455.0,-1.431,-5.895,8.171,-0.358,-1.096,1.301
1459.0,-1.489,-5.718,8.041,-0.334,-1.124,1.322
1463.0,-1.489,-5.718,8.041,-0.334,-1.124,1.322
1467.0,-1.489,-5.52,7.926,-0.334,-1.124,1.322
1471.0,-1.497,-5.52,7.926,-0.312,-1.152,1.34
1475.0,-1.497,-5.52,7.926,-0.312,-1.152,1.34
1479.0,-1.46,-5.363,7.808,-0.291,-1.181,1.359
1483.0,-1.46,-5.363,7.808,-0.291,-1.181,1.359
1487.0,-1.417,-5.306,7.75,-0.291,-1.181,1.359
1491.0,-1.417,-5.306,7.75,-0.272,-1.205,1.383
1495.0,-1.417,-5.306,7.75,-0.272,-1.205,1.383
1499.0,-1.387,-5.341,7.71,-0.254,-1.227,1.411
1503.0,-1.387,-5.341,7.71,-0.254,-1.227,1.411
1507.0,-1.302,-5.436,7.688,-0.254,-1.227,1.44
1511.0,-1.302,-5.436,7.688,-0.238,-1.238,1.44
1515.0,-1.302,-5.436,7.688,-0.238,-1.238,1.44
1519.0,-1.247,-5.538,7.72,-0.228,-1.236,1.473
1523.0,-1.247,-5.538,7.72,-0.228,-1.236,1.473
1527.0,-1.323,-5.647,7.783,-0.228,-1.232,1.508
1531.0,-1.323,-5.647,7.783,-0.226,-1.232,1.508
1535.0,-1.323,-5.647,7.783,-0.226,-1.232,1.508
1539.0,-1.387,-5.744,7.79,-0.232,-1.23,1.541
1543.0,-1.387,-5.744,7.79,-0.232,-1.23,1.541
1547.0,-1.446,-5.82,7.78,-0.251,-1.227,1.568
1551.0,-1.446,-5.82,7.78,-0.251,-1.227,1.568
1555.0,-1.446,-5.82,7.78,-0.251,-1.227,1.568
1559.0,-1.536,-5.947,7.772,-0.281,-1.226,1.59
1563.0,-1.536,-5.947,7.772,-0.281,-1.226,1.59
1567.0,-1.668,-6.108,7.755,-0.315,-1.223,1.605
1571.0,-1.668,-6.108,7.755,-0.315,-1.223,1.605
1575.0,-1.668,-6.108,7.755,-0.315,-1.223,1.605
1579.0,-1.777,-6.251,7.82,-0.347,-1.225,1.61
1583.0,-1.777,-6.251,7.82,-0.347,-1.225,1.61
1587.0,-1.834,-6.44,7.88,-0.373,-1.232,1.605
1591.0,-1.834,-6.44,7.88,-0.373,-1.232,1.605
1595.0,-1.834,-6.44,7.88,-0.373,-1.232,1.605
1599.0,-1.838,-6.61,7.909,-0.393,-1.235,1.597
1603.0,-1.838,-6.61,7.909,-0.393,-1.235,1.597
1607.0,-1.822,-6.76,7.942,-0.407,-1.226,1.587
1611.0,-1.822,-6.76,7.942,-0.407,-1.226,1.587
1615.0,-1.822,-6.76,7.942,-0.407,-1.226,1.587
1619.0,-1.812,-6.882,7.93,-0.421,-1.209,1.571
1623.0,-1.812,-6.882,7.93,-0.421,-1.209,1.571
1627.0,-1.793,-6.986,7.897,-0.438,-1.184,1.542
1631.0,-1.793,-6.986,7.897,-0.438,-1.184,1.542
1635.0,-1.793,-6.986,7.856,-0.438,-1.184,1.542
1639.0,-1.811,-7.08,7.856,-0.454,-1.153,1.497
1643.0,-1.811,-7.08,7.856,-0.454,-1.153,1.497
1647.0,-1.802,-7.167,7.795,-0.465,-1.117,1.434
1651.0,-1.802,-7.167,7.795,-0.465,-1.117,1.434
1655.0,-1.784,-7.18,7.746,-0.465,-1.117,1.434
1659.0,-1.784,-7.18,7.746,-0.464,-1.08,1.356
1663.0,-1.784,-7.18,7.746,-0.464,-1.08,1.356
1667.0,-1.765,-7.156,7.731,-0.45,-1.042,1.275
1671.0,-1.765,-7.156,7.731,-0.45,-1.042,1.275
1675.0,-1.715,-7.174,7.705,-0.45,-1.042,1.201
1678.0,-1.715,-7.174,7.705,-0.427,-1.003,1.201
1682.0,-1.715,-7.174,7.705,-0.427,-1.003,1.201
1686.0,-1.708,-7.213,7.72,-0.402,-0.961,1.138
1690.0,-1.708,-7.213,7.72,-0.402,-0.961,1.138
1694.0,-1.7,-7.279,7.749,-0.402,-0.917,1.079
1698.0,-1.7,-7.279,7.749,-0.377,-0.917,1.079
1702.0,-1.7,-7.279,7.749,-0.377,-0.917,1.079
1706.0,-1.746,-7.363,7.851,-0.355,-0.874,1.023
1710.0,-1.746,-7.363,7.851,-0.355,-0.874,1.023
1714.0,-1.86,-7.454,8.014,-0.339,-0.836,0.974
1718.0,-1.86,-7.454,8.014,-0.339,-0.836,0.974
1722.0,-1.86,-7.454,8.014,-0.339,-0.836,0.974
1726.0,-2.013,-7.518,8.113,-0.32,-0.802,0.93
1730.0,-2.013,-7.518,8.113,-0.32,-0.802,0.93
1734.0,-2.163,-7.586,8.218,-0.292,-0.774,0.893
1738.0,-2.163,-7.586,8.218,-0.292,-0.774,0.893
1742.0,-2.163,-7.586,8.218,-0.292,-0.774,0.893
1746.0,-2.316,-7.676,8.265,-0.254,-0.751,0.866
1750.0,-2.316,-7.676,8.265,-0.254,-0.751,0.866
1754.0,-2.499,-7.791,8.265,-0.204,-0.733,0.845
1758.0,-2.499,-7.791,8.265,-0.204,-0.733,0.845
1762.0,-2.499,-7.791,8.265,-0.204,-0.733,0.845
1766.0,-2.625,-7.811,8.216,-0.144,-0.718,0.823
1770.0,-2.625,-7.811,8.216,-0.144,-0.718,0.823
1774.0,-2.689,-7.738,8.201,-0.076,-0.705,0.8
1778.0,-2.689,-7.738,8.201,-0.076,-0.705,0.8
1782.0,-2.689,-7.738,8.201,-0.076,-0.705,0.8
1786.0,-2.757,-7.571,8.238,-0.01,-0.698,0.78
1790.0,-2.757,-7.571,8.238,-0.01,-0.698,0.78
1794.0,-2.849,-7.339,8.258,0.048,-0.7,0.764
1798.0,-2.849,-7.339,8.258,0.048,-0.7,0.764
1802.0,-2.849,-7.339,8.258,0.048,-0.7,0.764
1806.0,-2.922,-7.044,8.308,0.094,-0.711,0.751
1810.0,-2.922,-7.044,8.308,0.094,-0.711,0.751
1814.0,-2.924,-6.701,8.322,0.128,-0.728,0.746
1818.0,-2.924,-6.701,8.322,0.128,-0.728,0.746
1822.0,-2.924,-6.701,8.322,0.128,-0.728,0.746
1826.0,-2.867,-6.337,8.289,0.151,-0.749,0.747
1829.0,-2.867,-6.337,8.289,0.151,-0.749,0.747
1833.0,-2.721,-5.995,8.202,0.164,-0.773,0.752
1837.0,-2.721,-5.995,8.202,0.164,-0.773,0.752
1841.0,-2.721,-5.995,8.202,0.164,-0.773,0.752
1845.0,-2.573,-5.733,8.049,0.165,-0.794,0.761
1849.0,-2.573,-5.733,8.049,0.165,-0.794,0.761
1853.0,-2.457,-5.488,7.896,0.158,-0.808,0.77
1857.0,-2.457,-5.488,7.896,0.158,-0.808,0.77
1861.0,-2.457,-5.488,7.896,0.158,-0.808,0.77
1865.0,-2.297,-5.349,7.718,0.15,-0.815,0.779
1869.0,-2.297,-5.349,7.718,0.15,-0.815,0.779
1872.0,-2.206,-5.289,7.688,0.143,-0.813,0.784
1876.0,-2.206,-5.289,7.688,0.143,-0.813,0.784
1880.0,-2.206,-5.289,7.688,0.143,-0.813,0.784
1884.0,-2.154,-5.198,7.724,0.139,-0.812,0.783
1888.0,-2.154,-5.198,7.724,0.139,-0.812,0.783
1892.0,-2.101,-5.115,7.817,0.139,-0.811,0.782
1896.0,-2.101,-5.115,7.817,0.133,-0.811,0.782
1900.0,-2.101,-5.115,7.817,0.133,-0.811,0.782
1904.0,-2.034,-5.11,7.907,0.119,-0.808,0.788
1908.0,-2.034,-5.11,7.907,0.119,-0.808,0.788
1911.0,-2.005,-5.237,8.029,0.119,-0.808,0.808
1915.0,-2.005,-5.237,8.029,0.093,-0.797,0.808
1919.0,-2.005,-5.237,8.029,0.093,-0.797,0.808
1923.0,-2.016,-5.48,8.111,0.062,-0.776,0.843
1927.0,-2.016,-5.48,8.111,0.062,-0.776,0.843
1931.0,-2.107,-5.818,8.218,0.062,-0.776,0.843
1935.0,-2.107,-5.818,8.218,0.031,-0.738,0.888
1939.0,-2.107,-5.818,8.218,0.031,-0.738,0.888
1943.0,-2.305,-6.253,8.333,0.007,-0.695,0.932
1947.0,-2.305,-6.253,8.333,0.007,-0.695,0.932
1951.0,-2.305,-6.693,8.509,0.007,-0.695,0.932
1954.0,-2.594,-6.693,8.509,-0.006,-0.653,0.965
1958.0,-2.594,-6.693,8.509,-0.006,-0.653,0.965
1962.0,-2.989,-7.124,8.774,-0.011,-0.623,0.975
1966.0,-2.989,-7.124,8.774,-0.011,-0.623,0.975
1970.0,-3.392,-7.51,9.008,-0.011,-0.623,0.975
1974.0,-3.392,-7.51,9.008,-0.01,-0.617,0.957
1978.0,-3.392,-7.51,9.008,-0.01,-0.617,0.957
1982.0,-3.677,-7.806,9.212,-0.002,-0.632,0.916
1986.0,-3.677,-7.806,9.212,-0.002,-0.632,0.916
1990.0,-3.77,-7.969,9.278,-0.002,-0.632,0.865
1994.0,-3.77,-7.969,9.278,0.014,-0.658,0.865
1998.0,-3.77,-7.969,9.278,0.014,-0.658,0.865
2002.0,-3.71,-8.052,9.285,0.041,-0.686,0.813
2006.0,-3.71,-8.052,9.285,0.041,-0.686,0.813
2010.0,-3.555,-8.093,9.229,0.041,-0.686,0.813
2014.0,-3.555,-8.093,9.229,0.078,-0.705,0.77
2018.0,-3.555,-8.093,9.229,0.078,-0.705,0.77
2022.0,-3.373,-8.076,9.187,0.123,-0.712,0.734
2026.0,-3.373,-8.076,9.187,0.123,-0.712,0.734
2030.0,-3.373,-7.924,9.198,0.123,-0.712,0.734
2033.0,-3.187,-7.924,9.198,0.168,-0.713,0.702
2037.0,-3.187,-7.924,9.198,0.168,-0.713,0.702
2041.0,-3.062,-7.634,9.237,0.205,-0.716,0.676
2045.0,-3.062,-7.634,9.237,0.205,-0.716,0.676
2049.0,-3.062,-7.634,9.233,0.205,-0.716,0.676
2053.0,-2.974,-7.323,9.233,0.224,-0.725,0.659
2057.0,-2.974,-7.323,9.233,0.224,-0.725,0.659
2061.0,-2.843,-7.041,9.176,0.224,-0.734,0.652
2065.0,-2.843,-7.041,9.176,0.224,-0.734,0.652
2069.0,-2.843,-7.041,9.176,0.224,-0.734,0.652
2073.0,-2.703,-6.884,9.081,0.208,-0.736,0.651
2076.0,-2.703,-6.884,9.081,0.208,-0.736,0.651
2080.0,-2.601,-6.786,8.965,0.181,-0.73,0.651
2084.0,-2.601,-6.786,8.965,0.181,-0.73,0.651
2088.0,-2.601,-6.786,8.965,0.181,-0.73,0.651
2092.0,-2.578,-6.77,8.846,0.152,-0.719,0.648
2096.0,-2.578,-6.77,8.846,0.152,-0.719,0.648
2100.0,-2.492,-6.784,8.648,0.126,-0.706,0.638
2104.0,-2.492,-6.784,8.648,0.126,-0.706,0.638
2108.0,-2.492,-6.784,8.648,0.126,-0.706,0.638
2112.0,-2.377,-6.843,8.532,0.103,-0.681,0.621
2115.0,-2.377,-6.843,8.532,0.103,-0.681,0.621
2119.0,-2.376,-6.958,8.588,0.078,-0.65,0.603
2123.0,-2.376,-6.958,8.588,0.078,-0.65,0.603
2127.0,-2.376,-6.958,8.588,0.078,-0.65,0.603
2131.0,-2.432,-7.073,8.691,0.056,-0.62,0.585
2135.0,-2.432,-7.073,8.691,0.056,-0.62,0.585
2139.0,-2.515,-7.236,8.855,0.04,-0.595,0.567
2143.0,-2.515,-7.236,8.855,0.04,-0.595,0.567
2147.0,-2.515,-7.236,8.855,0.04,-0.595,0.567
2151.0,-2.601,-7.392,8.983,0.036,-0.575,0.546
2155.0,-2.601,-7.392,8.983,0.036,-0.575,0.546
2158.0,-2.666,-7.503,9.031,0.036,-0.559,0.527
2162.0,-2.666,-7.503,9.031,0.054,-0.559,0.527
2166.0,-2.666,-7.503,9.031,0.054,-0.559,0.527
2170.0,-2.632,-7.582,8.984,0.09,-0.547,0.504
2174.0,-2.632,-7.582,8.984,0.09,-0.547,0.504
2178.0,-2.506,-7.631,8.912,0.09,-0.547,0.48
2182.0,-2.506,-7.631,8.912,0.131,-0.529,0.48
2186.0,-2.506,-7.631,8.912,0.131,-0.529,0.48
2190.0,-2.352,-7.6,8.862,0.171,-0.497,0.459
2194.0,-2.352,-7.6,8.862,0.171,-0.497,0.459
2197.0,-2.294,-7.519,8.803,0.171,-0.497,0.459
2201.0,-2.294,-7.519,8.803,0.208,-0.456,0.444
2205.0,-2.294,-7.519,8.803,0.208,-0.456,0.444
2209.0,-2.271,-7.441,8.699,0.239,-0.411,0.438
2213.0,-2.271,-7.441,8.699,0.239,-0.411,0.438
2217.0,-2.271,-7.482,8.654,0.239,-0.411,0.438
2221.0,-2.327,-7.482,8.654,0.267,-0.366,0.436
2225.0,-2.327,-7.482,8.654,0.267,-0.366,0.436
2229.0,-2.386,-7.528,8.647,0.3,-0.327,0.429
2233.0,-2.386,-7.528,8.647,0.3,-0.327,0.429
2237.0,-2.386,-7.528,8.62,0.3,-0.327,0.429
2240.0,-2.381,-7.485,8.62,0.344,-0.295,0.41
2244.0,-2.381,-7.485,8.62,0.344,-0.295,0.41
2248.0,-2.323,-7.378,8.621,0.392,-0.264,0.386
2252.0,-2.323,-7.378,8.621,0.392,-0.264,0.386
2256.0,-2.323,-7.378,8.621,0.392,-0.264,0.386
2260.0,-2.309,-7.18,8.59,0.431,-0.233,0.364
2264.0,-2.309,-7.18,8.59,0.431,-0.233,0.364
2268.0,-2.316,-6.922,8.556,0.45,-0.205,0.343
2272.0,-2.316,-6.922,8.556,0.45,-0.205,0.343
2276.0,-2.316,-6.922,8.556,0.45,-0.205,0.343
2280.0,-2.28,-6.665,8.514,0.45,-0.182,0.323
2283.0,-2.28,-6.665,8.514,0.45,-0.182,0.323
2287.0,-2.2,-6.435,8.463,0.436,-0.162,0.305
2291.0,-2.2,-6.435,8.463,0.436,-0.162,0.305
2295.0,-2.2,-6.435,8.463,0.436,-0.162,0.305
2299.0,-2.156,-6.359,8.392,0.414,-0.143,0.292
2303.0,-2.156,-6.359,8.392,0.414,-0.143,0.292
2307.0,-2.106,-6.409,8.352,0.397,-0.125,0.286
2311.0,-2.106,-6.409,8.352,0.397,-0.125,0.286
2315.0,-2.106,-6.409,8.352,0.397,-0.125,0.286
2319.0,-2.02,-6.524,8.264,0.395,-0.104,0.281
2322.0,-2.02,-6.524,8.264,0.395,-0.104,0.281
2326.0,-1.915,-6.586,8.14,0.414,-0.077,0.281
2330.0,-1.915,-6.586,8.14,0.414,-0.077,0.281
2334.0,-1.915,-6.586,8.14,0.414,-0.077,0.281
2338.0,-1.797,-6.589,8.029,0.451,-0.041,0.289
2342.0,-1.797,-6.589,8.029,0.451,-0.041,0.289
2346.0,-1.737,-6.588,8.018,0.451,-0.004,0.303
2350.0,-1.737,-6.588,8.018,0.502,-0.004,0.303
2354.0,-1.737,-6.588,8.018,0.502,-0.004,0.303
2358.0,-1.738,-6.547,7.989,0.561,0.028,0.313
2361.0,-1.738,-6.547,7.989,0.561,0.028,0.313
2365.0,-1.692,-6.472,7.95,0.561,0.028,0.313
2369.0,-1.692,-6.472,7.95,0.624,0.054,0.319
2373.0,-1.692,-6.472,7.95,0.624,0.054,0.319
2377.0,-1.601,-6.412,7.852,0.683,0.082,0.327
2381.0,-1.601,-6.412,7.852,0.683,0.082,0.327
2384.0,-1.601,-6.412,7.852,0.683,0.082,0.327
2388.0,-1.496,-6.364,7.774,0.735,0.117,0.34
2392.0,-1.496,-6.364,7.774,0.735,0.117,0.34
2396.0,-1.382,-6.26,7.729,0.779,0.153,0.354
2400.0,-1.382,-6.26,7.729,0.779,0.153,0.354
2403.0,-1.382,-6.26,7.729,0.779,0.153,0.354
2407.0,-1.229,-6.143,7.647,0.814,0.195,0.366
2411.0,-1.229,-6.143,7.647,0.814,0.195,0.366
2415.0,-1.09,-6.023,7.601,0.814,0.246,0.379
2419.0,-1.09,-6.023,7.601,0.837,0.246,0.379
2423.0,-1.09,-6.023,7.601,0.837,0.246,0.379
2426.0,-0.994,-5.924,7.594,0.851,0.308,0.393
2430.0,-0.994,-5.924,7.594,0.851,0.308,0.393
2434.0,-0.994,-5.924,7.585,0.851,0.308,0.393
2438.0,-0.904,-5.814,7.585,0.864,0.377,0.402
2442.0,-0.904,-5.814,7.585,0.864,0.377,0.402
2446.0,-0.875,-5.776,7.604,0.879,0.455,0.411
2449.0,-0.875,-5.776,7.604,0.879,0.455,0.411
2453.0,-0.875,-5.776,7.604,0.879,0.455,0.411
2457.0,-0.94,-5.812,7.712,0.903,0.539,0.42
2461.0,-0.94,-5.812,7.712,0.903,0.539,0.42
2465.0,-1.101,-5.891,7.932,0.95,0.621,0.423
2468.0,-1.101,-5.891,7.932,0.95,0.621,0.423
2472.0,-1.101,-5.891,7.932,0.95,0.621,0.423
2476.0,-1.256,-5.906,8.198,1.029,0.693,0.42
2480.0,-1.256,-5.906,8.198,1.029,0.693,0.42
2484.0,-1.41,-5.818,8.483,1.029,0.693,0.42
2488.0,-1.41,-5.818,8.483,1.134,0.751,0.422
2491.0,-1.41,-5.818,8.483,1.134,0.751,0.422
2495.0,-1.521,-5.843,8.701,1.245,0.792,0.436
2499.0,-1.521,-5.843,8.701,1.245,0.792,0.436
2503.0,-1.521,-5.843,8.701,1.245,0.792,0.436
2507.0,-1.581,-5.852,8.684,1.342,0.823,0.453
2510.0,-1.581,-5.852,8.684,1.342,0.823,0.453
2514.0,-1.589,-5.779,8.539,1.408,0.854,0.465
2518.0,-1.589,-5.779,8.539,1.408,0.854,0.465
2522.0,-1.589,-5.779,8.539,1.408,0.854,0.465
2526.0,-1.438,-5.62,8.373,1.436,0.89,0.469
2530.0,-1.438,-5.62,8.373,1.436,0.89,0.469
2533.0,-1.193,-5.388,8.219,1.436,0.89,0.461
2537.0,-1.193,-5.388,8.219,1.432,0.935,0.461
2541.0,-1.193,-5.388,8.219,1.432,0.935,0.461
2545.0,-0.94,-5.094,8.085,1.407,0.988,0.446
2549.0,-0.94,-5.094,8.085,1.407,0.988,0.446
2552.0,-0.94,-5.094,7.945,1.407,0.988,0.446
2556.0,-0.705,-4.829,7.945,1.372,1.048,0.43
2560.0,-0.705,-4.829,7.945,1.372,1.048,0.43
2564.0,-0.523,-4.681,7.871,1.335,1.113,0.411
2568.0,-0.523,-4.681,7.871,1.335,1.113,0.411
2572.0,-0.523,-4.681,7.871,1.335,1.113,0.411
2575.0,-0.373,-4.604,7.838,1.312,1.171,0.387
2579.0,-0.373,-4.604,7.838,1.312,1.171,0.387
2583.0,-0.189,-4.51,7.805,1.314,1.22,0.363
2587.0,-0.189,-4.51,7.805,1.314,1.22,0.363
2591.0,-0.189,-4.51,7.805,1.314,1.22,0.363
2594.0,-0.002,-4.46,7.84,1.348,1.263,0.344
2598.0,-0.002,-4.46,7.84,1.348,1.263,0.344
2602.0,0.2,-4.421,7.789,1.348,1.263,0.344
2606.0,0.2,-4.421,7.789,1.416,1.296,0.326
2610.0,0.2,-4.421,7.789,1.416,1.296,0.326
2613.0,0.384,-4.325,7.606,1.517,1.325,0.31
2617.0,0.384,-4.325,7.606,1.517,1.325,0.31
2621.0,0.384,-4.325,7.606,1.517,1.325,0.31
2624.0,0.38,-4.489,7.616,1.64,1.352,0.296
2628.0,0.38,-4.489,7.616,1.64,1.352,0.296
2632.0,0.163,-4.806,7.713,1.64,1.352,0.267
2636.0,0.163,-4.806,7.713,1.768,1.359,0.267
2639.0,0.163,-4.806,7.713,1.768,1.359,0.267
2643.0,-0.181,-5.034,7.651,1.888,1.343,0.221
2647.0,-0.181,-5.034,7.651,1.888,1.343,0.221
2651.0,-0.181,-5.034,7.651,1.888,1.343,0.221
2655.0,-0.455,-5.097,7.528,1.991,1.322,0.171
2658.0,-0.455,-5.097,7.528,1.991,1.322,0.171
2662.0,-0.502,-4.991,7.44,2.069,1.303,0.13
2666.0,-0.502,-4.991,7.44,2.069,1.303,0.13
2670.0,-0.502,-4.991,7.44,2.069,1.303,0.13
2674.0,-0.406,-4.901,7.397,2.122,1.282,0.104
2678.0,-0.406,-4.901,7.397,2.122,1.282,0.104
2681.0,-0.332,-4.802,7.33,2.122,1.282,0.084
2685.0,-0.332,-4.802,7.33,2.156,1.254,0.084
2689.0,-0.332,-4.802,7.33,2.156,1.254,0.084
2693.0,-0.374,-4.668,7.259,2.176,1.222,0.065
2697.0,-0.374,-4.668,7.259,2.176,1.222,0.065
2700.0,-0.374,-4.668,7.355,2.176,1.222,0.065
2704.0,-0.617,-4.66,7.355,2.182,1.176,0.043
2708.0,-0.617,-4.66,7.355,2.182,1.176,0.043
2712.0,-1.088,-4.706,7.397,2.162,1.104,0.008
2716.0,-1.088,-4.706,7.397,2.162,1.104,0.008
2720.0,-1.088,-4.706,7.397,2.162,1.104,0.008
2723.0,-1.59,-4.662,7.25,2.114,1.008,-0.028
2727.0,-1.59,-4.662,7.25,2.114,1.008,-0.028
2731.0,-1.948,-4.712,7.169,2.042,0.906,-0.043
2735.0,-1.948,-4.712,7.169,2.042,0.906,-0.043
2739.0,-1.948,-4.712,7.169,2.042,0.906,-0.043
2743.0,-2.161,-4.859,7.09,1.966,0.808,-0.037
2747.0,-2.161,-4.859,7.09,1.966,0.808,-0.037
2751.0,-2.264,-4.979,6.982,1.966,0.718,-0.013
2755.0,-2.264,-4.979,6.982,1.899,0.718,-0.013
2759.0,-2.264,-4.979,6.982,1.899,0.718,-0.013
2762.0,-2.289,-4.998,6.886,1.854,0.644,0.022
2766.0,-2.289,-4.998,6.886,1.854,0.644,0.022
2770.0,-2.256,-4.96,6.805,1.854,0.644,0.022
2774.0,-2.256,-4.96,6.805,1.834,0.598,0.049
2778.0,-2.256,-4.96,6.805,1.834,0.598,0.049
2782.0,-2.159,-4.957,6.855,1.832,0.568,0.053
2785.0,-2.159,-4.957,6.855,1.832,0.568,0.053
2789.0,-2.159,-4.957,6.855,1.832,0.568,0.053
2793.0,-2.078,-4.795,6.778,1.833,0.556,0.023
2797.0,-2.078,-4.795,6.778,1.833,0.556,0.023
2801.0,-2.156,-4.365,6.587,1.823,0.574,-0.023
2805.0,-2.156,-4.365,6.587,1.823,0.574,-0.023
2808.0,-2.156,-4.365,6.587,1.823,0.574,-0.023
2812.0,-2.337,-3.815,6.461,1.796,0.621,-0.059
2816.0,-2.337,-3.815,6.461,1.796,0.621,-0.059
2820.0,-2.708,-3.408,6.54,1.752,0.669,-0.075
2824.0,-2.708,-3.408,6.54,1.752,0.669,-0.075
2828.0,-2.708,-3.408,6.54,1.752,0.669,-0.075
2832.0,-3.134,-3.138,6.622,1.7,0.695,-0.081
2836.0,-3.134,-3.138,6.622,1.7,0.695,-0.081
2840.0,-3.495,-2.965,6.604,1.649,0.701,-0.083
2844.0,-3.495,-2.965,6.604,1.649,0.701,-0.083
2847.0,-3.495,-2.965,6.604,1.649,0.701,-0.083
2851.0,-3.685,-2.902,6.564,1.611,0.703,-0.077
2855.0,-3.685,-2.902,6.564,1.611,0.703,-0.077
2859.0,-3.717,-2.882,6.564,1.611,0.706,-0.06
2863.0,-3.717,-2.882,6.564,1.594,0.706,-0.06
2867.0,-3.717,-2.882,6.564,1.594,0.706,-0.06
2871.0,-3.747,-2.795,6.644,1.604,0.713,-0.031
2875.0,-3.747,-2.795,6.644,1.604,0.713,-0.031
2879.0,-3.915,-2.743,6.787,1.604,0.713,0.01
2883.0,-3.915,-2.743,6.787,1.637,0.715,0.01
2886.0,-3.915,-2.743,6.787,1.637,0.715,0.01
2890.0,-4.198,-2.675,6.846,1.676,0.707,0.056
2894.0,-4.198,-2.675,6.846,1.676,0.707,0.056
2898.0,-4.198,-2.675,6.817,1.676,0.707,0.056
2902.0,-4.554,-2.582,6.817,1.707,0.696,0.101
2905.0,-4.554,-2.582,6.817,1.707,0.696,0.101
2909.0,-4.925,-2.521,6.834,1.725,0.69,0.147
2913.0,-4.925,-2.521,6.834,1.725,0.69,0.147
2917.0,-4.925,-2.521,6.834,1.725,0.69,0.147
2921.0,-5.264,-2.547,6.927,1.738,0.682,0.183
2925.0,-5.264,-2.547,6.927,1.738,0.682,0.183
2928.0,-5.484,-2.455,6.924,1.755,0.664,0.202
2932.0,-5.484,-2.455,6.924,1.755,0.664,0.202
2936.0,-5.484,-2.455,6.924,1.755,0.664,0.202
2940.0,-5.52,-2.224,6.809,1.772,0.649,0.207
2944.0,-5.52,-2.224,6.809,1.772,0.649,0.207
2947.0,-5.52,-1.935,6.765,1.772,0.649,0.207
2951.0,-5.423,-1.935,6.765,1.778,0.647,0.203
2955.0,-5.423,-1.935,6.765,1.778,0.647,0.203
2959.0,-5.22,-1.575,6.872,1.766,0.657,0.183
2963.0,-5.22,-1.575,6.872,1.766,0.657,0.183
2967.0,-5.22,-1.575,6.872,1.766,0.657,0.183
2970.0,-5.112,-1.335,7.112,1.733,0.667,0.146
2974.0,-5.112,-1.335,7.112,1.733,0.667,0.146
2978.0,-5.125,-1.109,7.263,1.678,0.661,0.09
2982.0,-5.125,-1.109,7.263,1.678,0.661,0.09
2986.0,-5.125,-1.109,7.263,1.678,0.661,0.09
2990.0,-5.194,-0.905,7.328,1.6,0.648,0.028
2993.0,-5.194,-0.905,7.328,1.6,0.648,0.028
2997.0,-5.27,-0.788,7.36,1.6,0.648,-0.028
