deltaTime,Acc_X,Acc_Y,Acc_Z,Gyro_X,Gyro_Y,Gyro_Z
0.0,-9.87,-4.183,1.297,0.656,-0.113,0.634
3.0,-9.87,-4.183,1.297,0.656,-0.113,0.634
6.0,-9.87,-4.183,1.297,0.656,-0.113,0.634
9.0,-10.905,-3.751,1.05,0.656,-0.113,0.553
12.0,-10.905,-3.751,1.05,0.722,-0.11,0.553
15.0,-10.905,-3.751,1.05,0.722,-0.11,0.553
18.0,-10.905,-3.751,1.05,0.722,-0.11,0.553
21.0,-12.254,-3.351,0.939,0.717,-0.096,0.481
24.0,-12.254,-3.351,0.939,0.717,-0.096,0.481
27.0,-12.254,-3.351,0.939,0.717,-0.096,0.481
30.0,-12.97,-2.864,0.937,0.661,-0.105,0.428
33.0,-12.97,-2.864,0.937,0.661,-0.105,0.428
37.0,-12.97,-2.864,0.937,0.661,-0.105,0.428
41.0,-13.27,-2.469,1.134,0.557,-0.118,0.387
45.0,-13.27,-2.469,1.134,0.557,-0.118,0.387
49.0,-12.921,-2.526,1.289,0.557,-0.118,0.387
52.0,-12.921,-2.526,1.289,0.436,-0.152,0.36
56.0,-12.921,-2.526,1.289,0.436,-0.152,0.36
60.0,-12.284,-2.332,1.291,0.339,-0.181,0.342
64.0,-12.284,-2.332,1.291,0.339,-0.181,0.342
68.0,-12.284,-2.332,1.291,0.339,-0.181,0.342
71.0,-11.857,-2.333,1.37,0.24,-0.189,0.302
75.0,-11.857,-2.333,1.37,0.24,-0.189,0.302
79.0,-11.093,-2.49,1.353,0.188,-0.201,0.256
83.0,-11.093,-2.49,1.353,0.188,-0.201,0.256
87.0,-11.093,-2.49,1.353,0.188,-0.201,0.256
91.0,-10.31,-2.473,1.283,0.195,-0.201,0.188
94.0,-10.31,-2.473,1.283,0.195,-0.201,0.188
98.0,-9.809,-2.375,1.293,0.195,-0.201,0.092
102.0,-9.809,-2.375,1.293,0.231,-0.186,0.092
106.0,-9.809,-2.375,1.293,0.231,-0.186,0.092
110.0,-9.378,-2.274,1.293,0.284,-0.164,-0.01
114.0,-9.378,-2.274,1.293,0.284,-0.164,-0.01
117.0,-9.378,-2.274,1.347,0.284,-0.164,-0.01
121.0,-8.942,-1.99,1.347,0.348,-0.139,-0.117
125.0,-8.942,-1.99,1.347,0.348,-0.139,-0.117
129.0,-8.585,-1.449,1.378,0.389,-0.128,-0.232
133.0,-8.585,-1.449,1.378,0.389,-0.128,-0.232
137.0,-8.585,-1.449,1.378,0.389,-0.128,-0.232
141.0,-8.207,-1.157,1.391,0.381,-0.126,-0.342
145.0,-8.207,-1.157,1.391,0.381,-0.126,-0.342
149.0,-7.533,-0.98,1.502,0.363,-0.126,-0.42
153.0,-7.533,-0.98,1.502,0.363,-0.126,-0.42
156.0,-7.533,-0.98,1.502,0.363,-0.126,-0.42
160.0,-7.055,-0.623,1.609,0.349,-0.127,-0.476
164.0,-7.055,-0.623,1.609,0.349,-0.127,-0.476
168.0,-6.705,-0.453,1.676,0.312,-0.137,-0.514
172.0,-6.705,-0.453,1.676,0.312,-0.137,-0.514
176.0,-6.705,-0.453,1.676,0.312,-0.137,-0.514
180.0,-6.198,-0.311,1.723,0.269,-0.136,-0.534
184.0,-6.198,-0.311,1.723,0.269,-0.136,-0.534
188.0,-5.959,-0.179,1.877,0.219,-0.121,-0.548
192.0,-5.959,-0.179,1.877,0.219,-0.121,-0.548
196.0,-5.959,-0.179,1.877,0.219,-0.121,-0.548
199.0,-5.743,-0.19,2.026,0.173,-0.117,-0.534
203.0,-5.743,-0.19,2.026,0.173,-0.117,-0.534
207.0,-5.556,-0.181,2.031,0.14,-0.123,-0.495
211.0,-5.556,-0.181,2.031,0.14,-0.123,-0.495
215.0,-5.556,-0.181,2.031,0.14,-0.123,-0.495
219.0,-5.423,-0.179,2.078,0.105,-0.13,-0.445
223.0,-5.423,-0.179,2.078,0.105,-0.13,-0.445
227.0,-5.124,-0.421,2.115,0.105,-0.149,-0.384
231.0,-5.124,-0.421,2.115,0.076,-0.149,-0.384
235.0,-5.124,-0.421,2.115,0.076,-0.149,-0.384
239.0,-4.717,-0.801,2.034,0.089,-0.186,-0.311
242.0,-4.717,-0.801,2.034,0.089,-0.186,-0.311
246.0,-4.508,-0.966,1.982,0.089,-0.186,-0.252
250.0,-4.508,-0.966,1.982,0.151,-0.218,-0.252
254.0,-4.508,-0.966,1.982,0.151,-0.218,-0.252
258.0,-4.275,-0.988,1.842,0.232,-0.246,-0.22
262.0,-4.275,-0.988,1.842,0.232,-0.246,-0.22
266.0,-3.967,-0.83,1.829,0.232,-0.246,-0.22
270.0,-3.967,-0.83,1.829,0.306,-0.258,-0.219
274.0,-3.967,-0.83,1.829,0.306,-0.258,-0.219
278.0,-3.782,-0.608,1.948,0.358,-0.254,-0.242
281.0,-3.782,-0.608,1.948,0.358,-0.254,-0.242
285.0,-3.782,-0.317,2.055,0.358,-0.254,-0.242
289.0,-3.69,-0.317,2.055,0.396,-0.248,-0.276
293.0,-3.69,-0.317,2.055,0.396,-0.248,-0.276
297.0,-3.786,0.054,2.165,0.424,-0.271,-0.317
301.0,-3.786,0.054,2.165,0.424,-0.271,-0.317
305.0,-3.786,0.054,2.165,0.424,-0.271,-0.317
309.0,-4.115,0.446,2.398,0.435,-0.318,-0.355
312.0,-4.115,0.446,2.398,0.435,-0.318,-0.355
316.0,-4.287,0.656,2.615,0.429,-0.366,-0.382
320.0,-4.287,0.656,2.615,0.429,-0.366,-0.382
324.0,-4.287,0.656,2.615,0.429,-0.366,-0.382
328.0,-4.365,0.733,2.78,0.428,-0.414,-0.389
331.0,-4.365,0.733,2.78,0.428,-0.414,-0.389
335.0,-4.52,1.08,2.812,0.428,-0.477,-0.385
339.0,-4.52,1.08,2.812,0.432,-0.477,-0.385
343.0,-4.52,1.08,2.812,0.432,-0.477,-0.385
347.0,-4.465,1.36,2.964,0.398,-0.537,-0.392
351.0,-4.465,1.36,2.964,0.398,-0.537,-0.392
354.0,-4.465,1.36,3.156,0.398,-0.537,-0.392
358.0,-5.048,1.52,3.156,0.342,-0.586,-0.397
362.0,-5.048,1.52,3.156,0.342,-0.586,-0.397
366.0,-5.646,1.809,3.222,0.264,-0.666,-0.394
370.0,-5.646,1.809,3.222,0.264,-0.666,-0.394
373.0,-5.646,1.809,3.222,0.264,-0.666,-0.394
377.0,-6.108,2.256,3.132,0.127,-0.766,-0.406
381.0,-6.108,2.256,3.132,0.127,-0.766,-0.406
385.0,-6.675,2.652,2.998,-0.099,-0.877,-0.445
389.0,-6.675,2.652,2.998,-0.099,-0.877,-0.445
393.0,-6.675,2.652,2.998,-0.099,-0.877,-0.445
397.0,-7.323,2.855,2.911,-0.385,-0.992,-0.483
401.0,-7.323,2.855,2.911,-0.385,-0.992,-0.483
404.0,-7.989,3.015,2.926,-0.385,-1.097,-0.497
408.0,-7.989,3.015,2.926,-0.67,-1.097,-0.497
412.0,-7.989,3.015,2.926,-0.67,-1.097,-0.497
416.0,-8.338,2.82,3.04,-0.912,-1.145,-0.458
420.0,-8.338,2.82,3.04,-0.912,-1.145,-0.458
424.0,-8.536,2.268,3.466,-0.912,-1.145,-0.35
428.0,-8.536,2.268,3.466,-1.036,-1.11,-0.35
432.0,-8.536,2.268,3.466,-1.036,-1.11,-0.35
436.0,-9.254,2.229,3.735,-1.024,-1.014,-0.223
440.0,-9.254,2.229,3.735,-1.024,-1.014,-0.223
444.0,-10.334,2.224,4.022,-1.024,-1.014,-0.223
448.0,-10.334,2.224,4.022,-0.967,-0.916,-0.144
452.0,-10.334,2.224,4.022,-0.967,-0.916,-0.144
456.0,-11.642,2.361,4.436,-0.898,-0.827,-0.104
460.0,-11.642,2.361,4.436,-0.898,-0.827,-0.104
463.0,-12.98,2.562,4.951,-0.898,-0.827,-0.081
467.0,-12.98,2.562,4.951,-0.836,-0.765,-0.081
471.0,-12.98,2.562,4.951,-0.836,-0.765,-0.081
475.0,-14.094,2.644,5.358,-0.795,-0.737,-0.056
479.0,-14.094,2.644,5.358,-0.795,-0.737,-0.056
483.0,-14.599,2.701,5.554,-0.795,-0.739,-0.024
487.0,-14.599,2.701,5.554,-0.783,-0.739,-0.024
491.0,-14.599,2.701,5.554,-0.783,-0.739,-0.024
495.0,-14.548,2.674,5.513,-0.799,-0.744,0.002
499.0,-14.548,2.674,5.513,-0.799,-0.744,0.002
503.0,-14.304,2.635,5.182,-0.838,-0.717,0.011
507.0,-14.304,2.635,5.182,-0.838,-0.717,0.011
511.0,-14.304,2.635,5.182,-0.838,-0.717,0.011
515.0,-14.332,2.628,4.936,-0.901,-0.634,0.009
519.0,-14.332,2.628,4.936,-0.901,-0.634,0.009
523.0,-14.781,2.584,4.788,-0.901,-0.634,0.015
527.0,-14.781,2.584,4.788,-0.983,-0.511,0.015
531.0,-14.781,2.584,4.788,-0.983,-0.511,0.015
535.0,-15.276,2.436,4.56,-1.081,-0.375,0.046
538.0,-15.276,2.436,4.56,-1.081,-0.375,0.046
542.0,-15.511,2.231,4.35,-1.081,-0.375,0.046
546.0,-15.511,2.231,4.35,-1.201,-0.239,0.101
550.0,-15.511,2.231,4.35,-1.201,-0.239,0.101
554.0,-15.383,1.966,4.225,-1.344,-0.099,0.165
558.0,-15.383,1.966,4.225,-1.344,-0.099,0.165
562.0,-14.992,1.609,4.064,-1.344,-0.099,0.165
566.0,-14.992,1.609,4.064,-1.504,0.04,0.227
570.0,-14.992,1.609,4.064,-1.504,0.04,0.227
573.0,-14.504,1.189,3.848,-1.662,0.166,0.281
577.0,-14.504,1.189,3.848,-1.662,0.166,0.281
581.0,-14.504,1.189,3.848,-1.662,0.166,0.281
585.0,-14.246,0.708,3.387,-1.811,0.274,0.332
589.0,-14.246,0.708,3.387,-1.811,0.274,0.332
592.0,-14.096,0.22,2.67,-1.954,0.378,0.378
596.0,-14.096,0.22,2.67,-1.954,0.378,0.378
600.0,-14.096,0.22,2.67,-1.954,0.378,0.378
604.0,-13.733,-0.191,1.925,-2.104,0.489,0.426
608.0,-13.733,-0.191,1.925,-2.104,0.489,0.426
612.0,-13.066,-0.514,1.369,-2.104,0.605,0.479
616.0,-13.066,-0.514,1.369,-2.261,0.605,0.479
620.0,-13.066,-0.514,1.369,-2.261,0.605,0.479
623.0,-12.339,-0.756,1.161,-2.41,0.729,0.535
627.0,-12.339,-0.756,1.161,-2.41,0.729,0.535
631.0,-11.532,-0.991,1.397,-2.41,0.729,0.593
635.0,-11.532,-0.991,1.397,-2.528,0.85,0.593
639.0,-11.532,-0.991,1.397,-2.528,0.85,0.593
643.0,-10.695,-1.347,1.839,-2.589,0.924,0.65
647.0,-10.695,-1.347,1.839,-2.589,0.924,0.65
651.0,-10.472,-1.838,2.009,-2.589,0.924,0.65
655.0,-10.472,-1.838,2.009,-2.583,0.93,0.7
659.0,-10.472,-1.838,2.009,-2.583,0.93,0.7
663.0,-11.136,-2.295,1.659,-2.52,0.878,0.75
666.0,-11.136,-2.295,1.659,-2.52,0.878,0.75
670.0,-11.136,-2.705,1.21,-2.52,0.878,0.75
674.0,-12.276,-2.705,1.21,-2.425,0.786,0.825
678.0,-12.276,-2.705,1.21,-2.425,0.786,0.825
682.0,-13.263,-3.044,0.928,-2.323,0.663,0.941
686.0,-13.263,-3.044,0.928,-2.323,0.663,0.941
690.0,-13.263,-3.044,0.868,-2.323,0.663,0.941
694.0,-13.685,-3.366,0.868,-2.219,0.521,1.102
698.0,-13.685,-3.366,0.868,-2.219,0.521,1.102
702.0,-13.697,-3.785,1.073,-2.102,0.377,1.285
706.0,-13.697,-3.785,1.073,-2.102,0.377,1.285
709.0,-13.697,-3.785,1.073,-2.102,0.377,1.285
713.0,-13.339,-4.235,1.323,-1.959,0.232,1.446
717.0,-13.339,-4.235,1.323,-1.959,0.232,1.446
721.0,-12.543,-4.503,1.324,-1.786,0.073,1.541
725.0,-12.543,-4.503,1.324,-1.786,0.073,1.541
729.0,-12.543,-4.503,1.324,-1.786,0.073,1.541
733.0,-11.794,-4.467,1.092,-1.606,-0.09,1.559
737.0,-11.794,-4.467,1.092,-1.606,-0.09,1.559
741.0,-11.407,-4.301,0.887,-1.442,-0.22,1.519
745.0,-11.407,-4.301,0.887,-1.442,-0.22,1.519
749.0,-11.407,-4.301,0.887,-1.442,-0.22,1.519
753.0,-10.991,-4.077,0.734,-1.301,-0.304,1.455
757.0,-10.991,-4.077,0.734,-1.301,-0.304,1.455
761.0,-10.359,-3.878,0.782,-1.19,-0.344,1.396
765.0,-10.359,-3.878,0.782,-1.19,-0.344,1.396
769.0,-10.359,-3.878,0.981,-1.19,-0.344,1.396
773.0,-9.907,-3.765,0.981,-1.117,-0.335,1.348
777.0,-9.907,-3.765,0.981,-1.117,-0.335,1.348
781.0,-9.919,-3.692,1.195,-1.071,-0.28,1.31
785.0,-9.919,-3.692,1.195,-1.071,-0.28,1.31
788.0,-9.919,-3.692,1.195,-1.071,-0.28,1.31
792.0,-10.097,-3.696,1.318,-1.044,-0.203,1.285
796.0,-10.097,-3.696,1.318,-1.044,-0.203,1.285
800.0,-10.152,-3.72,1.446,-1.033,-0.133,1.264
804.0,-10.152,-3.72,1.446,-1.033,-0.133,1.264
808.0,-10.152,-3.72,1.604,-1.033,-0.133,1.264
812.0,-9.937,-3.744,1.604,-1.036,-0.074,1.235
816.0,-9.937,-3.744,1.604,-1.036,-0.074,1.235
820.0,-9.525,-3.729,1.758,-1.042,-0.026,1.185
824.0,-9.525,-3.729,1.758,-1.042,-0.026,1.185
828.0,-9.525,-3.729,1.758,-1.042,-0.026,1.185
832.0,-9.142,-3.668,1.861,-1.046,0.021,1.115
836.0,-9.142,-3.668,1.861,-1.046,0.021,1.115
839.0,-8.858,-3.581,1.854,-1.049,0.072,1.033
843.0,-8.858,-3.581,1.854,-1.049,0.072,1.033
847.0,-8.858,-3.581,1.854,-1.049,0.072,1.033
851.0,-8.643,-3.507,1.778,-1.05,0.127,0.948
855.0,-8.643,-3.507,1.778,-1.05,0.127,0.948
859.0,-8.417,-3.449,1.705,-1.05,0.184,0.857
862.0,-8.417,-3.449,1.705,-1.043,0.184,0.857
866.0,-8.417,-3.449,1.705,-1.043,0.184,0.857
870.0,-8.163,-3.423,1.652,-1.023,0.238,0.76
874.0,-8.163,-3.423,1.652,-1.023,0.238,0.76
878.0,-8.163,-3.395,1.607,-1.023,0.238,0.76
881.0,-7.863,-3.395,1.607,-0.982,0.295,0.654
885.0,-7.863,-3.395,1.607,-0.982,0.295,0.654
889.0,-7.557,-3.363,1.617,-0.914,0.352,0.54
893.0,-7.557,-3.363,1.617,-0.914,0.352,0.54
897.0,-7.557,-3.363,1.617,-0.914,0.352,0.54
901.0,-7.254,-3.328,1.665,-0.816,0.403,0.418
904.0,-7.254,-3.328,1.665,-0.816,0.403,0.418
908.0,-6.981,-3.278,1.847,-0.688,0.437,0.293
912.0,-6.981,-3.278,1.847,-0.688,0.437,0.293
916.0,-6.981,-3.278,1.847,-0.688,0.437,0.293
920.0,-6.73,-3.149,2.104,-0.53,0.442,0.17
923.0,-6.73,-3.149,2.104,-0.53,0.442,0.17
927.0,-6.431,-3.023,2.288,-0.53,0.442,0.17
931.0,-6.431,-3.023,2.288,-0.347,0.42,0.053
935.0,-6.431,-3.023,2.288,-0.347,0.42,0.053
939.0,-6.101,-2.891,2.346,-0.151,0.387,-0.055
943.0,-6.101,-2.891,2.346,-0.151,0.387,-0.055
947.0,-6.101,-2.891,2.392,-0.151,0.387,-0.055
950.0,-5.826,-2.724,2.392,0.047,0.356,-0.149
954.0,-5.826,-2.724,2.392,0.047,0.356,-0.149
958.0,-5.568,-2.575,2.341,0.235,0.327,-0.226
962.0,-5.568,-2.575,2.341,0.235,0.327,-0.226
966.0,-5.568,-2.575,2.341,0.235,0.327,-0.226
970.0,-5.277,-2.446,2.265,0.41,0.299,-0.291
973.0,-5.277,-2.446,2.265,0.41,0.299,-0.291
977.0,-4.975,-2.291,2.227,0.568,0.277,-0.352
981.0,-4.975,-2.291,2.227,0.568,0.277,-0.352
985.0,-4.975,-2.291,2.227,0.568,0.277,-0.352
989.0,-4.713,-2.14,2.24,0.71,0.255,-0.41
992.0,-4.713,-2.14,2.24,0.71,0.255,-0.41
996.0,-4.451,-1.991,2.215,0.71,0.255,-0.41
1000.0,-4.451,-1.991,2.215,0.835,0.231,-0.465
1004.0,-4.451,-1.991,2.215,0.835,0.231,-0.465
1008.0,-4.186,-1.836,2.218,0.941,0.206,-0.515
1012.0,-4.186,-1.836,2.218,0.941,0.206,-0.515
1016.0,-4.186,-1.836,2.254,0.941,0.206,-0.515
1020.0,-3.945,-1.671,2.254,1.029,0.176,-0.562
1024.0,-3.945,-1.671,2.254,1.029,0.176,-0.562
1027.0,-3.692,-1.513,2.243,1.099,0.137,-0.606
1031.0,-3.692,-1.513,2.243,1.099,0.137,-0.606
1035.0,-3.692,-1.513,2.243,1.099,0.137,-0.606
1039.0,-3.524,-1.351,2.179,1.153,0.093,-0.643
1043.0,-3.524,-1.351,2.179,1.153,0.093,-0.643
1047.0,-3.492,-1.201,2.097,1.185,0.049,-0.669
1051.0,-3.492,-1.201,2.097,1.185,0.049,-0.669
1055.0,-3.492,-1.201,2.097,1.185,0.049,-0.669
1059.0,-3.613,-1.058,2.044,1.193,0.008,-0.676
1063.0,-3.613,-1.058,2.044,1.193,0.008,-0.676
1067.0,-3.804,-0.994,1.922,1.177,-0.033,-0.668
1071.0,-3.804,-0.994,1.922,1.177,-0.033,-0.668
1075.0,-3.804,-0.994,1.922,1.177,-0.033,-0.668
1079.0,-4.086,-0.909,1.718,1.137,-0.079,-0.653
1083.0,-4.086,-0.909,1.718,1.137,-0.079,-0.653
1086.0,-4.439,-0.847,1.524,1.068,-0.129,-0.636
1090.0,-4.439,-0.847,1.524,1.068,-0.129,-0.636
1094.0,-4.439,-0.847,1.524,1.068,-0.129,-0.636
1098.0,-4.855,-0.918,1.35,0.966,-0.183,-0.622
1102.0,-4.855,-0.918,1.35,0.966,-0.183,-0.622
1106.0,-5.289,-1.116,1.254,0.839,-0.231,-0.628
1110.0,-5.289,-1.116,1.254,0.839,-0.231,-0.628
1114.0,-5.289,-1.116,1.376,0.839,-0.231,-0.628
1118.0,-5.84,-1.412,1.376,0.692,-0.267,-0.661
1122.0,-5.84,-1.412,1.376,0.692,-0.267,-0.661
1126.0,-6.852,-1.737,1.554,0.53,-0.288,-0.726
1130.0,-6.852,-1.737,1.554,0.53,-0.288,-0.726
1134.0,-8.544,-1.981,1.563,0.53,-0.288,-0.726
1138.0,-8.544,-1.981,1.563,0.365,-0.286,-0.809
1142.0,-8.544,-1.981,1.563,0.365,-0.286,-0.809
1146.0,-11.093,-2.223,1.353,0.191,-0.264,-0.877
1150.0,-11.093,-2.223,1.353,0.191,-0.264,-0.877
1155.0,-14.321,-2.537,1.21,0.191,-0.225,-0.887
1159.0,-14.321,-2.537,1.21,0.009,-0.225,-0.887
1163.0,-14.321,-2.537,1.21,0.009,-0.225,-0.887
1167.0,-17.569,-2.874,1.353,-0.174,-0.192,-0.794
1171.0,-17.569,-2.874,1.353,-0.174,-0.192,-0.794
1175.0,-19.45,-3.279,1.825,-0.349,-0.196,-0.585
1179.0,-19.45,-3.279,1.825,-0.349,-0.196,-0.585
1183.0,-19.45,-3.279,2.38,-0.349,-0.196,-0.585
1188.0,-19.6,-3.845,2.38,-0.499,-0.238,-0.297
1192.0,-19.6,-3.845,2.38,-0.499,-0.238,-0.297
1196.0,-19.6,-4.475,2.675,-0.611,-0.281,0.005
1200.0,-19.6,-4.475,2.675,-0.611,-0.281,0.005
1204.0,-19.6,-4.943,2.568,-0.683,-0.315,0.273
1208.0,-19.6,-4.943,2.568,-0.683,-0.315,0.273
1212.0,-19.6,-4.943,2.568,-0.683,-0.315,0.273
1216.0,-19.6,-5.215,2.255,-0.733,-0.361,0.497
1220.0,-19.6,-5.215,2.255,-0.733,-0.361,0.497
1225.0,-19.6,-5.294,1.843,-0.775,-0.419,0.675
1229.0,-19.6,-5.294,1.843,-0.775,-0.419,0.675
1233.0,-19.6,-5.294,1.843,-0.775,-0.419,0.675
1237.0,-19.522,-5.119,1.51,-0.811,-0.464,0.805
1241.0,-19.522,-5.119,1.51,-0.811,-0.464,0.805
1245.0,-18.438,-4.809,1.3,-0.837,-0.486,0.898
1249.0,-18.438,-4.809,1.3,-0.837,-0.486,0.898
1253.0,-17.126,-4.565,1.22,-0.837,-0.486,0.953
1257.0,-17.126,-4.565,1.22,-0.852,-0.478,0.953
1261.0,-17.126,-4.565,1.22,-0.852,-0.478,0.953
1265.0,-15.969,-4.457,1.286,-0.854,-0.455,0.961
1269.0,-15.969,-4.457,1.286,-0.854,-0.455,0.961
1273.0,-14.837,-4.472,1.357,-0.831,-0.442,0.908
1278.0,-14.837,-4.472,1.357,-0.831,-0.442,0.908
1282.0,-14.837,-4.472,1.357,-0.831,-0.442,0.908
1286.0,-14.015,-4.442,1.396,-0.785,-0.441,0.782
1290.0,-14.015,-4.442,1.396,-0.785,-0.441,0.782
1294.0,-13.634,-4.211,1.301,-0.712,-0.427,0.595
1298.0,-13.634,-4.211,1.301,-0.712,-0.427,0.595
1302.0,-13.634,-3.84,1.236,-0.712,-0.427,0.595
1306.0,-13.566,-3.84,1.236,-0.617,-0.385,0.386
1310.0,-13.566,-3.84,1.236,-0.617,-0.385,0.386
1314.0,-13.563,-3.487,1.268,-0.508,-0.325,0.203
1318.0,-13.563,-3.487,1.268,-0.508,-0.325,0.203
1322.0,-13.283,-3.207,1.374,-0.508,-0.266,0.079
1327.0,-13.283,-3.207,1.374,-0.395,-0.266,0.079
1331.0,-13.283,-3.207,1.374,-0.395,-0.266,0.079
1335.0,-12.362,-3.047,1.573,-0.282,-0.22,0.008
1339.0,-12.362,-3.047,1.573,-0.282,-0.22,0.008
1343.0,-11.114,-2.893,1.777,-0.167,-0.194,-0.041
1347.0,-11.114,-2.893,1.777,-0.167,-0.194,-0.041
1351.0,-11.114,-2.893,1.873,-0.167,-0.194,-0.041
1355.0,-10.093,-2.643,1.873,-0.036,-0.184,-0.104
1359.0,-10.093,-2.643,1.873,-0.036,-0.184,-0.104
1364.0,-9.577,-2.159,1.561,0.107,-0.161,-0.175
1368.0,-9.577,-2.159,1.561,0.107,-0.161,-0.175
1372.0,-9.376,-1.699,0.975,0.107,-0.161,-0.212
1376.0,-9.376,-1.699,0.975,0.241,-0.095,-0.212
1380.0,-9.376,-1.699,0.975,0.241,-0.095,-0.212
1384.0,-9.342,-1.3,0.522,0.342,0.031,-0.194
1388.0,-9.342,-1.3,0.522,0.342,0.031,-0.194
1391.0,-9.169,-1.119,0.288,0.342,0.204,-0.12
1395.0,-9.169,-1.119,0.288,0.407,0.204,-0.12
1399.0,-9.169,-1.119,0.288,0.407,0.204,-0.12
1403.0,-8.894,-1.106,0.351,0.443,0.392,-0.017
1407.0,-8.894,-1.106,0.351,0.443,0.392,-0.017
1411.0,-8.66,-1.183,0.523,0.443,0.392,-0.017
1415.0,-8.66,-1.183,0.523,0.465,0.568,0.075
1419.0,-8.66,-1.183,0.523,0.465,0.568,0.075
1423.0,-8.429,-1.193,0.685,0.488,0.704,0.122
1426.0,-8.429,-1.193,0.685,0.488,0.704,0.122
1430.0,-8.429,-1.193,0.766,0.488,0.704,0.122
1434.0,-8.163,-1.067,0.766,0.525,0.787,0.13
1438.0,-8.163,-1.067,0.766,0.525,0.787,0.13
1442.0,-7.803,-0.884,0.826,0.579,0.822,0.112
1445.0,-7.803,-0.884,0.826,0.579,0.822,0.112
1449.0,-7.803,-0.884,0.826,0.579,0.822,0.112
1453.0,-7.34,-0.537,0.802,0.65,0.814,0.083
1457.0,-7.34,-0.537,0.802,0.65,0.814,0.083
1461.0,-6.803,-0.204,0.655,0.731,0.775,0.062
1465.0,-6.803,-0.204,0.655,0.731,0.775,0.062
1468.0,-6.803,-0.204,0.655,0.731,0.775,0.062
1472.0,-6.2,0.121,0.358,0.807,0.729,0.048
1476.0,-6.2,0.121,0.358,0.807,0.729,0.048
1480.0,-6.2,0.121,0.159,0.807,0.729,0.048
1483.0,-5.679,0.432,0.159,0.868,0.685,0.039
1487.0,-5.679,0.432,0.159,0.868,0.685,0.039
1491.0,-5.317,0.681,0.06,0.913,0.637,0.042
1495.0,-5.317,0.681,0.06,0.913,0.637,0.042
1498.0,-5.317,0.681,0.06,0.913,0.637,0.042
1502.0,-5.177,0.772,-0.087,0.934,0.581,0.071
1506.0,-5.177,0.772,-0.087,0.934,0.581,0.071
1510.0,-5.141,0.723,-0.337,0.934,0.581,0.071
1513.0,-5.141,0.723,-0.337,0.924,0.528,0.118
1517.0,-5.141,0.723,-0.337,0.924,0.528,0.118
1521.0,-5.118,0.662,-0.493,0.886,0.484,0.168
1525.0,-5.118,0.662,-0.493,0.886,0.484,0.168
1529.0,-5.118,0.662,-0.493,0.886,0.484,0.168
1533.0,-5.096,0.53,-0.57,0.828,0.445,0.21
1536.0,-5.096,0.53,-0.57,0.828,0.445,0.21
1540.0,-5.128,0.473,-0.623,0.749,0.407,0.237
1544.0,-5.128,0.473,-0.623,0.749,0.407,0.237
1548.0,-5.128,0.473,-0.623,0.749,0.407,0.237
1552.0,-5.198,0.391,-0.738,0.64,0.372,0.262
1556.0,-5.198,0.391,-0.738,0.64,0.372,0.262
1559.0,-5.162,0.29,-0.77,0.64,0.349,0.286
1563.0,-5.162,0.29,-0.77,0.493,0.349,0.286
1567.0,-5.162,0.29,-0.77,0.493,0.349,0.286
1571.0,-4.997,0.301,-0.489,0.32,0.331,0.3
1575.0,-4.997,0.301,-0.489,0.32,0.331,0.3
1578.0,-4.997,0.347,-0.034,0.32,0.331,0.3
1582.0,-4.88,0.347,-0.034,0.138,0.296,0.312
1586.0,-4.88,0.347,-0.034,0.138,0.296,0.312
1590.0,-4.854,0.381,0.373,-0.047,0.24,0.337
1594.0,-4.854,0.381,0.373,-0.047,0.24,0.337
1598.0,-4.854,0.381,0.373,-0.047,0.24,0.337
1601.0,-4.916,0.36,0.584,-0.241,0.181,0.381
1605.0,-4.916,0.36,0.584,-0.241,0.181,0.381
1609.0,-4.92,0.299,0.753,-0.445,0.135,0.433
1613.0,-4.92,0.299,0.753,-0.445,0.135,0.433
1617.0,-4.92,0.299,0.753,-0.445,0.135,0.433
1620.0,-4.78,0.247,1.04,-0.652,0.094,0.482
1624.0,-4.78,0.247,1.04,-0.652,0.094,0.482
1628.0,-4.551,0.151,1.247,-0.652,0.094,0.482
1632.0,-4.551,0.151,1.247,-0.852,0.051,0.522
1636.0,-4.551,0.151,1.247,-0.852,0.051,0.522
1640.0,-4.29,-0.01,1.335,-1.037,0.019,0.547
1643.0,-4.29,-0.01,1.335,-1.037,0.019,0.547
1647.0,-4.29,-0.01,1.37,-1.037,0.019,0.547
1651.0,-4.019,-0.168,1.37,-1.207,0.007,0.551
1655.0,-4.019,-0.168,1.37,-1.207,0.007,0.551
1659.0,-3.705,-0.244,1.466,-1.359,0.011,0.534
1663.0,-3.705,-0.244,1.466,-1.359,0.011,0.534
1667.0,-3.705,-0.244,1.466,-1.359,0.011,0.534
1671.0,-3.594,-0.199,1.891,-1.489,0.023,0.494
1675.0,-3.594,-0.199,1.891,-1.489,0.023,0.494
1679.0,-3.072,-0.105,1.841,-1.637,0.01,0.429
1682.0,-3.072,-0.105,1.841,-1.637,0.01,0.429
1686.0,-3.072,-0.105,1.841,-1.637,0.01,0.429
1690.0,-2.66,-0.385,1.901,-1.75,0.028,0.342
1694.0,-2.66,-0.385,1.901,-1.75,0.028,0.342
1698.0,-2.47,-0.378,2.151,-1.799,0.055,0.235
1702.0,-2.47,-0.378,2.151,-1.799,0.055,0.235
1706.0,-2.47,-0.378,2.151,-1.799,0.055,0.235
1710.0,-2.331,-0.351,2.402,-1.82,0.074,0.109
1714.0,-2.331,-0.351,2.402,-1.82,0.074,0.109
1718.0,-2.316,-0.299,2.642,-1.812,0.101,-0.03
1722.0,-2.316,-0.299,2.642,-1.812,0.101,-0.03
1726.0,-2.316,-0.299,2.642,-1.812,0.101,-0.03
1730.0,-2.582,-0.285,3.014,-1.776,0.142,-0.164
1734.0,-2.582,-0.285,3.014,-1.776,0.142,-0.164
1738.0,-3.313,-0.271,3.383,-1.708,0.189,-0.271
1742.0,-3.313,-0.271,3.383,-1.708,0.189,-0.271
1746.0,-3.313,-0.271,3.383,-1.708,0.189,-0.271
1750.0,-4.521,-0.336,3.731,-1.617,0.235,-0.332
1754.0,-4.521,-0.336,3.731,-1.617,0.235,-0.332
1758.0,-5.837,-0.565,3.937,-1.506,0.277,-0.352
1762.0,-5.837,-0.565,3.937,-1.506,0.277,-0.352
1766.0,-5.837,-0.565,3.937,-1.506,0.277,-0.352
1770.0,-7.336,-0.897,4.39,-1.37,0.316,-0.353
1774.0,-7.336,-0.897,4.39,-1.37,0.316,-0.353
1778.0,-9.202,-1.328,4.832,-1.209,0.344,-0.347
1782.0,-9.202,-1.328,4.832,-1.209,0.344,-0.347
1786.0,-9.202,-1.328,5.295,-1.209,0.344,-0.347
1790.0,-11.075,-1.743,5.295,-1.015,0.369,-0.35
1794.0,-11.075,-1.743,5.295,-1.015,0.369,-0.35
1798.0,-12.714,-1.973,5.96,-0.782,0.382,-0.36
1802.0,-12.714,-1.973,5.96,-0.782,0.382,-0.36
1806.0,-13.975,-2.124,6.383,-0.782,0.382,-0.359
1810.0,-13.975,-2.124,6.383,-0.522,0.355,-0.359
1814.0,-13.975,-2.124,6.383,-0.522,0.355,-0.359
1818.0,-14.395,-1.985,6.439,-0.241,0.325,-0.338
1822.0,-14.395,-1.985,6.439,-0.241,0.325,-0.338
1826.0,-14.547,-1.499,6.548,0.038,0.338,-0.299
1830.0,-14.547,-1.499,6.548,0.038,0.338,-0.299
1834.0,-14.547,-1.499,6.548,0.038,0.338,-0.299
1838.0,-15.178,-1.052,6.579,0.281,0.391,-0.23
1842.0,-15.178,-1.052,6.579,0.281,0.391,-0.23
1846.0,-16.357,-0.733,6.436,0.465,0.478,-0.126
1850.0,-16.357,-0.733,6.436,0.465,0.478,-0.126
1854.0,-16.357,-0.733,6.436,0.465,0.478,-0.126
1858.0,-16.33,-0.402,5.929,0.581,0.582,0.006
1862.0,-16.33,-0.402,5.929,0.581,0.582,0.006
1866.0,-17.649,-0.328,5.899,0.585,0.729,0.129
1870.0,-17.649,-0.328,5.899,0.585,0.729,0.129
1874.0,-17.649,-0.328,5.899,0.585,0.729,0.129
1878.0,-19.437,-0.538,6.476,0.517,0.821,0.219
1882.0,-19.437,-0.538,6.476,0.517,0.821,0.219
1886.0,-19.6,-0.812,6.101,0.496,0.819,0.355
1889.0,-19.6,-0.812,6.101,0.496,0.819,0.355
1893.0,-19.6,-0.812,6.101,0.496,0.819,0.355
1897.0,-19.252,-0.494,5.509,0.495,0.82,0.433
1901.0,-19.252,-0.494,5.509,0.495,0.82,0.433
1905.0,-17.34,-0.549,5.281,0.473,0.821,0.447
1909.0,-17.34,-0.549,5.281,0.473,0.821,0.447
1913.0,-17.34,-0.549,5.281,0.473,0.821,0.447
1917.0,-15.536,-0.659,5.258,0.476,0.805,0.365
1921.0,-15.536,-0.659,5.258,0.476,0.805,0.365
1925.0,-14.393,-0.741,4.78,0.476,0.761,0.194
1929.0,-14.393,-0.741,4.78,0.541,0.761,0.194
1932.0,-14.393,-0.741,4.78,0.541,0.761,0.194
1936.0,-14.263,-0.802,3.763,0.65,0.712,-0.017
1940.0,-14.263,-0.802,3.763,0.65,0.712,-0.017
1944.0,-14.579,-0.723,2.948,0.65,0.689,-0.198
1948.0,-14.579,-0.723,2.948,0.772,0.689,-0.198
1952.0,-14.579,-0.723,2.948,0.772,0.689,-0.198
1956.0,-14.781,-0.738,2.614,0.883,0.663,-0.295
1960.0,-14.781,-0.738,2.614,0.883,0.663,-0.295
1964.0,-14.402,-0.978,2.59,0.994,0.62,-0.307
1968.0,-14.402,-0.978,2.59,0.994,0.62,-0.307
1972.0,-14.402,-0.978,2.59,0.994,0.62,-0.307
1976.0,-13.456,-1.281,2.657,1.119,0.558,-0.265
1980.0,-13.456,-1.281,2.657,1.119,0.558,-0.265
1984.0,-12.751,-1.658,2.277,1.252,0.474,-0.205
1988.0,-12.751,-1.658,2.277,1.252,0.474,-0.205
1992.0,-12.751,-1.658,2.277,1.252,0.474,-0.205
1996.0,-12.597,-1.892,1.69,1.377,0.389,-0.147
2000.0,-12.597,-1.892,1.69,1.377,0.389,-0.147
2004.0,-12.787,-2.078,1.327,1.477,0.304,-0.091
2008.0,-12.787,-2.078,1.327,1.477,0.304,-0.091
2012.0,-12.787,-2.078,1.327,1.477,0.304,-0.091
2016.0,-12.823,-2.139,1.245,1.553,0.196,-0.018
2020.0,-12.823,-2.139,1.245,1.553,0.196,-0.018
2024.0,-12.957,-2.204,1.397,1.606,0.056,0.085
2028.0,-12.957,-2.204,1.397,1.606,0.056,0.085
2032.0,-12.957,-2.204,1.397,1.606,0.056,0.085
2036.0,-13.341,-2.293,1.497,1.651,-0.121,0.208
2040.0,-13.341,-2.293,1.497,1.651,-0.121,0.208
2044.0,-13.75,-2.315,1.389,1.69,-0.336,0.338
2048.0,-13.75,-2.315,1.389,1.69,-0.336,0.338
2052.0,-13.75,-2.315,1.389,1.69,-0.336,0.338
2056.0,-14.124,-2.295,0.988,1.711,-0.585,0.467
2060.0,-14.124,-2.295,0.988,1.711,-0.585,0.467
2064.0,-14.294,-2.096,0.371,1.702,-0.837,0.587
2068.0,-14.294,-2.096,0.371,1.702,-0.837,0.587
2072.0,-14.294,-2.096,-0.285,1.702,-0.837,0.587
2076.0,-14.206,-1.835,-0.285,1.644,-1.058,0.695
2080.0,-14.206,-1.835,-0.285,1.644,-1.058,0.695
2084.0,-13.63,-1.503,-0.831,1.534,-1.23,0.775
2088.0,-13.63,-1.503,-0.831,1.534,-1.23,0.775
2092.0,-12.878,-1.208,-1.21,1.534,-1.23,0.818
2096.0,-12.878,-1.208,-1.21,1.371,-1.344,0.818
2100.0,-12.878,-1.208,-1.21,1.371,-1.344,0.818
2104.0,-12.29,-0.94,-1.355,1.161,-1.399,0.817
2109.0,-12.29,-0.94,-1.355,1.161,-1.399,0.817
2113.0,-11.85,-0.75,-1.328,0.915,-1.409,0.771
2117.0,-11.85,-0.75,-1.328,0.915,-1.409,0.771
2121.0,-11.85,-0.75,-1.328,0.915,-1.409,0.771
2125.0,-11.452,-0.587,-1.204,0.647,-1.393,0.685
2129.0,-11.452,-0.587,-1.204,0.647,-1.393,0.685
2133.0,-11.008,-0.413,-0.959,0.364,-1.365,0.571
2137.0,-11.008,-0.413,-0.959,0.364,-1.365,0.571
2141.0,-10.439,-0.275,-0.618,0.364,-1.365,0.571
2145.0,-10.439,-0.275,-0.618,0.076,-1.331,0.437
2149.0,-10.439,-0.275,-0.618,0.076,-1.331,0.437
2153.0,-9.814,-0.121,-0.257,-0.208,-1.302,0.286
2157.0,-9.814,-0.121,-0.257,-0.208,-1.302,0.286
2162.0,-9.211,0.038,0.083,-0.488,-1.274,0.124
2165.0,-9.211,0.038,0.083,-0.488,-1.274,0.124
2169.0,-9.211,0.038,0.083,-0.488,-1.274,0.124
2173.0,-8.584,0.112,0.296,-0.761,-1.244,-0.042
2177.0,-8.584,0.112,0.296,-0.761,-1.244,-0.042
2181.0,-8.034,0.057,0.414,-1.028,-1.206,-0.212
2185.0,-8.034,0.057,0.414,-1.028,-1.206,-0.212
2189.0,-8.034,0.057,0.414,-1.028,-1.206,-0.212
2193.0,-7.728,-0.095,0.293,-1.278,-1.164,-0.396
2197.0,-7.728,-0.095,0.293,-1.278,-1.164,-0.396
2201.0,-7.676,-0.385,-0.044,-1.5,-1.114,-0.608
2206.0,-7.676,-0.385,-0.044,-1.5,-1.114,-0.608
2210.0,-7.676,-0.385,-0.044,-1.5,-1.114,-0.608
2214.0,-7.806,-0.669,-0.441,-1.681,-1.056,-0.853
2218.0,-7.806,-0.669,-0.441,-1.681,-1.056,-0.853
2222.0,-7.88,-0.964,-0.838,-1.813,-1.0,-1.124
2226.0,-7.88,-0.964,-0.838,-1.813,-1.0,-1.124
2231.0,-7.672,-1.161,-1.167,-1.813,-0.942,-1.41
2235.0,-7.672,-1.161,-1.167,-1.889,-0.942,-1.41
2239.0,-7.672,-1.161,-1.167,-1.889,-0.942,-1.41
2243.0,-7.211,-1.356,-1.37,-1.903,-0.887,-1.691
2247.0,-7.211,-1.356,-1.37,-1.903,-0.887,-1.691
2251.0,-6.552,-1.38,-1.394,-1.855,-0.833,-1.954
2256.0,-6.552,-1.38,-1.394,-1.855,-0.833,-1.954
2260.0,-5.965,-1.296,-1.336,-1.855,-0.833,-1.954
2264.0,-5.965,-1.296,-1.336,-1.752,-0.775,-2.185
2268.0,-5.965,-1.296,-1.336,-1.752,-0.775,-2.185
2272.0,-5.443,-1.333,-1.375,-1.607,-0.706,-2.369
2276.0,-5.443,-1.333,-1.375,-1.607,-0.706,-2.369
2281.0,-5.159,-1.425,-1.2,-1.429,-0.624,-2.508
2285.0,-5.159,-1.425,-1.2,-1.429,-0.624,-2.508
2289.0,-5.159,-1.425,-1.176,-1.429,-0.624,-2.508
2293.0,-5.1,-1.192,-1.176,-1.216,-0.541,-2.584
2297.0,-5.1,-1.192,-1.176,-1.216,-0.541,-2.584
2301.0,-5.148,-0.894,-1.192,-0.987,-0.447,-2.555
2306.0,-5.148,-0.894,-1.192,-0.987,-0.447,-2.555
2310.0,-5.053,-0.751,-1.129,-0.744,-0.343,-2.408
2314.0,-5.053,-0.751,-1.129,-0.744,-0.343,-2.408
2318.0,-5.053,-0.751,-1.129,-0.744,-0.343,-2.408
2322.0,-4.715,-0.636,-0.961,-0.479,-0.238,-2.162
2326.0,-4.715,-0.636,-0.961,-0.479,-0.238,-2.162
2331.0,-4.213,-0.641,-0.817,-0.202,-0.139,-1.832
2335.0,-4.213,-0.641,-0.817,-0.202,-0.139,-1.832
2339.0,-3.589,-0.953,-0.533,-0.202,-0.139,-1.453
2343.0,-3.589,-0.953,-0.533,0.065,-0.044,-1.453
2347.0,-3.589,-0.953,-0.533,0.065,-0.044,-1.453
2351.0,-2.965,-1.56,-0.131,0.31,0.044,-1.087
2355.0,-2.965,-1.56,-0.131,0.31,0.044,-1.087
2359.0,-2.415,-2.239,0.186,0.529,0.113,-0.787
2363.0,-2.415,-2.239,0.186,0.529,0.113,-0.787
2367.0,-2.415,-2.239,0.186,0.529,0.113,-0.787
2371.0,-2.104,-2.67,0.452,0.719,0.161,-0.574
2375.0,-2.104,-2.67,0.452,0.719,0.161,-0.574
2379.0,-2.097,-2.758,0.741,0.872,0.181,-0.443
2383.0,-2.097,-2.758,0.741,0.872,0.181,-0.443
2387.0,-2.097,-2.758,0.741,0.872,0.181,-0.443
2390.0,-2.325,-2.514,0.818,0.985,0.181,-0.364
2394.0,-2.325,-2.514,0.818,0.985,0.181,-0.364
2398.0,-2.643,-2.13,0.729,0.985,0.181,-0.304
2402.0,-2.643,-2.13,0.729,1.056,0.181,-0.304
2406.0,-2.643,-2.13,0.729,1.056,0.181,-0.304
2410.0,-2.806,-1.872,0.607,1.086,0.189,-0.242
2414.0,-2.806,-1.872,0.607,1.086,0.189,-0.242
2418.0,-2.851,-1.799,0.52,1.086,0.189,-0.178
2422.0,-2.851,-1.799,0.52,1.08,0.207,-0.178
2426.0,-2.851,-1.799,0.52,1.08,0.207,-0.178
2430.0,-3.017,-1.941,0.473,1.044,0.247,-0.115
2433.0,-3.017,-1.941,0.473,1.044,0.247,-0.115
2437.0,-3.639,-2.164,0.395,1.044,0.247,-0.115
2441.0,-3.639,-2.164,0.395,0.977,0.327,-0.046
2445.0,-3.639,-2.164,0.395,0.977,0.327,-0.046
2449.0,-4.927,-2.389,0.299,0.88,0.459,0.056
2453.0,-4.927,-2.389,0.299,0.88,0.459,0.056
2457.0,-4.927,-2.389,0.103,0.88,0.459,0.056
2461.0,-6.989,-2.699,0.103,0.756,0.64,0.218
2464.0,-6.989,-2.699,0.103,0.756,0.64,0.218
2468.0,-10.193,-3.388,-0.177,0.617,0.861,0.467
2472.0,-10.193,-3.388,-0.177,0.617,0.861,0.467
2476.0,-10.193,-3.388,-0.177,0.617,0.861,0.467
2480.0,-14.462,-4.329,-0.305,0.497,1.081,0.812
2484.0,-14.462,-4.329,-0.305,0.497,1.081,0.812
2488.0,-18.376,-5.417,0.101,0.413,1.203,1.205
2492.0,-18.376,-5.417,0.101,0.413,1.203,1.205
2496.0,-18.376,-5.417,0.101,0.413,1.203,1.205
2500.0,-18.973,-6.209,1.048,0.359,1.143,1.548
2504.0,-18.973,-6.209,1.048,0.359,1.143,1.548
2508.0,-17.375,-6.593,1.705,0.324,0.951,1.759
2512.0,-17.375,-6.593,1.705,0.324,0.951,1.759
2515.0,-17.375,-6.593,1.705,0.324,0.951,1.759
2519.0,-16.838,-6.537,1.54,0.317,0.778,1.832
2523.0,-16.838,-6.537,1.54,0.317,0.778,1.832
2527.0,-17.93,-6.264,0.915,0.332,0.691,1.858
2531.0,-17.93,-6.264,0.915,0.332,0.691,1.858
2535.0,-17.93,-6.264,0.915,0.332,0.691,1.858
2539.0,-19.349,-6.013,0.3,0.333,0.661,1.945
2543.0,-19.349,-6.013,0.3,0.333,0.661,1.945
2547.0,-19.6,-5.916,0.036,0.296,0.654,2.12
2551.0,-19.6,-5.916,0.036,0.296,0.654,2.12
2555.0,-19.6,-5.916,0.036,0.296,0.654,2.12
2558.0,-19.6,-5.972,0.232,0.229,0.665,2.33
2562.0,-19.6,-5.972,0.232,0.229,0.665,2.33
2566.0,-19.339,-6.003,0.664,0.143,0.674,2.484
2570.0,-19.339,-6.003,0.664,0.143,0.674,2.484
2574.0,-19.339,-6.003,0.664,0.143,0.674,2.484
2578.0,-17.753,-5.752,1.002,0.05,0.665,2.518
2582.0,-17.753,-5.752,1.002,0.05,0.665,2.518
2586.0,-15.914,-5.279,1.202,0.05,0.641,2.437
2590.0,-15.914,-5.279,1.202,-0.045,0.641,2.437
2594.0,-15.914,-5.279,1.202,-0.045,0.641,2.437
2598.0,-14.027,-4.732,1.331,-0.13,0.601,2.273
2602.0,-14.027,-4.732,1.331,-0.13,0.601,2.273
2606.0,-12.376,-4.143,1.367,-0.13,0.557,2.057
2610.0,-12.376,-4.143,1.367,-0.194,0.557,2.057
2614.0,-12.376,-4.143,1.367,-0.194,0.557,2.057
2618.0,-11.344,-3.571,1.322,-0.233,0.53,1.811
2622.0,-11.344,-3.571,1.322,-0.233,0.53,1.811
2626.0,-11.008,-3.035,1.223,-0.254,0.538,1.567
2630.0,-11.008,-3.035,1.223,-0.254,0.538,1.567
2634.0,-11.008,-3.035,1.223,-0.254,0.538,1.567
2638.0,-11.362,-2.658,1.114,-0.263,0.584,1.359
2642.0,-11.362,-2.658,1.114,-0.263,0.584,1.359
2646.0,-12.346,-2.535,1.049,-0.266,0.655,1.219
2650.0,-12.346,-2.535,1.049,-0.266,0.655,1.219
2654.0,-12.346,-2.535,1.049,-0.266,0.655,1.219
2658.0,-13.474,-2.649,1.092,-0.256,0.719,1.155
2662.0,-13.474,-2.649,1.092,-0.256,0.719,1.155
2666.0,-13.901,-2.96,1.222,-0.227,0.731,1.14
2670.0,-13.901,-2.96,1.222,-0.227,0.731,1.14
2674.0,-13.901,-2.96,1.222,-0.227,0.731,1.14
2678.0,-13.355,-3.266,1.395,-0.171,0.667,1.126
2682.0,-13.355,-3.266,1.395,-0.171,0.667,1.126
2686.0,-12.242,-3.425,1.408,-0.086,0.545,1.067
2690.0,-12.242,-3.425,1.408,-0.086,0.545,1.067
2694.0,-12.242,-3.425,1.408,-0.086,0.545,1.067
2698.0,-11.25,-3.335,1.146,0.026,0.401,0.943
2701.0,-11.25,-3.335,1.146,0.026,0.401,0.943
2705.0,-10.581,-3.041,0.645,0.153,0.271,0.77
2709.0,-10.581,-3.041,0.645,0.153,0.271,0.77
2713.0,-10.581,-3.041,0.645,0.153,0.271,0.77
2717.0,-10.398,-2.605,-0.032,0.271,0.175,0.583
2721.0,-10.398,-2.605,-0.032,0.271,0.175,0.583
2725.0,-10.756,-2.091,-0.68,0.36,0.138,0.414
2729.0,-10.756,-2.091,-0.68,0.36,0.138,0.414
2733.0,-10.756,-2.091,-0.68,0.36,0.138,0.414
2737.0,-11.286,-1.633,-1.078,0.411,0.163,0.295
2741.0,-11.286,-1.633,-1.078,0.411,0.163,0.295
2745.0,-11.353,-1.357,-1.153,0.427,0.218,0.233
2749.0,-11.353,-1.357,-1.153,0.427,0.218,0.233
2753.0,-11.353,-1.357,-0.861,0.427,0.218,0.233
2757.0,-11.11,-1.193,-0.861,0.421,0.282,0.208
2761.0,-11.11,-1.193,-0.861,0.421,0.282,0.208
2765.0,-10.785,-1.108,-0.4,0.415,0.342,0.185
2769.0,-10.785,-1.108,-0.4,0.415,0.342,0.185
2773.0,-10.089,-1.119,-0.028,0.415,0.342,0.185
2777.0,-10.089,-1.119,-0.028,0.433,0.383,0.145
2781.0,-10.089,-1.119,-0.028,0.433,0.383,0.145
2785.0,-9.156,-1.092,0.251,0.483,0.395,0.08
2789.0,-9.156,-1.092,0.251,0.483,0.395,0.08
2793.0,-9.156,-0.906,0.425,0.483,0.395,0.08
2796.0,-8.46,-0.906,0.425,0.559,0.388,-0.013
2800.0,-8.46,-0.906,0.425,0.559,0.388,-0.013
2804.0,-7.969,-0.715,0.382,0.651,0.373,-0.122
2808.0,-7.969,-0.715,0.382,0.651,0.373,-0.122
2812.0,-7.969,-0.715,0.382,0.651,0.373,-0.122
2816.0,-7.503,-0.546,0.197,0.741,0.351,-0.228
2820.0,-7.503,-0.546,0.197,0.741,0.351,-0.228
2824.0,-7.037,-0.373,0.051,0.817,0.323,-0.321
2828.0,-7.037,-0.373,0.051,0.817,0.323,-0.321
2832.0,-7.037,-0.373,0.051,0.817,0.323,-0.321
2835.0,-6.65,-0.223,-0.068,0.871,0.288,-0.393
2839.0,-6.65,-0.223,-0.068,0.871,0.288,-0.393
2843.0,-6.392,-0.156,-0.255,0.9,0.25,-0.443
2847.0,-6.392,-0.156,-0.255,0.9,0.25,-0.443
2851.0,-6.392,-0.156,-0.255,0.9,0.25,-0.443
2855.0,-6.214,-0.142,-0.483,0.895,0.214,-0.477
2859.0,-6.214,-0.142,-0.483,0.895,0.214,-0.477
2863.0,-6.101,-0.142,-0.633,0.849,0.182,-0.505
2867.0,-6.101,-0.142,-0.633,0.849,0.182,-0.505
2871.0,-6.101,-0.142,-0.741,0.849,0.182,-0.505
2875.0,-6.109,-0.065,-0.741,0.757,0.147,-0.534
2879.0,-6.109,-0.065,-0.741,0.757,0.147,-0.534
2883.0,-6.132,0.029,-0.837,0.612,0.115,-0.563
2887.0,-6.132,0.029,-0.837,0.612,0.115,-0.563
2891.0,-6.132,0.029,-0.836,0.612,0.115,-0.563
2895.0,-6.071,0.152,-0.836,0.413,0.088,-0.589
2899.0,-6.071,0.152,-0.836,0.413,0.088,-0.589
2903.0,-5.926,0.287,-0.693,0.17,0.062,-0.606
2907.0,-5.926,0.287,-0.693,0.17,0.062,-0.606
2911.0,-5.926,0.287,-0.693,0.17,0.062,-0.606
2915.0,-5.692,0.378,-0.449,-0.102,0.033,-0.61
2919.0,-5.692,0.378,-0.449,-0.102,0.033,-0.61
2923.0,-5.472,0.37,-0.203,-0.384,-0.001,-0.598
2927.0,-5.472,0.37,-0.203,-0.384,-0.001,-0.598
2931.0,-5.472,0.243,-0.006,-0.384,-0.001,-0.598
2935.0,-5.241,0.243,-0.006,-0.66,-0.038,-0.575
2939.0,-5.241,0.243,-0.006,-0.66,-0.038,-0.575
2943.0,-5.077,0.059,0.154,-0.917,-0.077,-0.549
2947.0,-5.077,0.059,0.154,-0.917,-0.077,-0.549
2951.0,-5.115,-0.129,0.22,-0.917,-0.077,-0.516
2955.0,-5.115,-0.129,0.22,-1.153,-0.122,-0.516
2959.0,-5.115,-0.129,0.22,-1.153,-0.122,-0.516
2963.0,-5.256,-0.464,0.141,-1.369,-0.165,-0.48
2967.0,-5.256,-0.464,0.141,-1.369,-0.165,-0.48
2971.0,-5.441,-0.435,0.127,-1.558,-0.198,-0.441
2975.0,-5.441,-0.435,0.127,-1.558,-0.198,-0.441
2980.0,-5.441,-0.435,0.127,-1.558,-0.198,-0.441
2984.0,-5.598,-0.993,0.491,-1.711,-0.244,-0.381
2988.0,-5.598,-0.993,0.491,-1.711,-0.244,-0.381
2992.0,-5.81,-1.47,0.62,-1.825,-0.308,-0.35
2996.0,-5.81,-1.47,0.62,-1.825,-0.308,-0.35
3000.0,-6.016,-1.481,0.617,-1.825,-0.308,-0.35
