deltaTime,Acc_X,Acc_Y,Acc_Z,Gyro_X,Gyro_Y,Gyro_Z
0.0,-8.683,-1.952,5.789,0.198,0.212,0.262
3.0,-8.783,-2.063,5.85,0.355,0.229,0.242
6.0,-8.783,-2.063,5.85,0.355,0.229,0.242
9.0,-8.783,-2.063,5.85,0.355,0.229,0.242
12.0,-8.679,-1.969,6.001,0.543,0.224,0.232
15.0,-8.679,-1.969,6.001,0.543,0.224,0.232
18.0,-8.679,-1.969,6.001,0.543,0.224,0.232
21.0,-8.145,-1.632,5.922,0.543,0.189,0.218
24.0,-8.145,-1.632,5.922,0.724,0.189,0.218
27.0,-8.145,-1.632,5.922,0.724,0.189,0.218
30.0,-8.145,-1.632,5.592,0.724,0.189,0.218
33.0,-8.192,-1.225,5.592,0.843,0.217,0.196
36.0,-8.192,-1.225,5.592,0.843,0.217,0.196
39.0,-8.192,-1.225,5.592,0.843,0.217,0.196
43.0,-8.248,-0.811,5.359,0.901,0.207,0.15
46.0,-8.248,-0.811,5.359,0.901,0.207,0.15
50.0,-8.248,-0.811,5.359,0.901,0.207,0.15
54.0,-8.265,-0.892,5.237,0.895,0.201,0.108
57.0,-8.265,-0.892,5.237,0.895,0.201,0.108
61.0,-8.326,-1.336,5.261,0.895,0.209,0.077
65.0,-8.326,-1.336,5.261,0.895,0.209,0.077
68.0,-8.326,-1.336,5.261,0.895,0.209,0.077
72.0,-8.165,-1.766,5.269,0.964,0.22,0.057
75.0,-8.165,-1.766,5.269,0.964,0.22,0.057
79.0,-8.165,-1.766,5.269,0.964,0.22,0.057
83.0,-7.856,-1.896,5.198,1.081,0.236,0.022
86.0,-7.856,-1.896,5.198,1.081,0.236,0.022
90.0,-7.598,-1.705,5.27,1.081,0.236,0.022
94.0,-7.598,-1.705,5.27,1.202,0.276,-0.022
97.0,-7.598,-1.705,5.27,1.202,0.276,-0.022
101.0,-7.214,-1.34,5.447,1.304,0.339,-0.054
105.0,-7.214,-1.34,5.447,1.304,0.339,-0.054
109.0,-7.214,-1.34,5.447,1.304,0.339,-0.054
113.0,-6.906,-1.183,5.691,1.382,0.406,-0.066
116.0,-6.906,-1.183,5.691,1.382,0.406,-0.066
120.0,-6.781,-0.951,5.841,1.454,0.467,-0.066
124.0,-6.781,-0.951,5.841,1.454,0.467,-0.066
128.0,-6.781,-0.951,5.841,1.454,0.467,-0.066
132.0,-6.918,-0.578,5.777,1.493,0.508,-0.078
136.0,-6.918,-0.578,5.777,1.493,0.508,-0.078
139.0,-6.894,-0.304,5.479,1.493,0.508,-0.078
143.0,-6.894,-0.304,5.479,1.477,0.533,-0.093
147.0,-6.894,-0.304,5.479,1.477,0.533,-0.093
151.0,-6.701,-0.089,5.21,1.406,0.561,-0.116
155.0,-6.701,-0.089,5.21,1.406,0.561,-0.116
158.0,-6.701,-0.089,5.21,1.406,0.561,-0.116
162.0,-6.785,-0.468,5.278,1.315,0.598,-0.142
166.0,-6.785,-0.468,5.278,1.315,0.598,-0.142
170.0,-6.867,-1.595,5.578,1.325,0.64,-0.12
174.0,-6.867,-1.595,5.578,1.325,0.64,-0.12
178.0,-6.867,-1.595,5.578,1.325,0.64,-0.12
181.0,-6.636,-2.449,5.717,1.519,0.675,-0.062
185.0,-6.636,-2.449,5.717,1.519,0.675,-0.062
189.0,-6.653,-3.206,5.959,1.519,0.71,-0.019
193.0,-6.653,-3.206,5.959,1.854,0.71,-0.019
197.0,-6.653,-3.206,5.959,1.854,0.71,-0.019
200.0,-6.639,-3.389,6.054,2.283,0.742,0.004
204.0,-6.639,-3.389,6.054,2.283,0.742,0.004
208.0,-6.639,-3.389,6.054,2.283,0.742,0.004
212.0,-6.858,-3.29,5.873,2.735,0.79,0.022
215.0,-6.858,-3.29,5.873,2.735,0.79,0.022
219.0,-6.375,-2.492,5.286,3.179,0.706,0.033
223.0,-6.375,-2.492,5.286,3.179,0.706,0.033
227.0,-6.375,-2.492,5.286,3.179,0.706,0.033
230.0,-6.208,-1.117,4.671,3.442,0.68,0.037
234.0,-6.208,-1.117,4.671,3.442,0.68,0.037
238.0,-6.208,1.269,3.772,3.442,0.68,0.037
241.0,-5.916,1.269,3.772,3.434,0.631,0.008
245.0,-5.916,1.269,3.772,3.434,0.631,0.008
249.0,-6.444,1.773,3.354,3.065,0.57,-0.042
252.0,-6.444,1.773,3.354,3.065,0.57,-0.042
256.0,-6.444,1.773,3.354,3.065,0.57,-0.042
260.0,-6.715,1.487,3.257,2.583,0.515,-0.032
264.0,-6.715,1.487,3.257,2.583,0.515,-0.032
267.0,-6.715,0.972,3.299,2.583,0.515,-0.032
271.0,-6.781,0.972,3.299,2.124,0.475,-0.013
275.0,-6.781,0.972,3.299,2.124,0.475,-0.013
279.0,-6.833,0.507,3.324,1.721,0.435,-0.016
282.0,-6.833,0.507,3.324,1.721,0.435,-0.016
286.0,-6.833,0.507,3.324,1.721,0.435,-0.016
290.0,-6.919,0.125,3.26,1.379,0.39,-0.036
293.0,-6.919,0.125,3.26,1.379,0.39,-0.036
297.0,-6.968,-0.172,3.22,1.379,0.39,-0.036
301.0,-6.968,-0.172,3.22,1.096,0.358,-0.055
305.0,-6.968,-0.172,3.22,1.096,0.358,-0.055
309.0,-6.912,-0.52,3.23,0.889,0.341,-0.055
313.0,-6.912,-0.52,3.23,0.889,0.341,-0.055
316.0,-6.912,-0.52,3.23,0.889,0.341,-0.055
320.0,-6.875,-0.901,3.233,0.778,0.344,-0.042
324.0,-6.875,-0.901,3.233,0.778,0.344,-0.042
328.0,-6.921,-1.164,3.279,0.76,0.366,-0.023
332.0,-6.921,-1.164,3.279,0.76,0.366,-0.023
335.0,-6.921,-1.164,3.279,0.76,0.366,-0.023
339.0,-7.092,-1.363,3.342,0.812,0.401,0.0
343.0,-7.092,-1.363,3.342,0.812,0.401,0.0
347.0,-7.347,-1.472,3.386,0.812,0.401,0.025
350.0,-7.347,-1.472,3.386,0.907,0.439,0.025
354.0,-7.347,-1.472,3.386,0.907,0.439,0.025
358.0,-7.54,-1.478,3.45,1.027,0.474,0.051
362.0,-7.54,-1.478,3.45,1.027,0.474,0.051
365.0,-7.54,-1.478,3.45,1.027,0.474,0.051
369.0,-7.59,-1.387,3.564,1.159,0.506,0.077
373.0,-7.59,-1.387,3.564,1.159,0.506,0.077
377.0,-7.531,-1.205,3.627,1.159,0.527,0.104
380.0,-7.531,-1.205,3.627,1.29,0.527,0.104
384.0,-7.531,-1.205,3.627,1.29,0.527,0.104
388.0,-7.467,-0.95,3.677,1.406,0.542,0.134
391.0,-7.467,-0.95,3.677,1.406,0.542,0.134
395.0,-7.467,-0.95,3.677,1.406,0.542,0.134
399.0,-7.433,-0.679,3.721,1.498,0.551,0.164
403.0,-7.433,-0.679,3.721,1.498,0.551,0.164
406.0,-7.445,-0.48,3.754,1.572,0.555,0.195
410.0,-7.445,-0.48,3.754,1.572,0.555,0.195
414.0,-7.445,-0.48,3.754,1.572,0.555,0.195
418.0,-7.445,-0.352,3.808,1.638,0.553,0.223
421.0,-7.445,-0.352,3.808,1.638,0.553,0.223
425.0,-7.445,-0.352,3.901,1.638,0.553,0.223
429.0,-7.542,-0.233,3.901,1.704,0.552,0.249
433.0,-7.542,-0.233,3.901,1.704,0.552,0.249
436.0,-7.718,-0.095,4.033,1.772,0.544,0.276
440.0,-7.718,-0.095,4.033,1.772,0.544,0.276
444.0,-7.718,-0.095,4.033,1.772,0.544,0.276
447.0,-7.903,-0.017,4.086,1.845,0.524,0.311
451.0,-7.903,-0.017,4.086,1.845,0.524,0.311
455.0,-7.903,0.123,4.14,1.845,0.524,0.311
459.0,-8.005,0.123,4.14,1.917,0.495,0.347
462.0,-8.005,0.123,4.14,1.917,0.495,0.347
466.0,-8.045,0.328,4.111,1.98,0.459,0.385
470.0,-8.045,0.328,4.111,1.98,0.459,0.385
473.0,-8.045,0.328,4.111,1.98,0.459,0.385
477.0,-8.013,0.526,4.08,2.021,0.42,0.416
480.0,-8.013,0.526,4.08,2.021,0.42,0.416
484.0,-8.013,0.526,4.08,2.021,0.42,0.416
488.0,-8.072,0.688,4.035,2.035,0.38,0.433
491.0,-8.072,0.688,4.035,2.035,0.38,0.433
495.0,-8.265,0.881,4.002,2.035,0.336,0.431
499.0,-8.265,0.881,4.002,2.019,0.336,0.431
502.0,-8.265,0.881,4.002,2.019,0.336,0.431
506.0,-8.538,1.085,3.918,1.975,0.287,0.421
510.0,-8.538,1.085,3.918,1.975,0.287,0.421
513.0,-8.538,1.085,3.918,1.975,0.287,0.421
517.0,-8.841,1.24,3.87,1.908,0.241,0.415
521.0,-8.841,1.24,3.87,1.908,0.241,0.415
524.0,-9.037,1.324,3.852,1.908,0.241,0.415
528.0,-9.037,1.324,3.852,1.833,0.195,0.418
532.0,-9.037,1.324,3.852,1.833,0.195,0.418
535.0,-9.156,1.391,3.852,1.759,0.146,0.426
539.0,-9.156,1.391,3.852,1.759,0.146,0.426
542.0,-9.156,1.391,3.852,1.759,0.146,0.426
546.0,-9.406,1.478,3.816,1.685,0.105,0.434
550.0,-9.406,1.478,3.816,1.685,0.105,0.434
553.0,-9.406,1.478,3.776,1.685,0.105,0.434
557.0,-9.767,1.58,3.776,1.603,0.077,0.447
561.0,-9.767,1.58,3.776,1.603,0.077,0.447
564.0,-10.003,1.645,3.727,1.503,0.062,0.467
568.0,-10.003,1.645,3.727,1.503,0.062,0.467
572.0,-10.003,1.645,3.727,1.503,0.062,0.467
576.0,-10.064,1.696,3.739,1.384,0.059,0.488
579.0,-10.064,1.696,3.739,1.384,0.059,0.488
583.0,-10.064,1.696,3.739,1.384,0.059,0.488
587.0,-10.066,1.704,3.763,1.255,0.062,0.506
590.0,-10.066,1.704,3.763,1.255,0.062,0.506
594.0,-10.03,1.714,3.708,1.123,0.068,0.522
598.0,-10.03,1.714,3.708,1.123,0.068,0.522
602.0,-10.03,1.714,3.708,1.123,0.068,0.522
605.0,-10.058,1.71,3.732,0.997,0.082,0.542
609.0,-10.058,1.71,3.732,0.997,0.082,0.542
613.0,-10.058,1.643,3.826,0.997,0.082,0.542
617.0,-10.118,1.643,3.826,0.893,0.096,0.574
620.0,-10.118,1.643,3.826,0.893,0.096,0.574
624.0,-10.202,1.542,3.913,0.821,0.107,0.616
628.0,-10.202,1.542,3.913,0.821,0.107,0.616
632.0,-10.202,1.542,3.913,0.821,0.107,0.616
635.0,-10.292,1.434,3.979,0.774,0.117,0.659
639.0,-10.292,1.434,3.979,0.774,0.117,0.659
643.0,-10.338,1.425,4.105,0.774,0.117,0.659
646.0,-10.338,1.425,4.105,0.738,0.123,0.696
650.0,-10.338,1.425,4.105,0.738,0.123,0.696
654.0,-10.14,1.441,4.135,0.705,0.115,0.723
658.0,-10.14,1.441,4.135,0.705,0.115,0.723
661.0,-10.14,1.441,4.135,0.705,0.115,0.723
665.0,-9.837,1.538,4.11,0.664,0.101,0.733
669.0,-9.837,1.538,4.11,0.664,0.101,0.733
672.0,-9.897,1.653,4.071,0.664,0.101,0.733
676.0,-9.897,1.653,4.071,0.597,0.108,0.734
680.0,-9.897,1.653,4.071,0.597,0.108,0.734
683.0,-10.25,1.65,4.055,0.495,0.15,0.744
687.0,-10.25,1.65,4.055,0.495,0.15,0.744
691.0,-10.25,1.65,4.055,0.495,0.15,0.744
695.0,-10.517,1.506,4.245,0.371,0.219,0.773
698.0,-10.517,1.506,4.245,0.371,0.219,0.773
702.0,-10.67,1.34,4.568,0.371,0.219,0.773
706.0,-10.67,1.34,4.568,0.245,0.292,0.812
709.0,-10.67,1.34,4.568,0.245,0.292,0.812
713.0,-10.621,1.178,4.811,0.131,0.355,0.852
717.0,-10.621,1.178,4.811,0.131,0.355,0.852
721.0,-10.621,1.178,4.811,0.131,0.355,0.852
724.0,-10.244,1.039,5.07,0.038,0.401,0.88
728.0,-10.244,1.039,5.07,0.038,0.401,0.88
732.0,-9.805,0.907,5.251,0.038,0.418,0.894
736.0,-9.805,0.907,5.251,-0.037,0.418,0.894
739.0,-9.805,0.907,5.251,-0.037,0.418,0.894
743.0,-9.806,0.818,5.321,-0.094,0.428,0.898
747.0,-9.806,0.818,5.321,-0.094,0.428,0.898
750.0,-9.806,0.818,5.321,-0.094,0.428,0.898
754.0,-10.146,0.722,5.379,-0.139,0.456,0.9
758.0,-10.146,0.722,5.379,-0.139,0.456,0.9
762.0,-10.371,0.576,5.615,-0.167,0.485,0.912
766.0,-10.371,0.576,5.615,-0.167,0.485,0.912
769.0,-10.371,0.576,5.615,-0.167,0.485,0.912
773.0,-10.414,0.352,5.887,-0.165,0.496,0.927
777.0,-10.414,0.352,5.887,-0.165,0.496,0.927
781.0,-10.451,0.136,6.053,-0.165,0.496,0.927
785.0,-10.451,0.136,6.053,-0.131,0.487,0.929
789.0,-10.451,0.136,6.053,-0.131,0.487,0.929
792.0,-10.474,-0.001,6.135,-0.071,0.472,0.916
796.0,-10.474,-0.001,6.135,-0.071,0.472,0.916
800.0,-10.474,-0.001,6.22,-0.071,0.472,0.916
804.0,-10.291,-0.026,6.22,0.006,0.448,0.895
808.0,-10.291,-0.026,6.22,0.006,0.448,0.895
812.0,-10.195,0.008,6.234,0.083,0.412,0.868
815.0,-10.195,0.008,6.234,0.083,0.412,0.868
819.0,-10.195,0.008,6.234,0.083,0.412,0.868
823.0,-10.324,0.093,6.108,0.145,0.37,0.839
827.0,-10.324,0.093,6.108,0.145,0.37,0.839
830.0,-10.386,0.2,5.965,0.145,0.37,0.806
834.0,-10.386,0.2,5.965,0.176,0.325,0.806
838.0,-10.386,0.2,5.965,0.176,0.325,0.806
842.0,-10.336,0.251,5.822,0.175,0.276,0.772
845.0,-10.336,0.251,5.822,0.175,0.276,0.772
849.0,-10.336,0.251,5.822,0.175,0.276,0.772
853.0,-10.308,0.209,5.643,0.156,0.219,0.739
857.0,-10.308,0.209,5.643,0.156,0.219,0.739
860.0,-10.283,0.14,5.522,0.156,0.161,0.7
864.0,-10.283,0.14,5.522,0.135,0.161,0.7
868.0,-10.283,0.14,5.522,0.135,0.161,0.7
871.0,-10.248,0.023,5.39,0.127,0.107,0.662
875.0,-10.248,0.023,5.39,0.127,0.107,0.662
879.0,-10.248,0.023,5.39,0.127,0.107,0.662
883.0,-10.199,-0.087,5.292,0.135,0.054,0.624
886.0,-10.199,-0.087,5.292,0.135,0.054,0.624
890.0,-10.274,-0.223,5.271,0.152,0.001,0.583
894.0,-10.274,-0.223,5.271,0.152,0.001,0.583
898.0,-10.274,-0.223,5.271,0.152,0.001,0.583
902.0,-10.58,-0.273,5.23,0.168,-0.051,0.537
906.0,-10.58,-0.273,5.23,0.168,-0.051,0.537
910.0,-10.861,-0.304,5.135,0.168,-0.098,0.494
913.0,-10.861,-0.304,5.135,0.172,-0.098,0.494
917.0,-10.861,-0.304,5.135,0.172,-0.098,0.494
921.0,-10.829,-0.336,5.042,0.162,-0.141,0.452
925.0,-10.829,-0.336,5.042,0.162,-0.141,0.452
929.0,-10.749,-0.397,4.933,0.162,-0.141,0.41
933.0,-10.749,-0.397,4.933,0.151,-0.176,0.41
937.0,-10.749,-0.397,4.933,0.151,-0.176,0.41
941.0,-10.753,-0.477,4.834,0.149,-0.203,0.364
945.0,-10.753,-0.477,4.834,0.149,-0.203,0.364
949.0,-10.792,-0.508,4.812,0.149,-0.203,0.364
953.0,-10.792,-0.508,4.812,0.162,-0.22,0.314
956.0,-10.792,-0.508,4.812,0.162,-0.22,0.314
960.0,-10.862,-0.604,4.743,0.202,-0.231,0.271
964.0,-10.862,-0.604,4.743,0.202,-0.231,0.271
968.0,-10.862,-0.604,4.738,0.202,-0.231,0.271
972.0,-10.877,-0.743,4.738,0.27,-0.236,0.239
976.0,-10.877,-0.743,4.738,0.27,-0.236,0.239
980.0,-10.868,-0.812,4.863,0.362,-0.244,0.214
984.0,-10.868,-0.812,4.863,0.362,-0.244,0.214
988.0,-10.868,-0.812,4.863,0.362,-0.244,0.214
992.0,-11.01,-0.826,4.96,0.471,-0.257,0.195
995.0,-11.01,-0.826,4.96,0.471,-0.257,0.195
999.0,-11.163,-0.714,5.014,0.59,-0.266,0.186
1003.0,-11.163,-0.714,5.014,0.59,-0.266,0.186
1007.0,-11.163,-0.714,5.014,0.59,-0.266,0.186
1011.0,-11.174,-0.59,5.029,0.7,-0.277,0.193
1015.0,-11.174,-0.59,5.029,0.7,-0.277,0.193
1019.0,-11.067,-0.447,5.011,0.785,-0.305,0.206
1023.0,-11.067,-0.447,5.011,0.785,-0.305,0.206
1027.0,-11.067,-0.447,4.94,0.785,-0.305,0.206
1031.0,-10.942,-0.253,4.94,0.843,-0.346,0.209
1035.0,-10.942,-0.253,4.94,0.843,-0.346,0.209
1039.0,-10.898,-0.016,4.753,0.86,-0.391,0.197
1043.0,-10.898,-0.016,4.753,0.86,-0.391,0.197
1047.0,-10.898,0.267,4.67,0.86,-0.391,0.197
1051.0,-10.755,0.267,4.67,0.832,-0.433,0.17
1055.0,-10.755,0.267,4.67,0.832,-0.433,0.17
1059.0,-10.564,0.456,4.7,0.765,-0.472,0.13
1063.0,-10.564,0.456,4.7,0.765,-0.472,0.13
1067.0,-10.564,0.456,4.81,0.765,-0.472,0.13
1071.0,-10.353,0.44,4.81,0.691,-0.522,0.081
1075.0,-10.353,0.44,4.81,0.691,-0.522,0.081
1078.0,-10.362,0.345,4.851,0.645,-0.577,0.024
1082.0,-10.362,0.345,4.851,0.645,-0.577,0.024
1086.0,-10.362,0.345,4.851,0.645,-0.577,0.024
1090.0,-10.586,0.25,4.795,0.639,-0.625,-0.029
1094.0,-10.586,0.25,4.795,0.639,-0.625,-0.029
1098.0,-10.841,0.145,4.733,0.661,-0.669,-0.065
1102.0,-10.841,0.145,4.733,0.661,-0.669,-0.065
1106.0,-10.841,0.145,4.597,0.661,-0.669,-0.065
1110.0,-11.104,0.077,4.597,0.697,-0.709,-0.087
1114.0,-11.104,0.077,4.597,0.697,-0.709,-0.087
1118.0,-11.119,0.083,4.458,0.734,-0.747,-0.102
1122.0,-11.119,0.083,4.458,0.734,-0.747,-0.102
1126.0,-11.119,0.162,4.353,0.734,-0.747,-0.102
1130.0,-10.91,0.162,4.353,0.76,-0.788,-0.119
1134.0,-10.91,0.162,4.353,0.76,-0.788,-0.119
1138.0,-10.778,0.31,4.111,0.768,-0.835,-0.142
1142.0,-10.778,0.31,4.111,0.768,-0.835,-0.142
1146.0,-10.383,0.462,4.0,0.768,-0.835,-0.142
1150.0,-10.383,0.462,4.0,0.755,-0.88,-0.177
1154.0,-10.383,0.462,4.0,0.755,-0.88,-0.177
1158.0,-10.269,0.551,4.025,0.734,-0.93,-0.214
1162.0,-10.269,0.551,4.025,0.734,-0.93,-0.214
1166.0,-11.31,0.546,3.695,0.734,-0.93,-0.237
1170.0,-11.31,0.546,3.695,0.701,-0.973,-0.237
1174.0,-11.31,0.546,3.695,0.701,-0.973,-0.237
1178.0,-12.361,0.456,3.572,0.653,-0.968,-0.246
1182.0,-12.361,0.456,3.572,0.653,-0.968,-0.246
1186.0,-12.456,0.381,3.829,0.653,-0.953,-0.239
1190.0,-12.456,0.381,3.829,0.604,-0.953,-0.239
1194.0,-12.456,0.381,3.829,0.604,-0.953,-0.239
1198.0,-12.311,0.254,3.901,0.575,-0.958,-0.229
1202.0,-12.311,0.254,3.901,0.575,-0.958,-0.229
1206.0,-12.318,0.243,3.755,0.564,-0.955,-0.234
1210.0,-12.318,0.243,3.755,0.564,-0.955,-0.234
1214.0,-12.318,0.243,3.755,0.564,-0.955,-0.234
1218.0,-11.972,0.337,3.662,0.56,-0.945,-0.25
1222.0,-11.972,0.337,3.662,0.56,-0.945,-0.25
1226.0,-11.456,0.449,3.557,0.555,-0.942,-0.269
1230.0,-11.456,0.449,3.557,0.555,-0.942,-0.269
1234.0,-11.456,0.449,3.557,0.555,-0.942,-0.269
1238.0,-11.23,0.463,3.505,0.557,-0.944,-0.29
1242.0,-11.23,0.463,3.505,0.557,-0.944,-0.29
1246.0,-11.213,0.361,3.43,0.576,-0.945,-0.306
1250.0,-11.213,0.361,3.43,0.576,-0.945,-0.306
1254.0,-11.213,0.361,3.43,0.576,-0.945,-0.306
1258.0,-11.04,0.275,3.475,0.614,-0.94,-0.315
1262.0,-11.04,0.275,3.475,0.614,-0.94,-0.315
1266.0,-10.657,0.171,3.615,0.67,-0.942,-0.321
1270.0,-10.657,0.171,3.615,0.67,-0.942,-0.321
1274.0,-10.657,0.171,3.615,0.67,-0.942,-0.321
1278.0,-10.508,0.08,3.649,0.745,-0.946,-0.329
1282.0,-10.508,0.08,3.649,0.745,-0.946,-0.329
1286.0,-10.592,0.105,3.625,0.833,-0.937,-0.336
1290.0,-10.592,0.105,3.625,0.833,-0.937,-0.336
1294.0,-10.592,0.105,3.494,0.833,-0.937,-0.336
1298.0,-10.795,0.176,3.494,0.914,-0.917,-0.327
1302.0,-10.795,0.176,3.494,0.914,-0.917,-0.327
1306.0,-10.965,0.23,3.368,0.976,-0.883,-0.296
1310.0,-10.965,0.23,3.368,0.976,-0.883,-0.296
1314.0,-10.842,0.242,3.317,0.976,-0.883,-0.296
1318.0,-10.842,0.242,3.317,1.023,-0.852,-0.259
1322.0,-10.842,0.242,3.317,1.023,-0.852,-0.259
1326.0,-10.78,0.239,3.163,1.055,-0.83,-0.229
1330.0,-10.78,0.239,3.163,1.055,-0.83,-0.229
1334.0,-10.728,0.239,3.003,1.055,-0.83,-0.212
1338.0,-10.728,0.239,3.003,1.072,-0.806,-0.212
1342.0,-10.728,0.239,3.003,1.072,-0.806,-0.212
1346.0,-10.596,0.284,2.926,1.075,-0.783,-0.202
1350.0,-10.596,0.284,2.926,1.075,-0.783,-0.202
1354.0,-10.607,0.328,2.849,1.075,-0.767,-0.195
1358.0,-10.607,0.328,2.849,1.061,-0.767,-0.195
1362.0,-10.607,0.328,2.849,1.061,-0.767,-0.195
1366.0,-10.607,0.385,2.815,1.032,-0.756,-0.192
1370.0,-10.607,0.385,2.815,1.032,-0.756,-0.192
1374.0,-10.523,0.392,2.754,0.991,-0.752,-0.193
1378.0,-10.523,0.392,2.754,0.991,-0.752,-0.193
1382.0,-10.523,0.392,2.754,0.991,-0.752,-0.193
1386.0,-10.475,0.345,2.623,0.942,-0.752,-0.199
1390.0,-10.475,0.345,2.623,0.942,-0.752,-0.199
1394.0,-10.437,0.269,2.521,0.888,-0.748,-0.211
1398.0,-10.437,0.269,2.521,0.888,-0.748,-0.211
1402.0,-10.437,0.269,2.521,0.888,-0.748,-0.211
1406.0,-10.435,0.193,2.486,0.834,-0.74,-0.231
1410.0,-10.435,0.193,2.486,0.834,-0.74,-0.231
1414.0,-10.488,0.044,2.456,0.79,-0.736,-0.252
1418.0,-10.488,0.044,2.456,0.79,-0.736,-0.252
1422.0,-10.488,0.044,2.456,0.79,-0.736,-0.252
1426.0,-10.619,-0.116,2.375,0.768,-0.725,-0.271
1430.0,-10.619,-0.116,2.375,0.768,-0.725,-0.271
1434.0,-10.727,-0.261,2.261,0.766,-0.699,-0.286
1438.0,-10.727,-0.261,2.261,0.766,-0.699,-0.286
1442.0,-10.727,-0.261,2.205,0.766,-0.699,-0.286
1446.0,-10.758,-0.37,2.205,0.782,-0.663,-0.295
1450.0,-10.758,-0.37,2.205,0.782,-0.663,-0.295
1454.0,-10.893,-0.411,2.028,0.81,-0.621,-0.297
1458.0,-10.893,-0.411,2.028,0.81,-0.621,-0.297
1462.0,-10.921,-0.452,2.023,0.81,-0.575,-0.297
1466.0,-10.921,-0.452,2.023,0.843,-0.575,-0.297
1470.0,-10.921,-0.452,2.023,0.843,-0.575,-0.297
1475.0,-10.87,-0.523,2.148,0.883,-0.545,-0.297
1479.0,-10.87,-0.523,2.148,0.883,-0.545,-0.297
1483.0,-11.003,-0.549,2.265,0.93,-0.529,-0.305
1487.0,-11.003,-0.549,2.265,0.93,-0.529,-0.305
1491.0,-11.003,-0.549,2.265,0.93,-0.529,-0.305
1495.0,-11.319,-0.542,2.347,0.979,-0.516,-0.316
1499.0,-11.319,-0.542,2.347,0.979,-0.516,-0.316
1503.0,-11.573,-0.528,2.338,1.02,-0.5,-0.327
1507.0,-11.573,-0.528,2.338,1.02,-0.5,-0.327
1511.0,-11.51,-0.509,2.306,1.02,-0.5,-0.327
1515.0,-11.51,-0.509,2.306,1.049,-0.487,-0.342
1519.0,-11.51,-0.509,2.306,1.049,-0.487,-0.342
1524.0,-11.279,-0.464,2.188,1.064,-0.481,-0.367
1528.0,-11.279,-0.464,2.188,1.064,-0.481,-0.367
1532.0,-11.224,-0.43,1.998,1.068,-0.472,-0.404
1536.0,-11.224,-0.43,1.998,1.068,-0.472,-0.404
1540.0,-11.224,-0.43,1.998,1.068,-0.472,-0.404
1544.0,-11.275,-0.369,1.921,1.058,-0.46,-0.449
1548.0,-11.275,-0.369,1.921,1.058,-0.46,-0.449
1552.0,-11.327,-0.324,1.893,1.034,-0.451,-0.497
1556.0,-11.327,-0.324,1.893,1.034,-0.451,-0.497
1560.0,-11.327,-0.324,1.881,1.034,-0.451,-0.497
1564.0,-11.403,-0.35,1.881,1.011,-0.448,-0.539
1568.0,-11.403,-0.35,1.881,1.011,-0.448,-0.539
1572.0,-11.545,-0.416,1.971,1.004,-0.45,-0.574
1577.0,-11.545,-0.416,1.971,1.004,-0.45,-0.574
1581.0,-11.71,-0.45,2.131,1.004,-0.45,-0.604
1585.0,-11.71,-0.45,2.131,1.014,-0.459,-0.604
1589.0,-11.71,-0.45,2.131,1.014,-0.459,-0.604
1593.0,-11.847,-0.421,2.277,1.033,-0.48,-0.633
1597.0,-11.847,-0.421,2.277,1.033,-0.48,-0.633
1601.0,-11.867,-0.388,2.304,1.052,-0.512,-0.661
1605.0,-11.867,-0.388,2.304,1.052,-0.512,-0.661
1609.0,-11.867,-0.388,2.304,1.052,-0.512,-0.661
1613.0,-11.795,-0.345,2.259,1.065,-0.548,-0.696
1617.0,-11.795,-0.345,2.259,1.065,-0.548,-0.696
1621.0,-11.633,-0.289,2.18,1.069,-0.578,-0.742
1626.0,-11.633,-0.289,2.18,1.069,-0.578,-0.742
1630.0,-11.633,-0.217,2.099,1.069,-0.578,-0.742
1634.0,-11.42,-0.217,2.099,1.064,-0.606,-0.8
1638.0,-11.42,-0.217,2.099,1.064,-0.606,-0.8
1642.0,-11.283,-0.151,1.966,1.051,-0.63,-0.862
1646.0,-11.283,-0.151,1.966,1.051,-0.63,-0.862
1650.0,-11.2,-0.139,1.887,1.032,-0.648,-0.922
1654.0,-11.2,-0.139,1.887,1.032,-0.648,-0.922
1658.0,-11.2,-0.139,1.887,1.032,-0.648,-0.922
1662.0,-11.148,-0.166,1.93,1.018,-0.669,-0.975
1666.0,-11.148,-0.166,1.93,1.018,-0.669,-0.975
1670.0,-11.178,-0.2,2.02,1.013,-0.697,-1.022
1674.0,-11.178,-0.2,2.02,1.013,-0.697,-1.022
1679.0,-11.178,-0.2,2.02,1.013,-0.697,-1.022
1683.0,-11.359,-0.206,2.102,1.012,-0.721,-1.062
1687.0,-11.359,-0.206,2.102,1.012,-0.721,-1.062
1691.0,-11.515,-0.29,2.15,1.019,-0.744,-1.087
1695.0,-11.515,-0.29,2.15,1.019,-0.744,-1.087
1699.0,-11.562,-0.392,2.145,1.019,-0.744,-1.087
1703.0,-11.562,-0.392,2.145,1.043,-0.764,-1.095
1707.0,-11.562,-0.392,2.145,1.043,-0.764,-1.095
1711.0,-11.578,-0.465,2.091,1.077,-0.771,-1.093
1715.0,-11.578,-0.465,2.091,1.077,-0.771,-1.093
1719.0,-11.578,-0.494,2.034,1.113,-0.767,-1.088
1723.0,-11.578,-0.494,2.034,1.113,-0.767,-1.088
1728.0,-11.578,-0.494,2.034,1.113,-0.767,-1.088
1732.0,-11.557,-0.497,1.962,1.144,-0.76,-1.082
1736.0,-11.557,-0.497,1.962,1.144,-0.76,-1.082
1740.0,-11.465,-0.5,1.864,1.169,-0.751,-1.072
1744.0,-11.465,-0.5,1.864,1.169,-0.751,-1.072
1748.0,-11.465,-0.5,1.829,1.169,-0.751,-1.072
1752.0,-11.406,-0.486,1.829,1.181,-0.744,-1.064
1756.0,-11.406,-0.486,1.829,1.181,-0.744,-1.064
1760.0,-11.53,-0.478,1.859,1.182,-0.735,-1.056
1764.0,-11.53,-0.478,1.859,1.182,-0.735,-1.056
1768.0,-11.763,-0.501,1.919,1.182,-0.731,-1.043
1772.0,-11.763,-0.501,1.919,1.178,-0.731,-1.043
1776.0,-11.763,-0.501,1.919,1.178,-0.731,-1.043
1781.0,-11.856,-0.533,1.936,1.176,-0.733,-1.028
1785.0,-11.856,-0.533,1.936,1.176,-0.733,-1.028
1789.0,-11.857,-0.6,1.932,1.178,-0.743,-1.025
1793.0,-11.857,-0.6,1.932,1.178,-0.743,-1.025
1797.0,-11.857,-0.6,1.932,1.178,-0.743,-1.025
1801.0,-11.856,-0.633,1.837,1.183,-0.756,-1.041
1805.0,-11.856,-0.633,1.837,1.183,-0.756,-1.041
1809.0,-11.841,-0.638,1.779,1.186,-0.771,-1.07
1813.0,-11.841,-0.638,1.779,1.186,-0.771,-1.07
1817.0,-12.025,-0.582,1.723,1.186,-0.771,-1.07
1821.0,-12.025,-0.582,1.723,1.181,-0.784,-1.103
1825.0,-12.025,-0.582,1.723,1.181,-0.784,-1.103
1830.0,-12.41,-0.549,1.615,1.162,-0.791,-1.131
1834.0,-12.41,-0.549,1.615,1.162,-0.791,-1.131
1838.0,-12.677,-0.593,1.563,1.134,-0.792,-1.147
1842.0,-12.677,-0.593,1.563,1.134,-0.792,-1.147
1846.0,-12.677,-0.593,1.563,1.134,-0.792,-1.147
1850.0,-12.836,-0.646,1.6,1.103,-0.798,-1.154
1854.0,-12.836,-0.646,1.6,1.103,-0.798,-1.154
1858.0,-13.003,-0.745,1.616,1.073,-0.803,-1.16
1862.0,-13.003,-0.745,1.616,1.073,-0.803,-1.16
1866.0,-13.003,-0.745,1.624,1.073,-0.803,-1.16
1870.0,-13.195,-0.818,1.624,1.048,-0.802,-1.16
1874.0,-13.195,-0.818,1.624,1.048,-0.802,-1.16
1878.0,-13.259,-0.858,1.643,1.024,-0.795,-1.154
1883.0,-13.259,-0.858,1.643,1.024,-0.795,-1.154
1887.0,-13.168,-0.919,1.665,1.024,-0.795,-1.147
1891.0,-13.168,-0.919,1.665,0.998,-0.789,-1.147
1895.0,-13.168,-0.919,1.665,0.998,-0.789,-1.147
1899.0,-13.147,-0.922,1.649,0.973,-0.781,-1.142
1903.0,-13.147,-0.922,1.649,0.973,-0.781,-1.142
1907.0,-13.238,-0.881,1.609,0.942,-0.766,-1.145
1911.0,-13.238,-0.881,1.609,0.942,-0.766,-1.145
1915.0,-13.238,-0.881,1.609,0.942,-0.766,-1.145
1919.0,-13.229,-0.834,1.577,0.907,-0.748,-1.153
1923.0,-13.229,-0.834,1.577,0.907,-0.748,-1.153
1927.0,-13.058,-0.79,1.593,0.868,-0.74,-1.171
1931.0,-13.058,-0.79,1.593,0.868,-0.74,-1.171
1936.0,-13.058,-0.793,1.616,0.868,-0.74,-1.171
1940.0,-12.991,-0.793,1.616,0.834,-0.747,-1.195
1944.0,-12.991,-0.793,1.616,0.834,-0.747,-1.195
1948.0,-13.009,-0.839,1.527,0.817,-0.758,-1.225
1952.0,-13.009,-0.839,1.527,0.817,-0.758,-1.225
1956.0,-12.893,-0.883,1.49,0.817,-0.77,-1.253
1960.0,-12.893,-0.883,1.49,0.818,-0.77,-1.253
1964.0,-12.893,-0.883,1.49,0.818,-0.77,-1.253
1968.0,-12.802,-0.904,1.49,0.834,-0.787,-1.277
1972.0,-12.802,-0.904,1.49,0.834,-0.787,-1.277
1976.0,-12.769,-0.897,1.459,0.857,-0.806,-1.302
1980.0,-12.769,-0.897,1.459,0.857,-0.806,-1.302
1985.0,-12.769,-0.897,1.459,0.857,-0.806,-1.302
1989.0,-12.558,-0.869,1.443,0.877,-0.825,-1.329
1993.0,-12.558,-0.869,1.443,0.877,-0.825,-1.329
1997.0,-12.188,-0.831,1.446,0.889,-0.845,-1.359
2001.0,-12.188,-0.831,1.446,0.889,-0.845,-1.359
2005.0,-11.823,-0.747,1.426,0.889,-0.845,-1.359
2009.0,-11.823,-0.747,1.426,0.886,-0.864,-1.393
2013.0,-11.823,-0.747,1.426,0.886,-0.864,-1.393
2017.0,-11.473,-0.642,1.335,0.866,-0.875,-1.43
2021.0,-11.473,-0.642,1.335,0.866,-0.875,-1.43
2025.0,-11.075,-0.581,1.286,0.83,-0.873,-1.47
2029.0,-11.075,-0.581,1.286,0.83,-0.873,-1.47
2033.0,-11.075,-0.581,1.286,0.83,-0.873,-1.47
2038.0,-10.759,-0.543,1.276,0.784,-0.865,-1.503
2042.0,-10.759,-0.543,1.276,0.784,-0.865,-1.503
2046.0,-10.647,-0.546,1.251,0.737,-0.849,-1.528
2050.0,-10.647,-0.546,1.251,0.737,-0.849,-1.528
2054.0,-10.647,-0.546,1.248,0.737,-0.849,-1.528
2058.0,-10.664,-0.586,1.248,0.691,-0.817,-1.543
2062.0,-10.664,-0.586,1.248,0.691,-0.817,-1.543
2066.0,-10.595,-0.637,1.301,0.645,-0.778,-1.545
2070.0,-10.595,-0.637,1.301,0.645,-0.778,-1.545
2074.0,-10.482,-0.712,1.361,0.645,-0.736,-1.535
2078.0,-10.482,-0.712,1.361,0.606,-0.736,-1.535
2082.0,-10.482,-0.712,1.361,0.606,-0.736,-1.535
2087.0,-10.414,-0.769,1.365,0.575,-0.692,-1.517
2091.0,-10.414,-0.769,1.365,0.575,-0.692,-1.517
2095.0,-10.286,-0.823,1.377,0.55,-0.645,-1.491
2099.0,-10.286,-0.823,1.377,0.55,-0.645,-1.491
2103.0,-10.286,-0.823,1.377,0.55,-0.645,-1.491
2107.0,-10.152,-0.843,1.433,0.53,-0.601,-1.462
2111.0,-10.152,-0.843,1.433,0.53,-0.601,-1.462
2115.0,-10.073,-0.82,1.508,0.511,-0.564,-1.435
2119.0,-10.073,-0.82,1.508,0.511,-0.564,-1.435
2123.0,-10.15,-0.762,1.586,0.511,-0.564,-1.435
2127.0,-10.15,-0.762,1.586,0.484,-0.534,-1.408
2131.0,-10.15,-0.762,1.586,0.484,-0.534,-1.408
2135.0,-10.235,-0.732,1.623,0.446,-0.514,-1.381
2140.0,-10.235,-0.732,1.623,0.446,-0.514,-1.381
2144.0,-10.278,-0.683,1.637,0.392,-0.501,-1.359
2148.0,-10.278,-0.683,1.637,0.392,-0.501,-1.359
2152.0,-10.278,-0.683,1.637,0.392,-0.501,-1.359
2156.0,-10.288,-0.614,1.619,0.324,-0.487,-1.344
2160.0,-10.288,-0.614,1.619,0.324,-0.487,-1.344
2164.0,-10.231,-0.568,1.58,0.237,-0.475,-1.335
2168.0,-10.231,-0.568,1.58,0.237,-0.475,-1.335
2172.0,-10.231,-0.568,1.6,0.237,-0.475,-1.335
2176.0,-10.14,-0.553,1.6,0.133,-0.464,-1.334
2180.0,-10.14,-0.553,1.6,0.133,-0.464,-1.334
2184.0,-10.123,-0.564,1.592,0.013,-0.455,-1.346
2189.0,-10.123,-0.564,1.592,0.013,-0.455,-1.346
2193.0,-10.097,-0.548,1.616,0.013,-0.455,-1.367
2197.0,-10.097,-0.548,1.616,-0.124,-0.451,-1.367
2201.0,-10.097,-0.548,1.616,-0.124,-0.451,-1.367
2205.0,-10.019,-0.53,1.623,-0.273,-0.451,-1.4
2209.0,-10.019,-0.53,1.623,-0.273,-0.451,-1.4
2213.0,-9.976,-0.498,1.649,-0.431,-0.446,-1.44
2217.0,-9.976,-0.498,1.649,-0.431,-0.446,-1.44
2222.0,-9.976,-0.498,1.655,-0.431,-0.446,-1.44
2226.0,-10.019,-0.537,1.655,-0.598,-0.44,-1.482
2230.0,-10.019,-0.537,1.655,-0.598,-0.44,-1.482
2234.0,-10.062,-0.692,1.715,-0.768,-0.434,-1.52
2238.0,-10.062,-0.692,1.715,-0.768,-0.434,-1.52
2242.0,-10.107,-0.885,1.841,-0.929,-0.434,-1.558
2246.0,-10.107,-0.885,1.841,-0.929,-0.434,-1.558
2251.0,-10.107,-0.885,1.841,-0.929,-0.434,-1.558
2255.0,-10.191,-1.077,1.955,-1.073,-0.439,-1.599
2259.0,-10.191,-1.077,1.955,-1.073,-0.439,-1.599
2263.0,-10.314,-1.244,2.084,-1.199,-0.446,-1.64
2267.0,-10.314,-1.244,2.084,-1.199,-0.446,-1.64
2271.0,-10.377,-1.406,2.204,-1.199,-0.446,-1.64
2276.0,-10.377,-1.406,2.204,-1.305,-0.462,-1.678
2280.0,-10.377,-1.406,2.204,-1.305,-0.462,-1.678
2284.0,-10.293,-1.555,2.284,-1.392,-0.49,-1.716
2288.0,-10.293,-1.555,2.284,-1.392,-0.49,-1.716
2292.0,-10.08,-1.633,2.267,-1.463,-0.522,-1.757
2296.0,-10.08,-1.633,2.267,-1.463,-0.522,-1.757
2301.0,-10.08,-1.633,2.231,-1.463,-0.522,-1.757
2305.0,-9.754,-1.677,2.231,-1.522,-0.547,-1.8
2309.0,-9.754,-1.677,2.231,-1.522,-0.547,-1.8
2313.0,-9.415,-1.676,2.198,-1.572,-0.557,-1.837
2317.0,-9.415,-1.676,2.198,-1.572,-0.557,-1.837
2321.0,-9.083,-1.67,2.18,-1.572,-0.55,-1.864
2325.0,-9.083,-1.67,2.18,-1.618,-0.55,-1.864
2329.0,-9.083,-1.67,2.18,-1.618,-0.55,-1.864
2333.0,-8.845,-1.644,2.195,-1.658,-0.528,-1.872
2337.0,-8.845,-1.644,2.195,-1.658,-0.528,-1.872
2341.0,-8.657,-1.657,2.275,-1.692,-0.501,-1.856
2346.0,-8.657,-1.657,2.275,-1.692,-0.501,-1.856
2350.0,-8.657,-1.657,2.275,-1.692,-0.501,-1.856
2354.0,-8.443,-1.694,2.386,-1.72,-0.477,-1.824
2358.0,-8.443,-1.694,2.386,-1.72,-0.477,-1.824
2362.0,-8.28,-1.75,2.465,-1.739,-0.458,-1.781
2366.0,-8.28,-1.75,2.465,-1.739,-0.458,-1.781
2370.0,-8.143,-1.806,2.505,-1.739,-0.458,-1.781
2374.0,-8.143,-1.806,2.505,-1.748,-0.442,-1.724
2378.0,-8.143,-1.806,2.505,-1.748,-0.442,-1.724
2382.0,-8.03,-1.897,2.532,-1.744,-0.422,-1.653
2386.0,-8.03,-1.897,2.532,-1.744,-0.422,-1.653
2390.0,-7.99,-2.021,2.609,-1.726,-0.405,-1.564
2395.0,-7.99,-2.021,2.609,-1.726,-0.405,-1.564
2399.0,-7.99,-2.021,2.609,-1.726,-0.405,-1.564
2403.0,-8.046,-2.155,2.68,-1.693,-0.398,-1.461
2407.0,-8.046,-2.155,2.68,-1.693,-0.398,-1.461
2411.0,-8.168,-2.262,2.756,-1.642,-0.404,-1.347
2415.0,-8.168,-2.262,2.756,-1.642,-0.404,-1.347
2419.0,-8.168,-2.262,2.809,-1.642,-0.404,-1.347
2423.0,-8.213,-2.336,2.809,-1.582,-0.414,-1.222
2427.0,-8.213,-2.336,2.809,-1.582,-0.414,-1.222
2431.0,-8.061,-2.404,2.867,-1.517,-0.429,-1.091
2435.0,-8.061,-2.404,2.867,-1.517,-0.429,-1.091
2439.0,-7.845,-2.383,2.935,-1.517,-0.429,-0.959
2443.0,-7.845,-2.383,2.935,-1.449,-0.447,-0.959
2448.0,-7.845,-2.383,2.935,-1.449,-0.447,-0.959
2452.0,-7.787,-2.277,3.018,-1.385,-0.466,-0.833
2456.0,-7.787,-2.277,3.018,-1.385,-0.466,-0.833
2460.0,-7.782,-2.128,3.014,-1.33,-0.481,-0.715
2464.0,-7.782,-2.128,3.014,-1.33,-0.481,-0.715
2468.0,-7.782,-2.128,3.014,-1.33,-0.481,-0.715
2472.0,-7.609,-1.94,2.979,-1.29,-0.496,-0.604
2476.0,-7.609,-1.94,2.979,-1.29,-0.496,-0.604
2480.0,-7.341,-1.725,2.944,-1.271,-0.512,-0.5
2484.0,-7.341,-1.725,2.944,-1.271,-0.512,-0.5
2488.0,-7.341,-1.501,2.901,-1.271,-0.512,-0.5
2492.0,-7.208,-1.501,2.901,-1.277,-0.515,-0.406
2497.0,-7.208,-1.501,2.901,-1.277,-0.515,-0.406
2501.0,-7.169,-1.357,2.793,-1.308,-0.503,-0.312
2505.0,-7.169,-1.357,2.793,-1.308,-0.503,-0.312
2509.0,-7.082,-1.305,2.676,-1.361,-0.477,-0.214
2513.0,-7.082,-1.305,2.676,-1.361,-0.477,-0.214
2517.0,-7.082,-1.305,2.676,-1.361,-0.477,-0.214
2521.0,-7.063,-1.283,2.633,-1.431,-0.441,-0.113
2525.0,-7.063,-1.283,2.633,-1.431,-0.441,-0.113
2529.0,-7.122,-1.286,2.632,-1.512,-0.399,-0.007
2533.0,-7.122,-1.286,2.632,-1.512,-0.399,-0.007
2537.0,-7.122,-1.286,2.632,-1.512,-0.399,-0.007
2541.0,-7.237,-1.353,2.62,-1.595,-0.352,0.103
2545.0,-7.237,-1.353,2.62,-1.595,-0.352,0.103
2549.0,-7.274,-1.446,2.584,-1.674,-0.306,0.22
2553.0,-7.274,-1.446,2.584,-1.674,-0.306,0.22
2557.0,-7.274,-1.528,2.539,-1.674,-0.306,0.22
2561.0,-7.336,-1.528,2.539,-1.744,-0.259,0.342
2565.0,-7.336,-1.528,2.539,-1.744,-0.259,0.342
2569.0,-7.487,-1.614,2.488,-1.807,-0.206,0.47
2573.0,-7.487,-1.614,2.488,-1.807,-0.206,0.47
2577.0,-7.631,-1.775,2.447,-1.807,-0.206,0.47
2581.0,-7.631,-1.775,2.447,-1.86,-0.153,0.606
2585.0,-7.631,-1.775,2.447,-1.86,-0.153,0.606
2589.0,-7.72,-1.949,2.435,-1.903,-0.108,0.737
2593.0,-7.72,-1.949,2.435,-1.903,-0.108,0.737
2597.0,-7.912,-2.05,2.401,-1.903,-0.108,0.856
2601.0,-7.912,-2.05,2.401,-1.935,-0.067,0.856
2605.0,-7.912,-2.05,2.401,-1.935,-0.067,0.856
2609.0,-8.318,-2.153,2.424,-1.962,-0.023,0.97
2613.0,-8.318,-2.153,2.424,-1.962,-0.023,0.97
2617.0,-8.771,-2.3,2.445,-1.962,0.018,1.091
2621.0,-8.771,-2.3,2.445,-1.987,0.018,1.091
2625.0,-8.771,-2.3,2.445,-1.987,0.018,1.091
2629.0,-9.156,-2.422,2.442,-2.007,0.047,1.216
2633.0,-9.156,-2.422,2.442,-2.007,0.047,1.216
2637.0,-9.511,-2.55,2.471,-2.007,0.047,1.343
2641.0,-9.511,-2.55,2.471,-2.025,0.066,1.343
2645.0,-9.511,-2.55,2.471,-2.025,0.066,1.343
2649.0,-9.838,-2.721,2.476,-2.039,0.077,1.466
2652.0,-9.838,-2.721,2.476,-2.039,0.077,1.466
2656.0,-10.119,-2.897,2.403,-2.039,0.077,1.466
2660.0,-10.119,-2.897,2.403,-2.052,0.081,1.576
2664.0,-10.119,-2.897,2.403,-2.052,0.081,1.576
2668.0,-10.289,-3.019,2.358,-2.066,0.078,1.664
2672.0,-10.289,-3.019,2.358,-2.066,0.078,1.664
2676.0,-10.366,-3.093,2.311,-2.066,0.078,1.727
2680.0,-10.366,-3.093,2.311,-2.082,0.065,1.727
2684.0,-10.366,-3.093,2.311,-2.082,0.065,1.727
2688.0,-10.388,-3.132,2.222,-2.099,0.048,1.768
2692.0,-10.388,-3.132,2.222,-2.099,0.048,1.768
2696.0,-10.43,-3.14,2.093,-2.099,0.03,1.795
2700.0,-10.43,-3.14,2.093,-2.119,0.03,1.795
2704.0,-10.43,-3.14,2.093,-2.119,0.03,1.795
2708.0,-10.462,-3.126,1.959,-2.141,0.019,1.816
2712.0,-10.462,-3.126,1.959,-2.141,0.019,1.816
2716.0,-10.394,-3.138,1.875,-2.163,0.014,1.84
2720.0,-10.394,-3.138,1.875,-2.163,0.014,1.84
2724.0,-10.394,-3.138,1.875,-2.163,0.014,1.84
2728.0,-10.37,-3.155,1.862,-2.182,0.01,1.866
2732.0,-10.37,-3.155,1.862,-2.182,0.01,1.866
2736.0,-10.457,-3.183,1.842,-2.195,0.011,1.886
2740.0,-10.457,-3.183,1.842,-2.195,0.011,1.886
2744.0,-10.457,-3.183,1.842,-2.195,0.011,1.886
2748.0,-10.545,-3.222,1.806,-2.204,0.01,1.911
2752.0,-10.545,-3.222,1.806,-2.204,0.01,1.911
2756.0,-10.582,-3.242,1.832,-2.21,0.007,1.94
2760.0,-10.582,-3.242,1.832,-2.21,0.007,1.94
2764.0,-10.582,-3.242,1.832,-2.21,0.007,1.94
2768.0,-10.508,-3.279,1.866,-2.216,-0.004,1.973
2772.0,-10.508,-3.279,1.866,-2.216,-0.004,1.973
2776.0,-10.374,-3.311,1.865,-2.218,-0.022,2.003
2780.0,-10.374,-3.311,1.865,-2.218,-0.022,2.003
2784.0,-10.374,-3.291,1.802,-2.218,-0.022,2.003
2789.0,-10.238,-3.291,1.802,-2.219,-0.041,2.029
2793.0,-10.238,-3.291,1.802,-2.219,-0.041,2.029
2797.0,-10.272,-3.248,1.732,-2.221,-0.053,2.055
2801.0,-10.272,-3.248,1.732,-2.221,-0.053,2.055
2805.0,-10.372,-3.207,1.671,-2.221,-0.061,2.084
2809.0,-10.372,-3.207,1.671,-2.225,-0.061,2.084
2813.0,-10.372,-3.207,1.671,-2.225,-0.061,2.084
2817.0,-10.319,-3.209,1.598,-2.228,-0.073,2.119
2821.0,-10.319,-3.209,1.598,-2.228,-0.073,2.119
2825.0,-10.361,-3.178,1.49,-2.233,-0.081,2.152
2829.0,-10.361,-3.178,1.49,-2.233,-0.081,2.152
2833.0,-10.361,-3.178,1.49,-2.233,-0.081,2.152
2837.0,-10.529,-3.162,1.449,-2.241,-0.077,2.181
2842.0,-10.529,-3.162,1.449,-2.241,-0.077,2.181
2846.0,-10.619,-3.164,1.461,-2.25,-0.077,2.208
2850.0,-10.619,-3.164,1.461,-2.25,-0.077,2.208
2854.0,-10.868,-3.106,1.455,-2.25,-0.077,2.208
2858.0,-10.868,-3.106,1.455,-2.26,-0.082,2.223
2862.0,-10.868,-3.106,1.455,-2.26,-0.082,2.223
2866.0,-11.153,-3.043,1.411,-2.271,-0.084,2.223
2870.0,-11.153,-3.043,1.411,-2.271,-0.084,2.223
2874.0,-11.166,-3.002,1.363,-2.281,-0.091,2.212
2878.0,-11.166,-3.002,1.363,-2.281,-0.091,2.212
2882.0,-11.166,-3.002,1.363,-2.281,-0.091,2.212
2886.0,-10.866,-2.939,1.372,-2.285,-0.106,2.187
2891.0,-10.866,-2.939,1.372,-2.285,-0.106,2.187
2895.0,-10.529,-2.87,1.415,-2.278,-0.127,2.139
2899.0,-10.529,-2.87,1.415,-2.278,-0.127,2.139
2903.0,-10.529,-2.87,1.493,-2.278,-0.127,2.139
2907.0,-10.506,-2.704,1.493,-2.26,-0.147,2.065
2911.0,-10.506,-2.704,1.493,-2.26,-0.147,2.065
2915.0,-10.603,-2.526,1.532,-2.234,-0.169,1.974
2919.0,-10.603,-2.526,1.532,-2.234,-0.169,1.974
2923.0,-10.564,-2.338,1.557,-2.234,-0.203,1.882
2927.0,-10.564,-2.338,1.557,-2.206,-0.203,1.882
2931.0,-10.564,-2.338,1.557,-2.206,-0.203,1.882
2935.0,-10.408,-2.18,1.551,-2.177,-0.241,1.795
2939.0,-10.408,-2.18,1.551,-2.177,-0.241,1.795
2944.0,-10.315,-2.062,1.487,-2.146,-0.269,1.713
2948.0,-10.315,-2.062,1.487,-2.146,-0.269,1.713
2952.0,-10.315,-2.062,1.487,-2.146,-0.269,1.713
2956.0,-10.487,-1.996,1.347,-2.114,-0.276,1.64
2960.0,-10.487,-1.996,1.347,-2.114,-0.276,1.64
2964.0,-10.722,-1.974,1.309,-2.086,-0.266,1.585
2968.0,-10.722,-1.974,1.309,-2.086,-0.266,1.585
2972.0,-10.812,-2.012,1.349,-2.086,-0.266,1.585
2976.0,-10.812,-2.012,1.349,-2.059,-0.254,1.549
2980.0,-10.812,-2.012,1.349,-2.059,-0.254,1.549
2984.0,-10.819,-2.089,1.376,-2.034,-0.241,1.523
2988.0,-10.819,-2.089,1.376,-2.034,-0.241,1.523
2993.0,-10.915,-2.144,1.375,-2.008,-0.215,1.501
2997.0,-10.915,-2.144,1.375,-2.008,-0.215,1.501
