deltaTime,Acc_X,Acc_Y,Acc_Z,Gyro_X,Gyro_Y,Gyro_Z
0.0,-3.083,-4.799,2.183,0.292,0.702,0.051
3.0,-3.083,-4.799,2.183,0.292,0.702,0.051
6.0,-3.529,-4.935,2.118,0.238,0.714,0.005
9.0,-3.529,-4.935,2.118,0.238,0.714,0.005
12.0,-3.529,-4.935,2.118,0.238,0.714,0.005
15.0,-4.311,-5.085,2.021,0.176,0.736,-0.031
18.0,-4.311,-5.085,2.021,0.176,0.736,-0.031
21.0,-4.311,-5.085,2.021,0.176,0.736,-0.031
24.0,-5.243,-5.542,2.054,0.176,0.736,-0.027
27.0,-5.243,-5.542,2.054,0.125,0.77,-0.027
30.0,-5.243,-5.542,2.054,0.125,0.77,-0.027
33.0,-5.243,-5.542,2.054,0.125,0.77,-0.027
36.0,-6.36,-5.989,1.948,0.129,0.805,0.02
39.0,-6.36,-5.989,1.948,0.129,0.805,0.02
43.0,-6.36,-5.989,1.948,0.129,0.805,0.02
46.0,-7.731,-6.118,1.79,0.168,0.83,0.083
50.0,-7.731,-6.118,1.79,0.168,0.83,0.083
54.0,-9.108,-6.063,1.576,0.168,0.881,0.165
57.0,-9.108,-6.063,1.576,0.189,0.881,0.165
61.0,-9.108,-6.063,1.576,0.189,0.881,0.165
65.0,-10.519,-5.944,1.441,0.157,0.981,0.281
68.0,-10.519,-5.944,1.441,0.157,0.981,0.281
72.0,-10.519,-5.944,1.441,0.157,0.981,0.281
76.0,-12.484,-6.059,1.708,0.063,1.143,0.445
80.0,-12.484,-6.059,1.708,0.063,1.143,0.445
83.0,-14.774,-6.581,2.454,0.063,1.318,0.663
87.0,-14.774,-6.581,2.454,-0.047,1.318,0.663
91.0,-14.774,-6.581,2.454,-0.047,1.318,0.663
95.0,-16.55,-7.232,3.455,-0.106,1.45,0.921
99.0,-16.55,-7.232,3.455,-0.106,1.45,0.921
102.0,-16.55,-7.656,4.383,-0.106,1.45,0.921
106.0,-17.029,-7.656,4.383,-0.101,1.488,1.164
110.0,-17.029,-7.656,4.383,-0.101,1.488,1.164
114.0,-16.781,-7.996,4.931,-0.061,1.482,1.348
118.0,-16.781,-7.996,4.931,-0.061,1.482,1.348
122.0,-16.781,-7.996,4.825,-0.061,1.482,1.348
126.0,-16.702,-7.812,4.825,0.004,1.49,1.475
130.0,-16.702,-7.812,4.825,0.004,1.49,1.475
133.0,-17.037,-7.211,4.486,0.016,1.568,1.551
137.0,-17.037,-7.211,4.486,0.016,1.568,1.551
141.0,-17.037,-7.211,4.486,0.016,1.568,1.551
145.0,-17.559,-6.669,4.089,-0.017,1.657,1.614
149.0,-17.559,-6.669,4.089,-0.017,1.657,1.614
153.0,-17.697,-6.095,3.833,-0.077,1.672,1.672
157.0,-17.697,-6.095,3.833,-0.077,1.672,1.672
161.0,-17.697,-6.095,3.833,-0.077,1.672,1.672
164.0,-17.222,-5.469,3.779,-0.154,1.656,1.709
168.0,-17.222,-5.469,3.779,-0.154,1.656,1.709
172.0,-17.286,-5.089,3.767,-0.197,1.583,1.717
176.0,-17.286,-5.089,3.767,-0.197,1.583,1.717
180.0,-17.286,-5.089,3.767,-0.197,1.583,1.717
184.0,-16.871,-4.363,3.687,-0.186,1.397,1.695
188.0,-16.871,-4.363,3.687,-0.186,1.397,1.695
192.0,-15.577,-3.917,3.343,-0.186,1.397,1.566
196.0,-15.577,-3.917,3.343,-0.16,1.14,1.566
200.0,-15.577,-3.917,3.343,-0.16,1.14,1.566
204.0,-14.247,-3.501,3.024,-0.102,0.878,1.384
207.0,-14.247,-3.501,3.024,-0.102,0.878,1.384
211.0,-13.199,-3.187,2.724,-0.102,0.878,1.384
215.0,-13.199,-3.187,2.724,-0.028,0.657,1.217
219.0,-13.199,-3.187,2.724,-0.028,0.657,1.217
223.0,-12.337,-3.035,2.408,0.048,0.455,1.085
227.0,-12.337,-3.035,2.408,0.048,0.455,1.085
231.0,-12.337,-3.035,2.076,0.048,0.455,1.085
235.0,-11.447,-2.945,2.076,0.134,0.251,0.968
238.0,-11.447,-2.945,2.076,0.134,0.251,0.968
242.0,-10.674,-2.898,1.788,0.233,0.064,0.855
246.0,-10.674,-2.898,1.788,0.233,0.064,0.855
250.0,-10.674,-2.898,1.788,0.233,0.064,0.855
254.0,-10.415,-2.847,1.406,0.343,-0.079,0.745
258.0,-10.415,-2.847,1.406,0.343,-0.079,0.745
261.0,-10.795,-2.72,0.899,0.45,-0.172,0.637
265.0,-10.795,-2.72,0.899,0.45,-0.172,0.637
269.0,-10.795,-2.72,0.899,0.45,-0.172,0.637
273.0,-11.511,-2.562,0.517,0.535,-0.219,0.556
277.0,-11.511,-2.562,0.517,0.535,-0.219,0.556
281.0,-12.298,-2.475,0.379,0.586,-0.235,0.521
285.0,-12.298,-2.475,0.379,0.586,-0.235,0.521
289.0,-12.298,-2.475,0.379,0.586,-0.235,0.521
293.0,-13.026,-2.414,0.479,0.609,-0.242,0.532
297.0,-13.026,-2.414,0.479,0.609,-0.242,0.532
300.0,-13.481,-2.356,0.705,0.609,-0.266,0.581
304.0,-13.481,-2.356,0.705,0.609,-0.266,0.581
308.0,-13.481,-2.356,0.705,0.609,-0.266,0.581
312.0,-13.533,-2.295,0.954,0.586,-0.328,0.652
316.0,-13.533,-2.295,0.954,0.586,-0.328,0.652
320.0,-13.086,-2.227,1.172,0.586,-0.328,0.719
324.0,-13.086,-2.227,1.172,0.542,-0.425,0.719
328.0,-13.086,-2.227,1.172,0.542,-0.425,0.719
332.0,-12.299,-2.128,1.356,0.481,-0.54,0.751
336.0,-12.299,-2.128,1.356,0.481,-0.54,0.751
340.0,-11.473,-1.93,1.449,0.481,-0.54,0.751
343.0,-11.473,-1.93,1.449,0.409,-0.66,0.738
347.0,-11.473,-1.93,1.449,0.409,-0.66,0.738
351.0,-10.664,-1.656,1.42,0.328,-0.773,0.685
355.0,-10.664,-1.656,1.42,0.328,-0.773,0.685
359.0,-10.664,-1.333,1.294,0.328,-0.773,0.685
363.0,-9.909,-1.333,1.294,0.231,-0.868,0.609
367.0,-9.909,-1.333,1.294,0.231,-0.868,0.609
371.0,-9.173,-0.975,1.177,0.118,-0.944,0.52
374.0,-9.173,-0.975,1.177,0.118,-0.944,0.52
378.0,-9.173,-0.975,1.177,0.118,-0.944,0.52
382.0,-8.478,-0.62,1.055,-0.006,-1.008,0.426
386.0,-8.478,-0.62,1.055,-0.006,-1.008,0.426
390.0,-7.838,-0.334,0.949,-0.14,-1.064,0.332
394.0,-7.838,-0.334,0.949,-0.14,-1.064,0.332
398.0,-7.838,-0.334,0.949,-0.14,-1.064,0.332
402.0,-7.242,-0.122,0.827,-0.28,-1.111,0.237
406.0,-7.242,-0.122,0.827,-0.28,-1.111,0.237
409.0,-6.683,-0.017,0.711,-0.422,-1.147,0.14
413.0,-6.683,-0.017,0.711,-0.422,-1.147,0.14
417.0,-6.683,-0.017,0.711,-0.422,-1.147,0.14
421.0,-6.17,0.069,0.654,-0.562,-1.172,0.039
425.0,-6.17,0.069,0.654,-0.562,-1.172,0.039
429.0,-5.707,0.155,0.681,-0.562,-1.19,-0.062
433.0,-5.707,0.155,0.681,-0.698,-1.19,-0.062
437.0,-5.707,0.155,0.681,-0.698,-1.19,-0.062
441.0,-5.319,0.231,0.763,-0.83,-1.203,-0.158
444.0,-5.319,0.231,0.763,-0.83,-1.203,-0.158
448.0,-5.008,0.312,0.913,-0.83,-1.203,-0.243
452.0,-5.008,0.312,0.913,-0.953,-1.219,-0.243
456.0,-5.008,0.312,0.913,-0.953,-1.219,-0.243
460.0,-4.789,0.421,1.113,-1.067,-1.243,-0.312
464.0,-4.789,0.421,1.113,-1.067,-1.243,-0.312
468.0,-4.658,0.532,1.263,-1.067,-1.243,-0.312
472.0,-4.658,0.532,1.263,-1.172,-1.28,-0.358
476.0,-4.658,0.532,1.263,-1.172,-1.28,-0.358
480.0,-4.504,0.619,1.294,-1.267,-1.328,-0.379
483.0,-4.504,0.619,1.294,-1.267,-1.328,-0.379
487.0,-4.504,0.619,1.228,-1.267,-1.328,-0.379
491.0,-4.275,0.703,1.228,-1.35,-1.381,-0.373
495.0,-4.275,0.703,1.228,-1.35,-1.381,-0.373
499.0,-3.933,0.766,1.12,-1.424,-1.429,-0.344
503.0,-3.933,0.766,1.12,-1.424,-1.429,-0.344
507.0,-3.933,0.766,1.12,-1.424,-1.429,-0.344
511.0,-3.555,0.811,1.017,-1.495,-1.468,-0.304
515.0,-3.555,0.811,1.017,-1.495,-1.468,-0.304
519.0,-3.178,0.814,0.963,-1.562,-1.494,-0.26
523.0,-3.178,0.814,0.963,-1.562,-1.494,-0.26
526.0,-3.178,0.814,0.963,-1.562,-1.494,-0.26
530.0,-2.773,0.781,0.967,-1.626,-1.51,-0.219
534.0,-2.773,0.781,0.967,-1.626,-1.51,-0.219
538.0,-2.383,0.724,0.974,-1.688,-1.517,-0.197
542.0,-2.383,0.724,0.974,-1.688,-1.517,-0.197
546.0,-2.383,0.724,0.974,-1.688,-1.517,-0.197
550.0,-2.045,0.647,0.973,-1.755,-1.517,-0.195
554.0,-2.045,0.647,0.973,-1.755,-1.517,-0.195
558.0,-1.79,0.561,1.016,-1.827,-1.509,-0.215
562.0,-1.79,0.561,1.016,-1.827,-1.509,-0.215
566.0,-1.79,0.561,1.016,-1.827,-1.509,-0.215
569.0,-1.658,0.501,1.119,-1.901,-1.502,-0.259
573.0,-1.658,0.501,1.119,-1.901,-1.502,-0.259
577.0,-1.605,0.389,1.209,-1.97,-1.496,-0.33
581.0,-1.605,0.389,1.209,-1.97,-1.496,-0.33
585.0,-1.605,0.389,1.209,-1.97,-1.496,-0.33
589.0,-1.6,0.318,1.274,-2.019,-1.484,-0.432
593.0,-1.6,0.318,1.274,-2.019,-1.484,-0.432
597.0,-1.633,0.284,1.362,-2.045,-1.464,-0.559
601.0,-1.633,0.284,1.362,-2.045,-1.464,-0.559
605.0,-1.633,0.284,1.362,-2.045,-1.464,-0.559
608.0,-1.851,0.279,1.465,-2.049,-1.427,-0.696
612.0,-1.851,0.279,1.465,-2.049,-1.427,-0.696
616.0,-2.262,0.295,1.576,-2.049,-1.427,-0.82
620.0,-2.262,0.295,1.576,-2.029,-1.364,-0.82
624.0,-2.262,0.295,1.576,-2.029,-1.364,-0.82
628.0,-2.751,0.278,1.654,-1.988,-1.268,-0.916
632.0,-2.751,0.278,1.654,-1.988,-1.268,-0.916
636.0,-3.389,0.208,1.773,-1.988,-1.268,-0.916
640.0,-3.389,0.208,1.773,-1.93,-1.127,-0.982
644.0,-3.389,0.208,1.773,-1.93,-1.127,-0.982
648.0,-4.183,0.071,2.049,-1.846,-0.931,-1.012
651.0,-4.183,0.071,2.049,-1.846,-0.931,-1.012
655.0,-5.32,-0.013,2.459,-1.846,-0.931,-1.012
659.0,-5.32,-0.013,2.459,-1.726,-0.687,-1.008
663.0,-5.32,-0.013,2.459,-1.726,-0.687,-1.008
667.0,-7.031,-0.135,2.893,-1.57,-0.404,-0.965
671.0,-7.031,-0.135,2.893,-1.57,-0.404,-0.965
675.0,-9.406,-0.424,3.31,-1.57,-0.404,-0.965
679.0,-9.406,-0.424,3.31,-1.371,-0.098,-0.86
683.0,-9.406,-0.424,3.31,-1.371,-0.098,-0.86
687.0,-12.191,-0.837,3.709,-1.131,0.207,-0.691
691.0,-12.191,-0.837,3.709,-1.131,0.207,-0.691
695.0,-14.822,-1.144,4.074,-1.131,0.476,-0.453
699.0,-14.822,-1.144,4.074,-0.873,0.476,-0.453
703.0,-14.822,-1.144,4.074,-0.873,0.476,-0.453
707.0,-16.552,-1.231,4.505,-0.648,0.688,-0.12
711.0,-16.552,-1.231,4.505,-0.648,0.688,-0.12
715.0,-17.179,-1.462,5.031,-0.489,0.862,0.31
719.0,-17.179,-1.462,5.031,-0.489,0.862,0.31
723.0,-17.179,-1.462,5.031,-0.489,0.862,0.31
727.0,-17.118,-1.824,5.575,-0.389,1.051,0.78
731.0,-17.118,-1.824,5.575,-0.389,1.051,0.78
735.0,-17.066,-2.161,6.126,-0.389,1.277,1.224
739.0,-17.066,-2.161,6.126,-0.314,1.277,1.224
743.0,-17.066,-2.161,6.126,-0.314,1.277,1.224
746.0,-17.411,-2.359,6.532,-0.238,1.498,1.58
750.0,-17.411,-2.359,6.532,-0.238,1.498,1.58
754.0,-17.824,-2.298,6.485,-0.238,1.498,1.58
758.0,-17.824,-2.298,6.485,-0.164,1.659,1.824
762.0,-17.824,-2.298,6.485,-0.164,1.659,1.824
766.0,-17.831,-2.036,6.02,-0.104,1.763,1.985
770.0,-17.831,-2.036,6.02,-0.104,1.763,1.985
774.0,-17.357,-1.649,5.388,-0.104,1.763,1.985
778.0,-17.357,-1.649,5.388,-0.064,1.836,2.088
782.0,-17.357,-1.649,5.388,-0.064,1.836,2.088
786.0,-16.686,-1.244,4.732,-0.038,1.901,2.144
789.0,-16.686,-1.244,4.732,-0.038,1.901,2.144
793.0,-16.686,-1.244,4.0,-0.038,1.901,2.144
797.0,-16.031,-0.889,4.0,-0.014,1.955,2.157
801.0,-16.031,-0.889,4.0,-0.014,1.955,2.157
805.0,-15.543,-0.578,3.179,0.024,1.983,2.135
809.0,-15.543,-0.578,3.179,0.024,1.983,2.135
813.0,-15.543,-0.578,3.179,0.024,1.983,2.135
817.0,-15.215,-0.412,2.39,0.074,1.978,2.092
820.0,-15.215,-0.412,2.39,0.074,1.978,2.092
824.0,-14.929,-0.362,1.78,0.137,1.938,2.038
828.0,-14.929,-0.362,1.78,0.137,1.938,2.038
832.0,-14.929,-0.362,1.78,0.137,1.938,2.038
836.0,-14.57,-0.397,1.477,0.211,1.878,1.991
839.0,-14.57,-0.397,1.477,0.211,1.878,1.991
843.0,-14.036,-0.525,1.612,0.211,1.878,1.966
847.0,-14.036,-0.525,1.612,0.296,1.814,1.966
851.0,-14.036,-0.525,1.612,0.296,1.814,1.966
855.0,-13.453,-0.816,1.937,0.39,1.743,1.969
859.0,-13.453,-0.816,1.937,0.39,1.743,1.969
862.0,-13.453,-0.816,2.009,0.39,1.743,1.969
866.0,-13.199,-1.189,2.009,0.491,1.658,1.995
870.0,-13.199,-1.189,2.009,0.491,1.658,1.995
874.0,-13.527,-1.513,1.793,0.587,1.577,2.031
878.0,-13.527,-1.513,1.793,0.587,1.577,2.031
881.0,-13.527,-1.513,1.793,0.587,1.577,2.031
885.0,-14.198,-1.794,1.603,0.659,1.51,2.072
889.0,-14.198,-1.794,1.603,0.659,1.51,2.072
893.0,-14.939,-2.006,1.694,0.693,1.445,2.112
897.0,-14.939,-2.006,1.694,0.693,1.445,2.112
901.0,-14.939,-2.006,1.694,0.693,1.445,2.112
904.0,-15.574,-2.19,2.132,0.682,1.364,2.147
908.0,-15.574,-2.19,2.132,0.682,1.364,2.147
912.0,-15.951,-2.416,2.761,0.682,1.364,2.147
916.0,-15.951,-2.416,2.761,0.639,1.241,2.177
920.0,-15.951,-2.416,2.761,0.639,1.241,2.177
923.0,-15.974,-2.642,3.199,0.577,1.044,2.192
927.0,-15.974,-2.642,3.199,0.577,1.044,2.192
931.0,-15.974,-2.642,3.199,0.577,1.044,2.192
935.0,-15.549,-2.777,3.152,0.507,0.774,2.173
939.0,-15.549,-2.777,3.152,0.507,0.774,2.173
943.0,-14.734,-2.678,2.67,0.43,0.473,2.11
946.0,-14.734,-2.678,2.67,0.43,0.473,2.11
950.0,-14.734,-2.678,2.67,0.43,0.473,2.11
954.0,-13.733,-2.355,2.067,0.335,0.205,2.008
958.0,-13.733,-2.355,2.067,0.335,0.205,2.008
962.0,-12.738,-1.993,1.519,0.335,0.205,1.897
965.0,-12.738,-1.993,1.519,0.212,-0.0,1.897
969.0,-12.738,-1.993,1.519,0.212,-0.0,1.897
973.0,-11.843,-1.671,1.088,0.057,-0.143,1.797
977.0,-11.843,-1.671,1.088,0.057,-0.143,1.797
981.0,-11.125,-1.501,0.724,0.057,-0.143,1.797
985.0,-11.125,-1.501,0.724,-0.132,-0.235,1.725
989.0,-11.125,-1.501,0.724,-0.132,-0.235,1.725
993.0,-10.49,-1.406,0.353,-0.345,-0.301,1.671
997.0,-10.49,-1.406,0.353,-0.345,-0.301,1.671
1001.0,-9.829,-1.414,0.065,-0.345,-0.301,1.671
1005.0,-9.829,-1.414,0.065,-0.584,-0.344,1.626
1009.0,-9.829,-1.414,0.065,-0.584,-0.344,1.626
1013.0,-9.093,-1.507,-0.123,-0.842,-0.36,1.576
1017.0,-9.093,-1.507,-0.123,-0.842,-0.36,1.576
1021.0,-8.319,-1.606,-0.187,-0.842,-0.352,1.502
1025.0,-8.319,-1.606,-0.187,-1.118,-0.352,1.502
1029.0,-8.319,-1.606,-0.187,-1.118,-0.352,1.502
1033.0,-7.541,-1.694,-0.133,-1.406,-0.331,1.393
1037.0,-7.541,-1.694,-0.133,-1.406,-0.331,1.393
1042.0,-6.851,-1.741,0.007,-1.7,-0.303,1.245
1046.0,-6.851,-1.741,0.007,-1.7,-0.303,1.245
1050.0,-6.851,-1.741,0.007,-1.7,-0.303,1.245
1054.0,-6.286,-1.791,0.221,-1.991,-0.277,1.064
1058.0,-6.286,-1.791,0.221,-1.991,-0.277,1.064
1062.0,-5.938,-1.86,0.391,-2.265,-0.261,0.86
1065.0,-5.938,-1.86,0.391,-2.265,-0.261,0.86
1069.0,-5.938,-1.86,0.391,-2.265,-0.261,0.86
1073.0,-5.697,-1.979,0.417,-2.516,-0.259,0.651
1077.0,-5.697,-1.979,0.417,-2.516,-0.259,0.651
1081.0,-5.535,-2.1,0.307,-2.728,-0.266,0.45
1085.0,-5.535,-2.1,0.307,-2.728,-0.266,0.45
1089.0,-5.535,-2.1,0.096,-2.728,-0.266,0.45
1093.0,-5.365,-2.225,0.096,-2.898,-0.266,0.269
1097.0,-5.365,-2.225,0.096,-2.898,-0.266,0.269
1101.0,-5.154,-2.396,-0.138,-3.022,-0.249,0.118
1106.0,-5.154,-2.396,-0.138,-3.022,-0.249,0.118
1110.0,-4.881,-2.597,-0.321,-3.022,-0.249,0.118
1114.0,-4.881,-2.597,-0.321,-3.095,-0.216,-0.0
1118.0,-4.881,-2.597,-0.321,-3.095,-0.216,-0.0
1122.0,-4.589,-2.807,-0.442,-3.113,-0.167,-0.085
1126.0,-4.589,-2.807,-0.442,-3.113,-0.167,-0.085
1130.0,-4.358,-3.028,-0.525,-3.074,-0.108,-0.145
1135.0,-4.358,-3.028,-0.525,-3.074,-0.108,-0.145
1139.0,-4.358,-3.028,-0.525,-3.074,-0.108,-0.145
1143.0,-4.208,-3.266,-0.543,-2.976,-0.043,-0.19
1147.0,-4.208,-3.266,-0.543,-2.976,-0.043,-0.19
1151.0,-4.173,-3.498,-0.497,-2.819,0.026,-0.224
1155.0,-4.173,-3.498,-0.497,-2.819,0.026,-0.224
1159.0,-4.245,-3.733,-0.355,-2.819,0.095,-0.252
1163.0,-4.245,-3.733,-0.355,-2.599,0.095,-0.252
1167.0,-4.245,-3.733,-0.355,-2.599,0.095,-0.252
1172.0,-4.39,-3.968,-0.132,-2.317,0.156,-0.269
1176.0,-4.39,-3.968,-0.132,-2.317,0.156,-0.269
1180.0,-4.572,-4.189,0.125,-1.971,0.203,-0.275
1184.0,-4.572,-4.189,0.125,-1.971,0.203,-0.275
1188.0,-4.572,-4.189,0.125,-1.971,0.203,-0.275
1192.0,-4.707,-4.376,0.36,-1.566,0.233,-0.273
1196.0,-4.707,-4.376,0.36,-1.566,0.233,-0.273
1200.0,-4.756,-4.555,0.54,-1.108,0.249,-0.268
1204.0,-4.756,-4.555,0.54,-1.108,0.249,-0.268
1208.0,-4.756,-4.555,0.54,-1.108,0.249,-0.268
1212.0,-4.702,-4.647,0.659,-0.608,0.255,-0.264
1216.0,-4.702,-4.647,0.659,-0.608,0.255,-0.264
1220.0,-4.546,-4.69,0.707,-0.077,0.257,-0.262
1224.0,-4.546,-4.69,0.707,-0.077,0.257,-0.262
1228.0,-4.546,-4.69,0.706,-0.077,0.257,-0.262
1232.0,-4.333,-4.676,0.706,0.472,0.26,-0.263
1236.0,-4.333,-4.676,0.706,0.472,0.26,-0.263
1239.0,-4.128,-4.61,0.693,1.034,0.267,-0.27
1243.0,-4.128,-4.61,0.693,1.034,0.267,-0.27
1247.0,-4.128,-4.61,0.693,1.034,0.267,-0.27
1251.0,-3.989,-4.482,0.642,1.594,0.272,-0.282
1255.0,-3.989,-4.482,0.642,1.594,0.272,-0.282
1259.0,-4.023,-4.284,0.538,2.138,0.273,-0.295
1263.0,-4.023,-4.284,0.538,2.138,0.273,-0.295
1267.0,-4.023,-4.284,0.538,2.138,0.273,-0.295
1271.0,-4.268,-4.049,0.405,2.646,0.264,-0.305
1275.0,-4.268,-4.049,0.405,2.646,0.264,-0.305
1279.0,-4.841,-3.869,0.38,3.109,0.242,-0.308
1282.0,-4.841,-3.869,0.38,3.109,0.242,-0.308
1286.0,-4.841,-3.869,0.38,3.109,0.242,-0.308
1290.0,-5.793,-3.711,0.346,3.523,0.204,-0.308
1294.0,-5.793,-3.711,0.346,3.523,0.204,-0.308
1298.0,-7.278,-3.586,0.354,3.883,0.152,-0.313
1302.0,-7.278,-3.586,0.354,3.883,0.152,-0.313
1306.0,-7.278,-3.586,0.354,3.883,0.152,-0.313
1310.0,-9.366,-3.476,0.23,4.189,0.09,-0.327
1314.0,-9.366,-3.476,0.23,4.189,0.09,-0.327
1318.0,-12.217,-3.44,-0.289,4.44,0.021,-0.37
1322.0,-12.217,-3.44,-0.289,4.44,0.021,-0.37
1326.0,-12.217,-3.44,-0.289,4.44,0.021,-0.37
1330.0,-16.302,-3.392,-1.443,4.633,-0.04,-0.451
1334.0,-16.302,-3.392,-1.443,4.633,-0.04,-0.451
1338.0,-19.51,-2.851,-2.406,4.748,-0.088,-0.565
1342.0,-19.51,-2.851,-2.406,4.748,-0.088,-0.565
1346.0,-19.6,-1.759,-2.845,4.748,-0.088,-0.565
1351.0,-19.6,-1.759,-2.845,4.742,-0.216,-0.658
1355.0,-19.6,-1.759,-2.845,4.742,-0.216,-0.658
1359.0,-19.6,-0.694,-2.8,4.596,-0.417,-0.705
1363.0,-19.6,-0.694,-2.8,4.596,-0.417,-0.705
1367.0,-19.6,-0.759,-2.744,4.33,-0.501,-0.774
1371.0,-19.6,-0.759,-2.744,4.33,-0.501,-0.774
1376.0,-19.6,-0.759,-2.761,4.33,-0.501,-0.774
1380.0,-19.6,0.027,-2.761,4.163,-0.81,-0.928
1384.0,-19.6,0.027,-2.761,4.163,-0.81,-0.928
1388.0,-19.6,0.7,-2.445,3.937,-0.971,-1.085
1392.0,-19.6,0.7,-2.445,3.937,-0.971,-1.085
1396.0,-19.6,1.394,-1.968,3.937,-1.101,-1.238
1400.0,-19.6,1.394,-1.968,3.661,-1.101,-1.238
1404.0,-19.6,1.394,-1.968,3.661,-1.101,-1.238
1408.0,-19.6,1.958,-1.566,3.331,-1.257,-1.375
1412.0,-19.6,1.958,-1.566,3.331,-1.257,-1.375
1417.0,-19.6,2.36,-1.2,2.936,-1.433,-1.487
1421.0,-19.6,2.36,-1.2,2.936,-1.433,-1.487
1425.0,-19.6,2.36,-1.2,2.936,-1.433,-1.487
1429.0,-19.6,2.597,-0.862,2.477,-1.612,-1.566
1433.0,-19.6,2.597,-0.862,2.477,-1.612,-1.566
1437.0,-19.6,2.667,-0.644,1.958,-1.771,-1.607
1441.0,-19.6,2.667,-0.644,1.958,-1.771,-1.607
1445.0,-19.058,2.671,-0.485,1.958,-1.771,-1.607
1449.0,-19.058,2.671,-0.485,1.4,-1.889,-1.618
1453.0,-19.058,2.671,-0.485,1.4,-1.889,-1.618
1457.0,-16.604,2.548,-0.286,0.833,-1.965,-1.6
1461.0,-16.604,2.548,-0.286,0.833,-1.965,-1.6
1465.0,-14.068,2.406,-0.044,0.288,-2.005,-1.568
1470.0,-14.068,2.406,-0.044,0.288,-2.005,-1.568
1474.0,-14.068,2.406,-0.044,0.288,-2.005,-1.568
1478.0,-11.884,2.248,0.163,-0.21,-2.014,-1.526
1482.0,-11.884,2.248,0.163,-0.21,-2.014,-1.526
1486.0,-10.194,2.029,0.247,-0.65,-2.002,-1.483
1490.0,-10.194,2.029,0.247,-0.65,-2.002,-1.483
1494.0,-10.194,2.029,0.247,-0.65,-2.002,-1.483
1498.0,-9.032,1.693,0.163,-1.032,-1.962,-1.449
1502.0,-9.032,1.693,0.163,-1.032,-1.962,-1.449
1506.0,-8.406,1.39,-0.048,-1.364,-1.882,-1.439
1510.0,-8.406,1.39,-0.048,-1.364,-1.882,-1.439
1514.0,-8.173,1.045,-0.278,-1.364,-1.882,-1.439
1518.0,-8.173,1.045,-0.278,-1.65,-1.771,-1.447
1522.0,-8.173,1.045,-0.278,-1.65,-1.771,-1.447
1527.0,-8.184,0.709,-0.373,-1.896,-1.645,-1.474
1531.0,-8.184,0.709,-0.373,-1.896,-1.645,-1.474
1535.0,-8.286,0.336,-0.431,-2.099,-1.533,-1.512
1539.0,-8.286,0.336,-0.431,-2.099,-1.533,-1.512
1543.0,-8.286,0.336,-0.431,-2.099,-1.533,-1.512
1547.0,-8.569,-0.001,-0.595,-2.262,-1.455,-1.564
1551.0,-8.569,-0.001,-0.595,-2.262,-1.455,-1.564
1555.0,-9.136,-0.126,-0.867,-2.386,-1.401,-1.621
1559.0,-9.136,-0.126,-0.867,-2.386,-1.401,-1.621
1564.0,-9.829,-0.184,-1.195,-2.386,-1.401,-1.621
1568.0,-9.829,-0.184,-1.195,-2.474,-1.364,-1.654
1572.0,-9.829,-0.184,-1.195,-2.474,-1.364,-1.654
1576.0,-10.39,-0.191,-1.503,-2.538,-1.331,-1.642
1580.0,-10.39,-0.191,-1.503,-2.538,-1.331,-1.642
1585.0,-10.585,-0.194,-1.649,-2.578,-1.292,-1.574
1589.0,-10.585,-0.194,-1.649,-2.578,-1.292,-1.574
1593.0,-10.585,-0.285,-1.606,-2.578,-1.292,-1.574
1597.0,-10.357,-0.285,-1.606,-2.594,-1.238,-1.453
1602.0,-10.357,-0.285,-1.606,-2.594,-1.238,-1.453
1606.0,-9.877,-0.388,-1.455,-2.584,-1.168,-1.292
1610.0,-9.877,-0.388,-1.455,-2.584,-1.168,-1.292
1614.0,-9.321,-0.535,-1.253,-2.547,-1.086,-1.104
1618.0,-9.321,-0.535,-1.253,-2.547,-1.086,-1.104
1623.0,-9.321,-0.535,-1.068,-2.547,-1.086,-1.104
1627.0,-8.806,-0.725,-1.068,-2.484,-1.0,-0.904
1631.0,-8.806,-0.725,-1.068,-2.484,-1.0,-0.904
1635.0,-8.441,-0.891,-0.939,-2.4,-0.915,-0.717
1639.0,-8.441,-0.891,-0.939,-2.4,-0.915,-0.717
1643.0,-8.11,-1.047,-0.849,-2.299,-0.827,-0.545
1648.0,-8.11,-1.047,-0.849,-2.299,-0.827,-0.545
1652.0,-8.11,-1.047,-0.849,-2.299,-0.827,-0.545
1656.0,-7.714,-1.162,-0.755,-2.185,-0.735,-0.391
1660.0,-7.714,-1.162,-0.755,-2.185,-0.735,-0.391
1664.0,-7.207,-1.219,-0.636,-2.061,-0.631,-0.258
1668.0,-7.207,-1.219,-0.636,-2.061,-0.631,-0.258
1673.0,-6.692,-1.242,-0.496,-2.061,-0.631,-0.142
1677.0,-6.692,-1.242,-0.496,-1.925,-0.511,-0.142
1681.0,-6.692,-1.242,-0.496,-1.925,-0.511,-0.142
1685.0,-6.215,-1.202,-0.296,-1.779,-0.378,-0.042
1689.0,-6.215,-1.202,-0.296,-1.779,-0.378,-0.042
1693.0,-5.798,-1.125,-0.057,-1.62,-0.244,0.053
1697.0,-5.798,-1.125,-0.057,-1.62,-0.244,0.053
1702.0,-5.798,-1.125,0.207,-1.62,-0.244,0.053
1706.0,-5.416,-1.034,0.207,-1.446,-0.127,0.153
1709.0,-5.416,-1.034,0.207,-1.446,-0.127,0.153
1713.0,-5.039,-0.933,0.421,-1.263,-0.035,0.26
1717.0,-5.039,-0.933,0.421,-1.263,-0.035,0.26
1721.0,-4.682,-0.78,0.596,-1.263,-0.035,0.26
1725.0,-4.682,-0.78,0.596,-1.079,0.034,0.369
1729.0,-4.682,-0.78,0.596,-1.079,0.034,0.369
1733.0,-4.303,-0.629,0.73,-0.905,0.086,0.477
1737.0,-4.303,-0.629,0.73,-0.905,0.086,0.477
1741.0,-4.303,-0.479,0.805,-0.905,0.086,0.477
1745.0,-3.923,-0.479,0.805,-0.746,0.124,0.584
1749.0,-3.923,-0.479,0.805,-0.746,0.124,0.584
1753.0,-3.507,-0.388,0.818,-0.607,0.157,0.691
1757.0,-3.507,-0.388,0.818,-0.607,0.157,0.691
1761.0,-3.507,-0.388,0.83,-0.607,0.157,0.691
1765.0,-3.089,-0.313,0.83,-0.488,0.197,0.794
1768.0,-3.089,-0.313,0.83,-0.488,0.197,0.794
1772.0,-2.745,-0.273,0.826,-0.39,0.25,0.895
1776.0,-2.745,-0.273,0.826,-0.39,0.25,0.895
1780.0,-2.745,-0.273,0.826,-0.39,0.25,0.895
1784.0,-2.436,-0.24,0.82,-0.312,0.319,0.997
1788.0,-2.436,-0.24,0.82,-0.312,0.319,0.997
1792.0,-2.174,-0.227,0.87,-0.256,0.4,1.099
1796.0,-2.174,-0.227,0.87,-0.256,0.4,1.099
1800.0,-2.174,-0.227,0.87,-0.256,0.4,1.099
1804.0,-1.965,-0.224,0.922,-0.22,0.488,1.196
1808.0,-1.965,-0.224,0.922,-0.22,0.488,1.196
1811.0,-1.817,-0.221,0.979,-0.204,0.581,1.283
1815.0,-1.817,-0.221,0.979,-0.204,0.581,1.283
1819.0,-1.817,-0.221,0.979,-0.204,0.581,1.283
1823.0,-1.701,-0.207,1.034,-0.209,0.678,1.356
1827.0,-1.701,-0.207,1.034,-0.209,0.678,1.356
1831.0,-1.658,-0.255,1.212,-0.226,0.795,1.425
1835.0,-1.658,-0.255,1.212,-0.226,0.795,1.425
1839.0,-1.658,-0.255,1.212,-0.226,0.795,1.425
1843.0,-1.789,-0.313,1.33,-0.242,0.903,1.477
1847.0,-1.789,-0.313,1.33,-0.242,0.903,1.477
1850.0,-1.981,-0.221,1.453,-0.277,0.963,1.488
1854.0,-1.981,-0.221,1.453,-0.277,0.963,1.488
1858.0,-1.981,-0.221,1.453,-0.277,0.963,1.488
1862.0,-2.279,-0.154,1.546,-0.327,1.003,1.466
1866.0,-2.279,-0.154,1.546,-0.327,1.003,1.466
1870.0,-2.569,-0.157,1.635,-0.327,1.025,1.416
1874.0,-2.569,-0.157,1.635,-0.384,1.025,1.416
1878.0,-2.569,-0.157,1.635,-0.384,1.025,1.416
1882.0,-2.802,-0.1,1.797,-0.438,1.034,1.352
1886.0,-2.802,-0.1,1.797,-0.438,1.034,1.352
1890.0,-3.055,-0.12,2.109,-0.438,1.034,1.278
1893.0,-3.055,-0.12,2.109,-0.479,1.028,1.278
1897.0,-3.055,-0.12,2.109,-0.479,1.028,1.278
1901.0,-3.055,0.036,2.127,-0.508,1.014,1.191
1905.0,-3.055,0.036,2.127,-0.508,1.014,1.191
1909.0,-3.055,0.28,2.169,-0.508,1.014,1.191
1913.0,-3.27,0.28,2.169,-0.529,1.001,1.085
1917.0,-3.27,0.28,2.169,-0.529,1.001,1.085
1920.0,-3.831,0.525,2.212,-0.555,1.041,0.988
1924.0,-3.831,0.525,2.212,-0.555,1.041,0.988
1928.0,-3.831,0.525,2.212,-0.555,1.041,0.988
1932.0,-4.789,0.732,2.311,-0.587,1.145,0.922
1936.0,-4.789,0.732,2.311,-0.587,1.145,0.922
1939.0,-6.246,0.816,2.473,-0.627,1.312,0.904
1943.0,-6.246,0.816,2.473,-0.627,1.312,0.904
1947.0,-6.246,0.816,2.473,-0.627,1.312,0.904
1951.0,-8.442,0.709,2.685,-0.667,1.536,0.94
1955.0,-8.442,0.709,2.685,-0.667,1.536,0.94
1959.0,-11.676,0.301,2.97,-0.667,1.536,0.94
1962.0,-11.676,0.301,2.97,-0.686,1.804,1.018
1966.0,-11.676,0.301,2.97,-0.686,1.804,1.018
1970.0,-15.737,-0.319,3.361,-0.665,2.06,1.117
1974.0,-15.737,-0.319,3.361,-0.665,2.06,1.117
1978.0,-19.125,-0.555,4.105,-0.665,2.06,1.117
1982.0,-19.125,-0.555,4.105,-0.616,2.211,1.247
1986.0,-19.125,-0.555,4.105,-0.616,2.211,1.247
1990.0,-19.6,-0.633,4.957,-0.585,2.152,1.443
1994.0,-19.6,-0.633,4.957,-0.585,2.152,1.443
1998.0,-19.6,-0.893,5.513,-0.585,2.152,1.655
2002.0,-19.6,-0.893,5.513,-0.586,1.926,1.655
2006.0,-19.6,-0.893,5.513,-0.586,1.926,1.655
2010.0,-19.6,-1.064,5.402,-0.59,1.678,1.801
2014.0,-19.6,-1.064,5.402,-0.59,1.678,1.801
2018.0,-19.526,-0.944,4.862,-0.59,1.513,1.872
2022.0,-19.526,-0.944,4.862,-0.586,1.513,1.872
2026.0,-19.526,-0.944,4.862,-0.586,1.513,1.872
2030.0,-19.118,-0.697,4.376,-0.591,1.46,1.907
2034.0,-19.118,-0.697,4.376,-0.591,1.46,1.907
2038.0,-18.8,-0.538,4.198,-0.609,1.484,1.925
2042.0,-18.8,-0.538,4.198,-0.609,1.484,1.925
2046.0,-18.8,-0.538,4.198,-0.609,1.484,1.925
2050.0,-18.386,-0.33,4.287,-0.629,1.529,1.919
2054.0,-18.386,-0.33,4.287,-0.629,1.529,1.919
2058.0,-18.106,-0.083,4.602,-0.642,1.556,1.884
2062.0,-18.106,-0.083,4.602,-0.642,1.556,1.884
2066.0,-18.106,-0.083,4.602,-0.642,1.556,1.884
2070.0,-18.063,0.168,4.916,-0.632,1.546,1.825
2074.0,-18.063,0.168,4.916,-0.632,1.546,1.825
2078.0,-18.279,0.434,5.117,-0.614,1.485,1.731
2082.0,-18.279,0.434,5.117,-0.614,1.485,1.731
2086.0,-18.279,0.434,5.117,-0.614,1.485,1.731
2090.0,-18.425,0.534,5.279,-0.6,1.372,1.627
2094.0,-18.425,0.534,5.279,-0.6,1.372,1.627
2097.0,-17.919,0.527,5.171,-0.595,1.206,1.54
2101.0,-17.919,0.527,5.171,-0.595,1.206,1.54
2105.0,-17.919,0.527,5.171,-0.595,1.206,1.54
2109.0,-17.197,0.484,4.794,-0.614,1.025,1.453
2113.0,-17.197,0.484,4.794,-0.614,1.025,1.453
2117.0,-16.432,0.32,4.361,-0.659,0.876,1.353
2121.0,-16.432,0.32,4.361,-0.659,0.876,1.353
2125.0,-16.432,0.32,4.361,-0.659,0.876,1.353
2129.0,-15.737,0.08,3.973,-0.719,0.763,1.233
2133.0,-15.737,0.08,3.973,-0.719,0.763,1.233
2136.0,-15.145,-0.15,3.699,-0.719,0.763,1.098
2140.0,-15.145,-0.15,3.699,-0.786,0.674,1.098
2144.0,-15.145,-0.15,3.699,-0.786,0.674,1.098
2148.0,-14.683,-0.343,3.674,-0.844,0.587,0.955
2152.0,-14.683,-0.343,3.674,-0.844,0.587,0.955
2156.0,-14.232,-0.525,3.845,-0.881,0.47,0.808
2160.0,-14.232,-0.525,3.845,-0.881,0.47,0.808
2164.0,-14.232,-0.525,3.845,-0.881,0.47,0.808
2168.0,-13.603,-0.672,4.159,-0.887,0.295,0.661
2172.0,-13.603,-0.672,4.159,-0.887,0.295,0.661
2176.0,-12.692,-0.79,4.414,-0.86,0.042,0.514
2180.0,-12.692,-0.79,4.414,-0.86,0.042,0.514
2184.0,-12.692,-0.79,4.414,-0.86,0.042,0.514
2188.0,-11.641,-0.935,4.207,-0.806,-0.269,0.352
2192.0,-11.641,-0.935,4.207,-0.806,-0.269,0.352
2197.0,-10.768,-1.008,3.434,-0.731,-0.562,0.161
2201.0,-10.768,-1.008,3.434,-0.731,-0.562,0.161
2205.0,-10.768,-1.008,3.434,-0.731,-0.562,0.161
2209.0,-10.344,-1.017,2.557,-0.647,-0.766,-0.049
2213.0,-10.344,-1.017,2.557,-0.647,-0.766,-0.049
2217.0,-10.479,-1.055,1.965,-0.564,-0.876,-0.248
2221.0,-10.479,-1.055,1.965,-0.564,-0.876,-0.248
2225.0,-10.973,-1.177,1.731,-0.564,-0.941,-0.404
2230.0,-10.973,-1.177,1.731,-0.473,-0.941,-0.404
2234.0,-10.973,-1.177,1.731,-0.473,-0.941,-0.404
2238.0,-11.614,-1.395,1.807,-0.364,-1.013,-0.51
2242.0,-11.614,-1.395,1.807,-0.364,-1.013,-0.51
2246.0,-12.18,-1.635,1.942,-0.227,-1.126,-0.578
2250.0,-12.18,-1.635,1.942,-0.227,-1.126,-0.578
2255.0,-12.464,-1.826,1.905,-0.227,-1.126,-0.578
2259.0,-12.464,-1.826,1.905,-0.073,-1.291,-0.624
2263.0,-12.464,-1.826,1.905,-0.073,-1.291,-0.624
2267.0,-12.324,-1.91,1.722,0.081,-1.487,-0.666
2271.0,-12.324,-1.91,1.722,0.081,-1.487,-0.666
2275.0,-11.763,-1.818,1.427,0.213,-1.683,-0.719
2279.0,-11.763,-1.818,1.427,0.213,-1.683,-0.719
2283.0,-11.763,-1.818,1.427,0.213,-1.683,-0.719
2288.0,-11.002,-1.662,1.131,0.308,-1.85,-0.787
2292.0,-11.002,-1.662,1.131,0.308,-1.85,-0.787
2296.0,-10.161,-1.493,0.821,0.36,-1.973,-0.868
2300.0,-10.161,-1.493,0.821,0.36,-1.973,-0.868
2304.0,-10.161,-1.302,0.537,0.36,-1.973,-0.868
2308.0,-9.408,-1.302,0.537,0.37,-2.047,-0.958
2312.0,-9.408,-1.302,0.537,0.37,-2.047,-0.958
2316.0,-8.749,-1.157,0.331,0.346,-2.078,-1.049
2320.0,-8.749,-1.157,0.331,0.346,-2.078,-1.049
2324.0,-8.215,-1.062,0.211,0.346,-2.078,-1.133
2328.0,-8.215,-1.062,0.211,0.301,-2.07,-1.133
2332.0,-8.215,-1.062,0.211,0.301,-2.07,-1.133
2336.0,-7.758,-1.016,0.071,0.243,-2.04,-1.204
2340.0,-7.758,-1.016,0.071,0.243,-2.04,-1.204
2344.0,-7.382,-0.994,-0.081,0.243,-1.989,-1.259
2348.0,-7.382,-0.994,-0.081,0.174,-1.989,-1.259
2352.0,-7.382,-0.994,-0.081,0.174,-1.989,-1.259
2356.0,-6.996,-0.967,-0.238,0.097,-1.918,-1.285
2360.0,-6.996,-0.967,-0.238,0.097,-1.918,-1.285
2364.0,-6.631,-1.097,-0.296,0.015,-1.84,-1.276
2368.0,-6.631,-1.097,-0.296,0.015,-1.84,-1.276
2372.0,-6.631,-1.097,-0.296,0.015,-1.84,-1.276
2377.0,-6.264,-1.251,-0.373,-0.068,-1.765,-1.241
2381.0,-6.264,-1.251,-0.373,-0.068,-1.765,-1.241
2385.0,-5.895,-1.434,-0.414,-0.147,-1.685,-1.181
2389.0,-5.895,-1.434,-0.414,-0.147,-1.685,-1.181
2393.0,-5.567,-1.645,-0.406,-0.147,-1.599,-1.111
2397.0,-5.567,-1.645,-0.406,-0.217,-1.599,-1.111
2402.0,-5.567,-1.645,-0.406,-0.217,-1.599,-1.111
2406.0,-5.298,-1.865,-0.454,-0.273,-1.512,-1.038
2410.0,-5.298,-1.865,-0.454,-0.273,-1.512,-1.038
2414.0,-5.044,-2.087,-0.549,-0.313,-1.429,-0.974
2418.0,-5.044,-2.087,-0.549,-0.313,-1.429,-0.974
2422.0,-4.817,-2.269,-0.7,-0.313,-1.429,-0.974
2427.0,-4.817,-2.269,-0.7,-0.335,-1.35,-0.928
2431.0,-4.817,-2.269,-0.7,-0.335,-1.35,-0.928
2435.0,-4.652,-2.38,-0.876,-0.337,-1.266,-0.9
2439.0,-4.652,-2.38,-0.876,-0.337,-1.266,-0.9
2443.0,-4.539,-2.481,-1.009,-0.315,-1.172,-0.88
2447.0,-4.539,-2.481,-1.009,-0.315,-1.172,-0.88
2452.0,-4.539,-2.481,-1.009,-0.315,-1.172,-0.88
2456.0,-4.482,-2.506,-1.159,-0.264,-1.068,-0.856
2460.0,-4.482,-2.506,-1.159,-0.264,-1.068,-0.856
2464.0,-4.577,-2.551,-1.243,-0.189,-0.962,-0.834
2468.0,-4.577,-2.551,-1.243,-0.189,-0.962,-0.834
2472.0,-4.859,-2.593,-1.276,-0.084,-0.858,-0.798
2477.0,-4.859,-2.593,-1.276,-0.084,-0.858,-0.798
2481.0,-4.859,-2.593,-1.276,-0.084,-0.858,-0.798
2485.0,-5.288,-2.725,-1.296,0.061,-0.763,-0.738
2489.0,-5.288,-2.725,-1.296,0.061,-0.763,-0.738
2493.0,-5.773,-2.894,-1.275,0.249,-0.682,-0.649
2497.0,-5.773,-2.894,-1.275,0.249,-0.682,-0.649
2501.0,-5.773,-2.894,-1.293,0.249,-0.682,-0.649
2505.0,-6.236,-3.065,-1.293,0.474,-0.622,-0.547
2509.0,-6.236,-3.065,-1.293,0.474,-0.622,-0.547
2513.0,-6.604,-3.26,-1.35,0.725,-0.578,-0.442
2517.0,-6.604,-3.26,-1.35,0.725,-0.578,-0.442
2522.0,-6.91,-3.508,-1.418,0.725,-0.539,-0.35
2526.0,-6.91,-3.508,-1.418,0.992,-0.539,-0.35
2530.0,-6.91,-3.508,-1.418,0.992,-0.539,-0.35
2534.0,-7.193,-3.669,-1.432,1.269,-0.502,-0.28
2538.0,-7.193,-3.669,-1.432,1.269,-0.502,-0.28
2542.0,-7.655,-3.77,-1.432,1.546,-0.462,-0.224
2546.0,-7.655,-3.77,-1.432,1.546,-0.462,-0.224
2550.0,-7.655,-3.77,-1.432,1.546,-0.462,-0.224
2554.0,-8.498,-3.848,-1.37,1.808,-0.411,-0.169
2558.0,-8.498,-3.848,-1.37,1.808,-0.411,-0.169
2562.0,-9.938,-4.055,-1.203,2.048,-0.35,-0.119
2566.0,-9.938,-4.055,-1.203,2.048,-0.35,-0.119
2571.0,-12.129,-4.374,-1.171,2.048,-0.35,-0.119
2575.0,-12.129,-4.374,-1.171,2.27,-0.284,-0.1
2579.0,-12.129,-4.374,-1.171,2.27,-0.284,-0.1
2583.0,-14.905,-4.549,-1.391,2.487,-0.207,-0.137
2587.0,-14.905,-4.549,-1.391,2.487,-0.207,-0.137
2591.0,-17.412,-4.382,-1.651,2.705,-0.141,-0.227
2596.0,-17.412,-4.382,-1.651,2.705,-0.141,-0.227
2600.0,-17.412,-4.382,-1.887,2.705,-0.141,-0.227
2604.0,-18.343,-3.935,-1.887,2.912,-0.134,-0.346
2608.0,-18.343,-3.935,-1.887,2.912,-0.134,-0.346
2612.0,-17.997,-3.38,-2.041,3.099,-0.167,-0.494
2616.0,-17.997,-3.38,-2.041,3.099,-0.167,-0.494
2621.0,-17.592,-2.808,-2.234,3.279,-0.176,-0.678
2625.0,-17.592,-2.808,-2.234,3.279,-0.176,-0.678
2629.0,-17.592,-2.808,-2.234,3.279,-0.176,-0.678
2633.0,-17.7,-2.231,-2.527,3.448,-0.147,-0.876
2637.0,-17.7,-2.231,-2.527,3.448,-0.147,-0.876
2641.0,-18.127,-1.737,-2.688,3.589,-0.096,-1.052
2646.0,-18.127,-1.737,-2.688,3.589,-0.096,-1.052
2650.0,-18.6,-1.366,-2.551,3.589,-0.096,-1.194
2654.0,-18.6,-1.366,-2.551,3.688,-0.053,-1.194
2658.0,-18.6,-1.366,-2.551,3.688,-0.053,-1.194
2662.0,-18.82,-1.043,-2.259,3.74,-0.039,-1.312
2666.0,-18.82,-1.043,-2.259,3.74,-0.039,-1.312
2671.0,-18.326,-0.775,-1.902,3.74,-0.07,-1.406
2675.0,-18.326,-0.775,-1.902,3.74,-0.07,-1.406
2679.0,-18.326,-0.775,-1.58,3.74,-0.07,-1.406
2683.0,-17.488,-0.471,-1.58,3.672,-0.135,-1.477
2687.0,-17.488,-0.471,-1.58,3.672,-0.135,-1.477
2691.0,-16.859,-0.19,-1.343,3.525,-0.198,-1.524
2696.0,-16.859,-0.19,-1.343,3.525,-0.198,-1.524
2700.0,-16.382,0.056,-1.183,3.294,-0.234,-1.548
2704.0,-16.382,0.056,-1.183,3.294,-0.234,-1.548
2708.0,-16.382,0.056,-1.183,3.294,-0.234,-1.548
2712.0,-15.72,0.24,-0.924,2.981,-0.243,-1.543
2716.0,-15.72,0.24,-0.924,2.981,-0.243,-1.543
2720.0,-14.888,0.337,-0.541,2.592,-0.227,-1.509
2724.0,-14.888,0.337,-0.541,2.592,-0.227,-1.509
2728.0,-14.888,0.366,-0.145,2.592,-0.227,-1.509
2732.0,-14.133,0.366,-0.145,2.149,-0.188,-1.457
2736.0,-14.133,0.366,-0.145,2.149,-0.188,-1.457
2740.0,-13.683,0.41,0.206,1.678,-0.132,-1.41
2744.0,-13.683,0.41,0.206,1.678,-0.132,-1.41
2748.0,-13.484,0.441,0.447,1.678,-0.132,-1.382
2752.0,-13.484,0.441,0.447,1.201,-0.072,-1.382
2756.0,-13.484,0.441,0.447,1.201,-0.072,-1.382
2760.0,-13.283,0.446,0.578,0.736,-0.018,-1.383
2764.0,-13.283,0.446,0.578,0.736,-0.018,-1.383
2768.0,-12.839,0.451,0.767,0.736,0.016,-1.408
2772.0,-12.839,0.451,0.767,0.308,0.016,-1.408
2776.0,-12.839,0.451,0.767,0.308,0.016,-1.408
2780.0,-12.196,0.444,1.124,-0.061,0.007,-1.449
2784.0,-12.196,0.444,1.124,-0.061,0.007,-1.449
2788.0,-11.539,0.46,1.522,-0.061,-0.056,-1.5
2792.0,-11.539,0.46,1.522,-0.351,-0.056,-1.5
2796.0,-11.539,0.46,1.522,-0.351,-0.056,-1.5
2800.0,-11.086,0.457,1.719,-0.555,-0.173,-1.565
2804.0,-11.086,0.457,1.719,-0.555,-0.173,-1.565
2809.0,-11.05,0.559,1.575,-0.682,-0.309,-1.64
2813.0,-11.05,0.559,1.575,-0.682,-0.309,-1.64
2817.0,-11.05,0.559,1.575,-0.682,-0.309,-1.64
2821.0,-11.281,0.709,1.116,-0.758,-0.428,-1.687
2825.0,-11.281,0.709,1.116,-0.758,-0.428,-1.687
2829.0,-11.341,0.858,0.669,-0.815,-0.505,-1.662
2833.0,-11.341,0.858,0.669,-0.815,-0.505,-1.662
2837.0,-11.052,0.988,0.475,-0.815,-0.505,-1.662
2841.0,-11.052,0.988,0.475,-0.872,-0.526,-1.549
2845.0,-11.052,0.988,0.475,-0.872,-0.526,-1.549
2849.0,-10.453,0.991,0.555,-0.926,-0.493,-1.359
2853.0,-10.453,0.991,0.555,-0.926,-0.493,-1.359
2857.0,-9.783,0.915,0.816,-0.974,-0.424,-1.119
2861.0,-9.783,0.915,0.816,-0.974,-0.424,-1.119
2865.0,-9.783,0.915,0.816,-0.974,-0.424,-1.119
2869.0,-9.182,0.791,1.154,-1.018,-0.332,-0.851
2873.0,-9.182,0.791,1.154,-1.018,-0.332,-0.851
2877.0,-8.635,0.694,1.463,-1.063,-0.235,-0.577
2881.0,-8.635,0.694,1.463,-1.063,-0.235,-0.577
2885.0,-8.635,0.694,1.463,-1.063,-0.235,-0.577
2889.0,-8.127,0.613,1.733,-1.118,-0.145,-0.317
2893.0,-8.127,0.613,1.733,-1.118,-0.145,-0.317
2897.0,-7.653,0.575,1.984,-1.19,-0.066,-0.087
2901.0,-7.653,0.575,1.984,-1.19,-0.066,-0.087
2905.0,-7.653,0.575,1.984,-1.19,-0.066,-0.087
2909.0,-7.151,0.519,2.18,-1.279,0.001,0.107
2913.0,-7.151,0.519,2.18,-1.279,0.001,0.107
2917.0,-6.626,0.501,2.364,-1.385,0.062,0.267
2921.0,-6.626,0.501,2.364,-1.385,0.062,0.267
2925.0,-6.626,0.501,2.364,-1.385,0.062,0.267
2928.0,-6.107,0.531,2.541,-1.506,0.117,0.401
2932.0,-6.107,0.531,2.541,-1.506,0.117,0.401
2936.0,-5.63,0.565,2.697,-1.506,0.17,0.52
2940.0,-5.63,0.565,2.697,-1.637,0.17,0.52
2944.0,-5.63,0.565,2.697,-1.637,0.17,0.52
2948.0,-5.184,0.636,2.808,-1.774,0.221,0.63
2951.0,-5.184,0.636,2.808,-1.774,0.221,0.63
2955.0,-5.184,0.636,2.896,-1.774,0.221,0.63
2959.0,-4.791,0.718,2.896,-1.911,0.269,0.734
2963.0,-4.791,0.718,2.896,-1.911,0.269,0.734
2967.0,-4.43,0.79,2.933,-2.043,0.309,0.836
2971.0,-4.43,0.79,2.933,-2.043,0.309,0.836
2974.0,-4.43,0.79,2.933,-2.043,0.309,0.836
2978.0,-4.092,0.826,2.967,-2.166,0.339,0.935
2982.0,-4.092,0.826,2.967,-2.166,0.339,0.935
2986.0,-3.748,0.821,2.94,-2.277,0.361,1.024
2990.0,-3.748,0.821,2.94,-2.277,0.361,1.024
2993.0,-3.748,0.821,2.94,-2.277,0.361,1.024
2997.0,-3.417,0.793,2.968,-2.372,0.38,1.101
