deltaTime,Acc_X,Acc_Y,Acc_Z,Gyro_X,Gyro_Y,Gyro_Z
0.0,-9.614,-0.693,1.959,0.042,-0.055,0.068
3.0,-9.614,-0.693,1.959,0.042,-0.055,0.068
6.0,-9.614,-0.693,1.959,0.042,-0.055,0.068
9.0,-9.614,-1.016,1.846,0.042,-0.055,0.068
12.0,-9.523,-1.016,1.846,0.007,-0.068,0.08
15.0,-9.523,-1.016,1.846,0.007,-0.068,0.08
18.0,-9.523,-1.016,1.846,0.007,-0.068,0.08
21.0,-9.313,-1.208,1.782,0.014,-0.074,0.086
24.0,-9.313,-1.208,1.782,0.014,-0.074,0.086
27.0,-9.313,-1.208,1.782,0.014,-0.074,0.086
30.0,-9.173,-1.239,1.725,0.037,-0.07,0.082
33.0,-9.173,-1.239,1.725,0.037,-0.07,0.082
36.0,-9.173,-1.239,1.725,0.037,-0.07,0.082
40.0,-9.431,-1.134,1.753,0.047,-0.063,0.067
44.0,-9.431,-1.134,1.753,0.047,-0.063,0.067
47.0,-9.431,-1.134,1.753,0.047,-0.063,0.067
51.0,-9.684,-1.089,1.819,0.035,-0.062,0.056
55.0,-9.684,-1.089,1.819,0.035,-0.062,0.056
59.0,-9.684,-1.032,1.936,0.035,-0.062,0.056
62.0,-9.746,-1.032,1.936,0.018,-0.061,0.047
66.0,-9.746,-1.032,1.936,0.018,-0.061,0.047
70.0,-9.766,-0.851,2.12,0.004,-0.059,0.04
74.0,-9.766,-0.851,2.12,0.004,-0.059,0.04
77.0,-9.766,-0.851,2.12,0.004,-0.059,0.04
81.0,-9.787,-0.755,2.253,-0.026,-0.059,0.037
85.0,-9.787,-0.755,2.253,-0.026,-0.059,0.037
89.0,-9.744,-0.776,2.307,-0.026,-0.059,0.038
93.0,-9.744,-0.776,2.307,-0.059,-0.054,0.038
96.0,-9.744,-0.776,2.307,-0.059,-0.054,0.038
100.0,-9.754,-0.824,2.361,-0.084,-0.043,0.041
104.0,-9.754,-0.824,2.361,-0.084,-0.043,0.041
108.0,-9.754,-0.779,2.378,-0.084,-0.043,0.041
112.0,-9.808,-0.779,2.378,-0.107,-0.044,0.046
116.0,-9.808,-0.779,2.378,-0.107,-0.044,0.046
120.0,-9.699,-0.751,2.365,-0.141,-0.057,0.053
124.0,-9.699,-0.751,2.365,-0.141,-0.057,0.053
128.0,-9.699,-0.751,2.258,-0.141,-0.057,0.053
131.0,-9.594,-0.809,2.258,-0.178,-0.066,0.054
135.0,-9.594,-0.809,2.258,-0.178,-0.066,0.054
139.0,-9.516,-0.911,2.155,-0.21,-0.074,0.059
143.0,-9.516,-0.911,2.155,-0.21,-0.074,0.059
147.0,-9.516,-0.911,2.155,-0.21,-0.074,0.059
151.0,-9.411,-0.952,2.11,-0.24,-0.076,0.062
155.0,-9.411,-0.952,2.11,-0.24,-0.076,0.062
159.0,-9.323,-1.071,2.07,-0.264,-0.077,0.059
163.0,-9.323,-1.071,2.07,-0.264,-0.077,0.059
167.0,-9.323,-1.071,2.07,-0.264,-0.077,0.059
170.0,-9.178,-0.979,2.006,-0.28,-0.073,0.051
174.0,-9.178,-0.979,2.006,-0.28,-0.073,0.051
178.0,-9.21,-0.803,1.975,-0.322,-0.061,0.041
182.0,-9.21,-0.803,1.975,-0.322,-0.061,0.041
186.0,-9.21,-0.803,1.975,-0.322,-0.061,0.041
190.0,-9.295,-0.452,1.959,-0.406,-0.05,0.017
194.0,-9.295,-0.452,1.959,-0.406,-0.05,0.017
198.0,-9.376,-0.547,2.115,-0.526,-0.038,-0.004
202.0,-9.376,-0.547,2.115,-0.526,-0.038,-0.004
206.0,-9.376,-0.547,2.115,-0.526,-0.038,-0.004
210.0,-9.491,-0.683,2.285,-0.619,-0.029,-0.009
214.0,-9.491,-0.683,2.285,-0.619,-0.029,-0.009
218.0,-9.643,-0.973,2.352,-0.67,-0.033,-0.004
222.0,-9.643,-0.973,2.352,-0.67,-0.033,-0.004
226.0,-9.643,-0.973,2.352,-0.67,-0.033,-0.004
230.0,-9.889,-1.217,2.307,-0.674,-0.048,0.006
234.0,-9.889,-1.217,2.307,-0.674,-0.048,0.006
238.0,-10.04,-1.397,2.216,-0.646,-0.073,0.012
242.0,-10.04,-1.397,2.216,-0.646,-0.073,0.012
246.0,-10.04,-1.397,2.216,-0.646,-0.073,0.012
250.0,-10.024,-1.485,2.192,-0.599,-0.095,0.01
254.0,-10.024,-1.485,2.192,-0.599,-0.095,0.01
258.0,-9.829,-1.477,2.127,-0.544,-0.115,0.005
261.0,-9.829,-1.477,2.127,-0.544,-0.115,0.005
265.0,-9.829,-1.477,2.127,-0.544,-0.115,0.005
269.0,-9.629,-1.164,1.952,-0.499,-0.134,-0.013
273.0,-9.629,-1.164,1.952,-0.499,-0.134,-0.013
277.0,-9.423,-0.94,1.841,-0.514,-0.159,-0.068
281.0,-9.423,-0.94,1.841,-0.514,-0.159,-0.068
285.0,-9.423,-0.94,1.841,-0.514,-0.159,-0.068
289.0,-9.377,-1.026,1.843,-0.557,-0.16,-0.105
293.0,-9.377,-1.026,1.843,-0.557,-0.16,-0.105
297.0,-9.393,-1.138,1.872,-0.577,-0.145,-0.117
301.0,-9.393,-1.138,1.872,-0.577,-0.145,-0.117
305.0,-9.393,-1.138,1.88,-0.577,-0.145,-0.117
309.0,-9.641,-1.214,1.88,-0.572,-0.133,-0.118
313.0,-9.641,-1.214,1.88,-0.572,-0.133,-0.118
317.0,-10.0,-1.209,1.857,-0.563,-0.144,-0.122
321.0,-10.0,-1.209,1.857,-0.563,-0.144,-0.122
325.0,-10.093,-1.198,1.857,-0.563,-0.144,-0.122
329.0,-10.093,-1.198,1.857,-0.57,-0.171,-0.136
333.0,-10.093,-1.198,1.857,-0.57,-0.171,-0.136
338.0,-9.951,-1.144,1.834,-0.59,-0.199,-0.154
342.0,-9.951,-1.144,1.834,-0.59,-0.199,-0.154
346.0,-9.771,-1.035,1.784,-0.59,-0.22,-0.174
350.0,-9.771,-1.035,1.784,-0.627,-0.22,-0.174
354.0,-9.771,-1.035,1.784,-0.627,-0.22,-0.174
358.0,-9.593,-1.03,1.723,-0.676,-0.226,-0.191
362.0,-9.593,-1.03,1.723,-0.676,-0.226,-0.191
366.0,-9.473,-1.073,1.62,-0.721,-0.22,-0.197
370.0,-9.473,-1.073,1.62,-0.721,-0.22,-0.197
374.0,-9.473,-1.073,1.62,-0.721,-0.22,-0.197
377.0,-9.483,-1.121,1.552,-0.757,-0.202,-0.201
381.0,-9.483,-1.121,1.552,-0.757,-0.202,-0.201
385.0,-9.592,-1.163,1.538,-0.782,-0.176,-0.202
389.0,-9.592,-1.163,1.538,-0.782,-0.176,-0.202
393.0,-9.592,-1.163,1.538,-0.782,-0.176,-0.202
397.0,-9.701,-1.177,1.581,-0.802,-0.149,-0.198
401.0,-9.701,-1.177,1.581,-0.802,-0.149,-0.198
405.0,-9.804,-1.195,1.677,-0.817,-0.133,-0.186
409.0,-9.804,-1.195,1.677,-0.817,-0.133,-0.186
413.0,-9.804,-1.195,1.677,-0.817,-0.133,-0.186
417.0,-9.855,-1.205,1.744,-0.827,-0.126,-0.168
421.0,-9.855,-1.205,1.744,-0.827,-0.126,-0.168
425.0,-9.851,-1.174,1.749,-0.832,-0.126,-0.154
429.0,-9.851,-1.174,1.749,-0.832,-0.126,-0.154
433.0,-9.851,-1.174,1.749,-0.832,-0.126,-0.154
437.0,-9.762,-1.093,1.727,-0.843,-0.127,-0.142
441.0,-9.762,-1.093,1.727,-0.843,-0.127,-0.142
445.0,-9.572,-1.006,1.709,-0.865,-0.123,-0.131
449.0,-9.572,-1.006,1.709,-0.865,-0.123,-0.131
453.0,-9.572,-1.006,1.649,-0.865,-0.123,-0.131
457.0,-9.424,-0.925,1.649,-0.896,-0.11,-0.121
461.0,-9.424,-0.925,1.649,-0.896,-0.11,-0.121
465.0,-9.492,-0.849,1.61,-0.937,-0.083,-0.107
469.0,-9.492,-0.849,1.61,-0.937,-0.083,-0.107
473.0,-9.685,-0.85,1.631,-0.937,-0.083,-0.107
477.0,-9.685,-0.85,1.631,-0.988,-0.046,-0.084
481.0,-9.685,-0.85,1.631,-0.988,-0.046,-0.084
485.0,-9.768,-0.913,1.748,-1.043,-0.015,-0.046
489.0,-9.768,-0.913,1.748,-1.043,-0.015,-0.046
493.0,-9.669,-0.991,1.855,-1.043,-0.015,-0.046
497.0,-9.669,-0.991,1.855,-1.09,0.004,0.002
501.0,-9.669,-0.991,1.855,-1.09,0.004,0.002
505.0,-9.531,-1.095,1.905,-1.129,0.016,0.056
509.0,-9.531,-1.095,1.905,-1.129,0.016,0.056
513.0,-9.531,-1.095,1.902,-1.129,0.016,0.056
516.0,-9.437,-1.208,1.902,-1.156,0.027,0.107
520.0,-9.437,-1.208,1.902,-1.156,0.027,0.107
524.0,-9.43,-1.318,1.874,-1.17,0.039,0.16
528.0,-9.43,-1.318,1.874,-1.17,0.039,0.16
532.0,-9.43,-1.318,1.874,-1.17,0.039,0.16
535.0,-9.325,-1.42,1.854,-1.168,0.05,0.214
539.0,-9.325,-1.42,1.854,-1.168,0.05,0.214
543.0,-9.242,-1.512,1.831,-1.15,0.062,0.267
547.0,-9.242,-1.512,1.831,-1.15,0.062,0.267
551.0,-9.242,-1.512,1.831,-1.15,0.062,0.267
555.0,-9.24,-1.619,1.789,-1.121,0.08,0.32
558.0,-9.24,-1.619,1.789,-1.121,0.08,0.32
562.0,-9.364,-1.734,1.778,-1.121,0.08,0.32
566.0,-9.364,-1.734,1.778,-1.079,0.101,0.372
570.0,-9.364,-1.734,1.778,-1.079,0.101,0.372
574.0,-9.517,-1.857,1.82,-1.022,0.123,0.424
577.0,-9.517,-1.857,1.82,-1.022,0.123,0.424
581.0,-9.517,-1.857,1.82,-1.022,0.123,0.424
585.0,-9.58,-1.967,1.918,-0.945,0.135,0.477
589.0,-9.58,-1.967,1.918,-0.945,0.135,0.477
593.0,-9.542,-2.077,1.985,-0.851,0.133,0.527
597.0,-9.542,-2.077,1.985,-0.851,0.133,0.527
600.0,-9.542,-2.077,1.985,-0.851,0.133,0.527
604.0,-9.52,-2.159,1.993,-0.742,0.126,0.567
608.0,-9.52,-2.159,1.993,-0.742,0.126,0.567
612.0,-9.519,-2.215,1.982,-0.742,0.126,0.597
616.0,-9.519,-2.215,1.982,-0.62,0.12,0.597
620.0,-9.519,-2.215,1.982,-0.62,0.12,0.597
623.0,-9.533,-2.239,1.953,-0.49,0.115,0.62
627.0,-9.533,-2.239,1.953,-0.49,0.115,0.62
631.0,-9.533,-2.239,1.917,-0.49,0.115,0.62
635.0,-9.513,-2.222,1.917,-0.358,0.112,0.634
639.0,-9.513,-2.222,1.917,-0.358,0.112,0.634
642.0,-9.526,-2.207,1.865,-0.227,0.108,0.64
646.0,-9.526,-2.207,1.865,-0.227,0.108,0.64
650.0,-9.526,-2.207,1.865,-0.227,0.108,0.64
654.0,-9.611,-2.186,1.816,-0.101,0.107,0.64
658.0,-9.611,-2.186,1.816,-0.101,0.107,0.64
662.0,-9.712,-2.132,1.816,0.02,0.112,0.634
665.0,-9.712,-2.132,1.816,0.02,0.112,0.634
669.0,-9.712,-2.132,1.816,0.02,0.112,0.634
673.0,-9.799,-2.07,1.823,0.13,0.116,0.624
676.0,-9.799,-2.07,1.823,0.13,0.116,0.624
680.0,-9.799,-2.07,1.823,0.13,0.116,0.624
684.0,-9.845,-2.016,1.831,0.226,0.115,0.61
688.0,-9.845,-2.016,1.831,0.226,0.115,0.61
691.0,-9.957,-1.966,1.818,0.308,0.114,0.589
695.0,-9.957,-1.966,1.818,0.308,0.114,0.589
699.0,-9.957,-1.966,1.818,0.308,0.114,0.589
703.0,-10.156,-1.917,1.807,0.376,0.117,0.565
706.0,-10.156,-1.917,1.807,0.376,0.117,0.565
710.0,-10.156,-1.866,1.825,0.376,0.117,0.565
714.0,-10.333,-1.866,1.825,0.432,0.117,0.54
718.0,-10.333,-1.866,1.825,0.432,0.117,0.54
722.0,-10.366,-1.811,1.867,0.477,0.108,0.516
725.0,-10.366,-1.811,1.867,0.477,0.108,0.516
729.0,-10.366,-1.811,1.867,0.477,0.108,0.516
733.0,-10.225,-1.753,1.878,0.51,0.085,0.491
737.0,-10.225,-1.753,1.878,0.51,0.085,0.491
741.0,-10.027,-1.695,1.814,0.531,0.058,0.458
745.0,-10.027,-1.695,1.814,0.531,0.058,0.458
748.0,-10.027,-1.695,1.814,0.531,0.058,0.458
752.0,-9.867,-1.595,1.753,0.542,0.034,0.415
756.0,-9.867,-1.595,1.753,0.542,0.034,0.415
760.0,-9.739,-1.485,1.708,0.542,0.034,0.415
763.0,-9.739,-1.485,1.708,0.54,0.016,0.366
767.0,-9.739,-1.485,1.708,0.54,0.016,0.366
771.0,-9.595,-1.362,1.662,0.525,-0.003,0.318
775.0,-9.595,-1.362,1.662,0.525,-0.003,0.318
779.0,-9.595,-1.362,1.662,0.525,-0.003,0.318
782.0,-9.392,-1.256,1.647,0.494,-0.025,0.271
786.0,-9.392,-1.256,1.647,0.494,-0.025,0.271
790.0,-9.232,-1.172,1.601,0.449,-0.046,0.226
794.0,-9.232,-1.172,1.601,0.449,-0.046,0.226
798.0,-9.232,-1.172,1.601,0.449,-0.046,0.226
801.0,-9.156,-1.099,1.561,0.391,-0.059,0.18
805.0,-9.156,-1.099,1.561,0.391,-0.059,0.18
809.0,-9.189,-1.051,1.545,0.391,-0.059,0.18
813.0,-9.189,-1.051,1.545,0.32,-0.066,0.139
817.0,-9.189,-1.051,1.545,0.32,-0.066,0.139
821.0,-9.218,-1.026,1.555,0.237,-0.07,0.104
824.0,-9.218,-1.026,1.555,0.237,-0.07,0.104
828.0,-9.218,-1.026,1.555,0.237,-0.07,0.104
832.0,-9.261,-1.017,1.557,0.144,-0.075,0.08
836.0,-9.261,-1.017,1.557,0.144,-0.075,0.08
840.0,-9.326,-1.024,1.597,0.045,-0.076,0.064
843.0,-9.326,-1.024,1.597,0.045,-0.076,0.064
847.0,-9.326,-1.024,1.597,0.045,-0.076,0.064
851.0,-9.319,-1.037,1.627,-0.058,-0.079,0.057
855.0,-9.319,-1.037,1.627,-0.058,-0.079,0.057
859.0,-9.248,-1.084,1.635,-0.058,-0.084,0.058
863.0,-9.248,-1.084,1.635,-0.16,-0.084,0.058
867.0,-9.248,-1.084,1.635,-0.16,-0.084,0.058
871.0,-9.149,-1.154,1.651,-0.255,-0.089,0.063
875.0,-9.149,-1.154,1.651,-0.255,-0.089,0.063
878.0,-9.074,-1.217,1.624,-0.255,-0.089,0.069
882.0,-9.074,-1.217,1.624,-0.34,-0.093,0.069
886.0,-9.074,-1.217,1.624,-0.34,-0.093,0.069
890.0,-9.059,-1.282,1.599,-0.415,-0.092,0.078
894.0,-9.059,-1.282,1.599,-0.415,-0.092,0.078
898.0,-9.083,-1.35,1.559,-0.415,-0.092,0.078
902.0,-9.083,-1.35,1.559,-0.479,-0.086,0.088
906.0,-9.083,-1.35,1.559,-0.479,-0.086,0.088
910.0,-9.138,-1.448,1.549,-0.534,-0.076,0.102
914.0,-9.138,-1.448,1.549,-0.534,-0.076,0.102
918.0,-9.138,-1.531,1.586,-0.534,-0.076,0.102
921.0,-9.278,-1.531,1.586,-0.577,-0.063,0.117
925.0,-9.278,-1.531,1.586,-0.577,-0.063,0.117
929.0,-9.43,-1.644,1.636,-0.605,-0.053,0.132
933.0,-9.43,-1.644,1.636,-0.605,-0.053,0.132
937.0,-9.43,-1.644,1.728,-0.605,-0.053,0.132
941.0,-9.525,-1.728,1.728,-0.618,-0.05,0.146
945.0,-9.525,-1.728,1.728,-0.618,-0.05,0.146
949.0,-9.469,-1.816,1.775,-0.613,-0.062,0.155
953.0,-9.469,-1.816,1.775,-0.613,-0.062,0.155
957.0,-9.469,-1.816,1.775,-0.613,-0.062,0.155
960.0,-9.367,-1.881,1.759,-0.595,-0.08,0.153
964.0,-9.367,-1.881,1.759,-0.595,-0.08,0.153
968.0,-9.332,-1.9,1.712,-0.566,-0.088,0.14
972.0,-9.332,-1.9,1.712,-0.566,-0.088,0.14
976.0,-9.332,-1.9,1.712,-0.566,-0.088,0.14
980.0,-9.417,-1.919,1.658,-0.532,-0.086,0.12
984.0,-9.417,-1.919,1.658,-0.532,-0.086,0.12
988.0,-9.528,-1.93,1.689,-0.494,-0.081,0.097
992.0,-9.528,-1.93,1.689,-0.494,-0.081,0.097
996.0,-9.528,-1.93,1.689,-0.494,-0.081,0.097
1000.0,-9.564,-1.947,1.734,-0.451,-0.082,0.072
1004.0,-9.564,-1.947,1.734,-0.451,-0.082,0.072
1008.0,-9.529,-1.96,1.769,-0.405,-0.09,0.041
1012.0,-9.529,-1.96,1.769,-0.405,-0.09,0.041
1016.0,-9.529,-1.96,1.769,-0.405,-0.09,0.041
1020.0,-9.491,-1.958,1.774,-0.354,-0.097,0.002
1023.0,-9.491,-1.958,1.774,-0.354,-0.097,0.002
1027.0,-9.504,-1.944,1.723,-0.305,-0.096,-0.046
1032.0,-9.504,-1.944,1.723,-0.305,-0.096,-0.046
1036.0,-9.504,-1.944,1.717,-0.305,-0.096,-0.046
1040.0,-9.603,-1.899,1.717,-0.261,-0.086,-0.098
1044.0,-9.603,-1.899,1.717,-0.261,-0.086,-0.098
1048.0,-9.852,-1.837,1.763,-0.223,-0.065,-0.15
1052.0,-9.852,-1.837,1.763,-0.223,-0.065,-0.15
1056.0,-10.091,-1.791,1.859,-0.223,-0.065,-0.198
1060.0,-10.091,-1.791,1.859,-0.19,-0.044,-0.198
1064.0,-10.091,-1.791,1.859,-0.19,-0.044,-0.198
1069.0,-10.216,-1.709,2.001,-0.162,-0.035,-0.239
1073.0,-10.216,-1.709,2.001,-0.162,-0.035,-0.239
1077.0,-10.26,-1.563,2.215,-0.137,-0.034,-0.277
1081.0,-10.26,-1.563,2.215,-0.137,-0.034,-0.277
1085.0,-10.26,-1.229,2.646,-0.137,-0.034,-0.277
1089.0,-10.366,-1.229,2.646,-0.099,-0.034,-0.31
1094.0,-10.366,-1.229,2.646,-0.099,-0.034,-0.31
1098.0,-10.432,-0.815,3.138,-0.023,-0.041,-0.322
1102.0,-10.432,-0.815,3.138,-0.023,-0.041,-0.322
1106.0,-10.347,-0.444,3.5,0.092,-0.065,-0.305
1110.0,-10.347,-0.444,3.5,0.092,-0.065,-0.305
1114.0,-10.347,-0.444,3.5,0.092,-0.065,-0.305
1118.0,-10.236,-0.109,3.717,0.23,-0.092,-0.267
1122.0,-10.236,-0.109,3.717,0.23,-0.092,-0.267
1126.0,-10.091,0.0,3.69,0.374,-0.113,-0.223
1130.0,-10.091,0.0,3.69,0.374,-0.113,-0.223
1134.0,-10.091,0.0,3.528,0.374,-0.113,-0.223
1138.0,-9.964,-0.026,3.528,0.507,-0.126,-0.178
1142.0,-9.964,-0.026,3.528,0.507,-0.126,-0.178
1146.0,-9.862,-0.193,3.178,0.613,-0.134,-0.136
1150.0,-9.862,-0.193,3.178,0.613,-0.134,-0.136
1154.0,-9.862,-0.324,2.957,0.613,-0.134,-0.136
1158.0,-9.831,-0.324,2.957,0.687,-0.137,-0.096
1162.0,-9.831,-0.324,2.957,0.687,-0.137,-0.096
1166.0,-9.818,-0.501,2.725,0.736,-0.132,-0.068
1170.0,-9.818,-0.501,2.725,0.736,-0.132,-0.068
1174.0,-9.534,-0.683,2.47,0.736,-0.132,-0.068
1178.0,-9.534,-0.683,2.47,0.759,-0.146,-0.051
1182.0,-9.534,-0.683,2.47,0.759,-0.146,-0.051
1186.0,-9.15,-0.703,2.253,0.758,-0.182,-0.043
1190.0,-9.15,-0.703,2.253,0.758,-0.182,-0.043
1194.0,-8.928,-0.708,1.986,0.758,-0.182,-0.047
1198.0,-8.928,-0.708,1.986,0.742,-0.208,-0.047
1202.0,-8.928,-0.708,1.986,0.742,-0.208,-0.047
1206.0,-8.886,-0.663,1.778,0.71,-0.21,-0.064
1210.0,-8.886,-0.663,1.778,0.71,-0.21,-0.064
1214.0,-9.011,-0.598,1.659,0.71,-0.195,-0.082
1218.0,-9.011,-0.598,1.659,0.66,-0.195,-0.082
1222.0,-9.011,-0.598,1.659,0.66,-0.195,-0.082
1226.0,-9.249,-0.531,1.656,0.594,-0.171,-0.089
1230.0,-9.249,-0.531,1.656,0.594,-0.171,-0.089
1234.0,-9.516,-0.512,1.768,0.516,-0.152,-0.082
1238.0,-9.516,-0.512,1.768,0.516,-0.152,-0.082
1242.0,-9.516,-0.512,1.768,0.516,-0.152,-0.082
1246.0,-9.578,-0.528,1.887,0.434,-0.152,-0.067
1250.0,-9.578,-0.528,1.887,0.434,-0.152,-0.067
1254.0,-9.379,-0.566,1.877,0.349,-0.175,-0.052
1258.0,-9.379,-0.566,1.877,0.349,-0.175,-0.052
1262.0,-9.379,-0.566,1.877,0.349,-0.175,-0.052
1266.0,-9.184,-0.608,1.765,0.26,-0.192,-0.053
1270.0,-9.184,-0.608,1.765,0.26,-0.192,-0.053
1274.0,-9.196,-0.637,1.672,0.165,-0.18,-0.073
1278.0,-9.196,-0.637,1.672,0.165,-0.18,-0.073
1282.0,-9.196,-0.637,1.672,0.165,-0.18,-0.073
1286.0,-9.427,-0.658,1.647,0.066,-0.142,-0.101
1290.0,-9.427,-0.658,1.647,0.066,-0.142,-0.101
1294.0,-9.674,-0.639,1.774,-0.028,-0.105,-0.12
1298.0,-9.674,-0.639,1.774,-0.028,-0.105,-0.12
1302.0,-9.674,-0.639,1.973,-0.028,-0.105,-0.12
1306.0,-9.79,-0.63,1.973,-0.102,-0.093,-0.124
1310.0,-9.79,-0.63,1.973,-0.102,-0.093,-0.124
1315.0,-9.798,-0.623,2.146,-0.138,-0.106,-0.119
1319.0,-9.798,-0.623,2.146,-0.138,-0.106,-0.119
1323.0,-9.77,-0.599,2.319,-0.138,-0.121,-0.112
1327.0,-9.77,-0.599,2.319,-0.126,-0.121,-0.112
1331.0,-9.77,-0.599,2.319,-0.126,-0.121,-0.112
1335.0,-9.804,-0.512,2.503,-0.052,-0.126,-0.105
1339.0,-9.804,-0.512,2.503,-0.052,-0.126,-0.105
1343.0,-9.944,-0.19,2.822,0.073,-0.12,-0.089
1347.0,-9.944,-0.19,2.822,0.073,-0.12,-0.089
1351.0,-9.944,-0.19,2.822,0.073,-0.12,-0.089
1355.0,-10.065,0.263,3.092,0.174,-0.122,-0.066
1359.0,-10.065,0.263,3.092,0.174,-0.122,-0.066
1363.0,-10.022,0.59,3.221,0.212,-0.14,-0.038
1367.0,-10.022,0.59,3.221,0.212,-0.14,-0.038
1371.0,-10.022,0.59,3.221,0.212,-0.14,-0.038
1375.0,-9.798,0.712,3.156,0.19,-0.169,-0.016
1379.0,-9.798,0.712,3.156,0.19,-0.169,-0.016
1383.0,-9.54,0.695,2.975,0.128,-0.191,-0.008
1387.0,-9.54,0.695,2.975,0.128,-0.191,-0.008
1391.0,-9.54,0.695,2.975,0.128,-0.191,-0.008
1395.0,-9.507,0.631,2.749,0.048,-0.203,-0.003
1398.0,-9.507,0.631,2.749,0.048,-0.203,-0.003
1402.0,-9.522,0.433,2.424,-0.036,-0.201,0.004
1406.0,-9.522,0.433,2.424,-0.036,-0.201,0.004
1410.0,-9.522,0.433,2.424,-0.036,-0.201,0.004
1414.0,-9.628,0.22,2.219,-0.118,-0.182,0.01
1418.0,-9.628,0.22,2.219,-0.118,-0.182,0.01
1422.0,-9.869,0.076,2.231,-0.188,-0.166,0.025
1426.0,-9.869,0.076,2.231,-0.188,-0.166,0.025
1430.0,-9.869,0.076,2.231,-0.188,-0.166,0.025
1434.0,-10.107,-0.106,2.263,-0.248,-0.166,0.053
1438.0,-10.107,-0.106,2.263,-0.248,-0.166,0.053
1442.0,-10.182,-0.259,2.279,-0.302,-0.183,0.083
1446.0,-10.182,-0.259,2.279,-0.302,-0.183,0.083
1450.0,-10.182,-0.259,2.279,-0.302,-0.183,0.083
1454.0,-10.156,-0.43,2.249,-0.346,-0.205,0.11
1458.0,-10.156,-0.43,2.249,-0.346,-0.205,0.11
1462.0,-10.041,-0.549,2.195,-0.384,-0.221,0.131
1466.0,-10.041,-0.549,2.195,-0.384,-0.221,0.131
1470.0,-9.942,-0.622,2.119,-0.384,-0.221,0.131
1474.0,-9.942,-0.622,2.119,-0.415,-0.224,0.145
1478.0,-9.942,-0.622,2.119,-0.415,-0.224,0.145
1482.0,-9.856,-0.662,2.083,-0.451,-0.218,0.151
1486.0,-9.856,-0.662,2.083,-0.451,-0.218,0.151
1490.0,-9.747,-0.678,2.104,-0.451,-0.218,0.151
1494.0,-9.747,-0.678,2.104,-0.482,-0.209,0.147
1498.0,-9.747,-0.678,2.104,-0.482,-0.209,0.147
1502.0,-9.581,-0.622,2.149,-0.498,-0.198,0.137
1506.0,-9.581,-0.622,2.149,-0.498,-0.198,0.137
1510.0,-9.365,-0.577,2.124,-0.498,-0.189,0.123
1514.0,-9.365,-0.577,2.124,-0.515,-0.189,0.123
1518.0,-9.365,-0.577,2.124,-0.515,-0.189,0.123
1522.0,-9.198,-0.516,2.118,-0.538,-0.178,0.103
1526.0,-9.198,-0.516,2.118,-0.538,-0.178,0.103
1530.0,-9.112,-0.483,2.115,-0.561,-0.162,0.083
1534.0,-9.112,-0.483,2.115,-0.561,-0.162,0.083
1538.0,-9.112,-0.483,2.115,-0.561,-0.162,0.083
1542.0,-9.063,-0.508,2.104,-0.583,-0.143,0.063
1546.0,-9.063,-0.508,2.104,-0.583,-0.143,0.063
1550.0,-9.038,-0.555,2.081,-0.601,-0.127,0.047
1554.0,-9.038,-0.555,2.081,-0.601,-0.127,0.047
1558.0,-9.038,-0.555,2.081,-0.601,-0.127,0.047
1562.0,-9.001,-0.57,2.103,-0.614,-0.114,0.037
1566.0,-9.001,-0.57,2.103,-0.614,-0.114,0.037
1570.0,-9.053,-0.549,2.118,-0.628,-0.105,0.031
1574.0,-9.053,-0.549,2.118,-0.628,-0.105,0.031
1578.0,-9.053,-0.549,2.118,-0.628,-0.105,0.031
1582.0,-9.105,-0.562,2.122,-0.651,-0.093,0.025
1586.0,-9.105,-0.562,2.122,-0.651,-0.093,0.025
1590.0,-9.107,-0.579,2.122,-0.682,-0.083,0.019
1594.0,-9.107,-0.579,2.122,-0.682,-0.083,0.019
1598.0,-9.107,-0.579,2.122,-0.682,-0.083,0.019
1602.0,-9.219,-0.597,2.168,-0.71,-0.069,0.013
1606.0,-9.219,-0.597,2.168,-0.71,-0.069,0.013
1610.0,-9.531,-0.529,2.276,-0.729,-0.047,0.017
1614.0,-9.531,-0.529,2.276,-0.729,-0.047,0.017
1618.0,-9.531,-0.529,2.392,-0.729,-0.047,0.017
1622.0,-9.881,-0.523,2.392,-0.752,-0.024,0.036
1626.0,-9.881,-0.523,2.392,-0.752,-0.024,0.036
1630.0,-9.994,-0.581,2.498,-0.78,-0.013,0.067
1634.0,-9.994,-0.581,2.498,-0.78,-0.013,0.067
1638.0,-9.994,-0.669,2.556,-0.78,-0.013,0.067
1642.0,-9.918,-0.669,2.556,-0.804,-0.013,0.097
1646.0,-9.918,-0.669,2.556,-0.804,-0.013,0.097
1650.0,-9.745,-0.723,2.566,-0.823,-0.017,0.12
1654.0,-9.745,-0.723,2.566,-0.823,-0.017,0.12
1658.0,-9.554,-0.772,2.512,-0.823,-0.017,0.12
1662.0,-9.554,-0.772,2.512,-0.841,-0.02,0.133
1666.0,-9.554,-0.772,2.512,-0.841,-0.02,0.133
1670.0,-9.418,-0.77,2.505,-0.854,-0.018,0.14
1674.0,-9.418,-0.77,2.505,-0.854,-0.018,0.14
1678.0,-9.383,-0.746,2.555,-0.854,-0.018,0.142
1682.0,-9.383,-0.746,2.555,-0.862,-0.017,0.142
1686.0,-9.383,-0.746,2.555,-0.862,-0.017,0.142
1690.0,-9.329,-0.729,2.549,-0.875,-0.021,0.144
1694.0,-9.329,-0.729,2.549,-0.875,-0.021,0.144
1698.0,-9.289,-0.736,2.489,-0.875,-0.029,0.143
1702.0,-9.289,-0.736,2.489,-0.9,-0.029,0.143
1706.0,-9.289,-0.736,2.489,-0.9,-0.029,0.143
1710.0,-9.283,-0.781,2.468,-0.938,-0.029,0.139
1714.0,-9.283,-0.781,2.468,-0.938,-0.029,0.139
1718.0,-9.377,-0.822,2.474,-0.982,-0.028,0.133
1722.0,-9.377,-0.822,2.474,-0.982,-0.028,0.133
1726.0,-9.377,-0.822,2.474,-0.982,-0.028,0.133
1730.0,-9.461,-0.904,2.423,-1.035,-0.024,0.127
1734.0,-9.461,-0.904,2.423,-1.035,-0.024,0.127
1738.0,-9.548,-0.973,2.484,-1.088,-0.021,0.123
1742.0,-9.548,-0.973,2.484,-1.088,-0.021,0.123
1746.0,-9.548,-0.973,2.484,-1.088,-0.021,0.123
1750.0,-9.576,-1.022,2.509,-1.131,-0.029,0.121
1754.0,-9.576,-1.022,2.509,-1.131,-0.029,0.121
1758.0,-9.507,-1.111,2.494,-1.162,-0.041,0.122
1762.0,-9.507,-1.111,2.494,-1.162,-0.041,0.122
1766.0,-9.507,-1.111,2.494,-1.162,-0.041,0.122
1770.0,-9.463,-1.203,2.432,-1.182,-0.048,0.124
1774.0,-9.463,-1.203,2.432,-1.182,-0.048,0.124
1778.0,-9.395,-1.323,2.341,-1.198,-0.045,0.12
1782.0,-9.395,-1.323,2.341,-1.198,-0.045,0.12
1786.0,-9.395,-1.323,2.341,-1.198,-0.045,0.12
1790.0,-9.506,-1.376,2.381,-1.204,-0.037,0.121
1794.0,-9.506,-1.376,2.381,-1.204,-0.037,0.121
1798.0,-9.535,-1.573,2.267,-1.197,-0.022,0.129
1802.0,-9.535,-1.573,2.267,-1.197,-0.022,0.129
1806.0,-9.535,-1.573,2.322,-1.197,-0.022,0.129
1810.0,-9.52,-1.731,2.322,-1.172,-0.006,0.14
1814.0,-9.52,-1.731,2.322,-1.172,-0.006,0.14
1818.0,-9.535,-1.785,2.463,-1.133,-0.009,0.152
1822.0,-9.535,-1.785,2.463,-1.133,-0.009,0.152
1826.0,-9.385,-1.834,2.465,-1.133,-0.009,0.152
1830.0,-9.385,-1.834,2.465,-1.08,-0.026,0.158
1834.0,-9.385,-1.834,2.465,-1.08,-0.026,0.158
1838.0,-9.312,-1.8,2.468,-1.023,-0.037,0.154
1842.0,-9.312,-1.8,2.468,-1.023,-0.037,0.154
1846.0,-9.339,-1.813,2.453,-1.023,-0.037,0.154
1850.0,-9.339,-1.813,2.453,-0.963,-0.033,0.149
1854.0,-9.339,-1.813,2.453,-0.963,-0.033,0.149
1858.0,-9.438,-1.756,2.578,-0.896,-0.025,0.146
1862.0,-9.438,-1.756,2.578,-0.896,-0.025,0.146
1866.0,-9.56,-1.742,2.633,-0.896,-0.03,0.151
1870.0,-9.56,-1.742,2.633,-0.829,-0.03,0.151
1874.0,-9.56,-1.742,2.633,-0.829,-0.03,0.151
1878.0,-9.51,-1.817,2.56,-0.761,-0.035,0.148
1882.0,-9.51,-1.817,2.56,-0.761,-0.035,0.148
1886.0,-9.537,-1.81,2.627,-0.692,-0.039,0.138
1890.0,-9.537,-1.81,2.627,-0.692,-0.039,0.138
1894.0,-9.537,-1.81,2.627,-0.692,-0.039,0.138
1898.0,-9.656,-1.772,2.698,-0.622,-0.051,0.128
1902.0,-9.656,-1.772,2.698,-0.622,-0.051,0.128
1906.0,-9.791,-1.715,2.739,-0.557,-0.063,0.117
1910.0,-9.791,-1.715,2.739,-0.557,-0.063,0.117
1914.0,-9.791,-1.715,2.739,-0.557,-0.063,0.117
1918.0,-9.843,-1.71,2.706,-0.503,-0.075,0.102
1922.0,-9.843,-1.71,2.706,-0.503,-0.075,0.102
1926.0,-9.833,-1.729,2.642,-0.453,-0.084,0.088
1930.0,-9.833,-1.729,2.642,-0.453,-0.084,0.088
1934.0,-9.833,-1.729,2.642,-0.453,-0.084,0.088
1938.0,-9.723,-1.717,2.578,-0.402,-0.095,0.074
1942.0,-9.723,-1.717,2.578,-0.402,-0.095,0.074
1946.0,-9.664,-1.683,2.517,-0.348,-0.104,0.061
1950.0,-9.664,-1.683,2.517,-0.348,-0.104,0.061
1954.0,-9.664,-1.683,2.517,-0.348,-0.104,0.061
1958.0,-9.621,-1.631,2.431,-0.291,-0.105,0.046
1962.0,-9.621,-1.631,2.431,-0.291,-0.105,0.046
1966.0,-9.826,-1.536,2.447,-0.231,-0.1,0.034
1969.0,-9.826,-1.536,2.447,-0.231,-0.1,0.034
1973.0,-9.826,-1.536,2.455,-0.231,-0.1,0.034
1977.0,-9.944,-1.445,2.455,-0.179,-0.099,0.027
1981.0,-9.944,-1.445,2.455,-0.179,-0.099,0.027
1985.0,-9.808,-1.379,2.448,-0.139,-0.105,0.02
1989.0,-9.808,-1.379,2.448,-0.139,-0.105,0.02
1993.0,-9.808,-1.273,2.453,-0.139,-0.105,0.02
1997.0,-9.704,-1.273,2.453,-0.11,-0.114,0.014
2001.0,-9.704,-1.273,2.453,-0.11,-0.114,0.014
2005.0,-9.617,-1.214,2.354,-0.084,-0.11,0.01
2009.0,-9.617,-1.214,2.354,-0.084,-0.11,0.01
2013.0,-9.709,-1.076,2.42,-0.084,-0.11,0.01
2017.0,-9.709,-1.076,2.42,-0.055,-0.094,0.011
2021.0,-9.709,-1.076,2.42,-0.055,-0.094,0.011
2025.0,-9.692,-0.97,2.46,-0.026,-0.089,0.02
2029.0,-9.692,-0.97,2.46,-0.026,-0.089,0.02
2033.0,-9.576,-0.896,2.436,-0.026,-0.089,0.03
2037.0,-9.576,-0.896,2.436,-0.004,-0.09,0.03
2041.0,-9.576,-0.896,2.436,-0.004,-0.09,0.03
2045.0,-9.611,-0.764,2.428,-0.001,-0.088,0.035
2049.0,-9.611,-0.764,2.428,-0.001,-0.088,0.035
2053.0,-9.519,-0.762,2.292,-0.001,-0.077,0.036
2057.0,-9.519,-0.762,2.292,-0.018,-0.077,0.036
2061.0,-9.519,-0.762,2.292,-0.018,-0.077,0.036
2065.0,-9.491,-0.744,2.264,-0.043,-0.062,0.041
2069.0,-9.491,-0.744,2.264,-0.043,-0.062,0.041
2073.0,-9.581,-0.67,2.332,-0.07,-0.055,0.053
2077.0,-9.581,-0.67,2.332,-0.07,-0.055,0.053
2081.0,-9.581,-0.67,2.332,-0.07,-0.055,0.053
2085.0,-9.579,-0.656,2.35,-0.095,-0.056,0.068
2089.0,-9.579,-0.656,2.35,-0.095,-0.056,0.068
2093.0,-9.523,-0.643,2.32,-0.123,-0.063,0.079
2097.0,-9.523,-0.643,2.32,-0.123,-0.063,0.079
2101.0,-9.523,-0.643,2.32,-0.123,-0.063,0.079
2105.0,-9.543,-0.611,2.331,-0.159,-0.065,0.084
2109.0,-9.543,-0.611,2.331,-0.159,-0.065,0.084
2113.0,-9.573,-0.561,2.335,-0.202,-0.063,0.089
2117.0,-9.573,-0.561,2.335,-0.202,-0.063,0.089
2121.0,-9.573,-0.561,2.335,-0.202,-0.063,0.089
2125.0,-9.562,-0.524,2.32,-0.25,-0.062,0.095
2129.0,-9.562,-0.524,2.32,-0.25,-0.062,0.095
2133.0,-9.482,-0.439,2.382,-0.303,-0.065,0.101
2137.0,-9.482,-0.439,2.382,-0.303,-0.065,0.101
2141.0,-9.482,-0.439,2.382,-0.303,-0.065,0.101
2145.0,-9.441,-0.398,2.419,-0.359,-0.072,0.105
2149.0,-9.441,-0.398,2.419,-0.359,-0.072,0.105
2153.0,-9.456,-0.396,2.35,-0.418,-0.074,0.105
2157.0,-9.456,-0.396,2.35,-0.418,-0.074,0.105
2161.0,-9.456,-0.396,2.386,-0.418,-0.074,0.105
2165.0,-9.593,-0.376,2.386,-0.478,-0.059,0.102
2169.0,-9.593,-0.376,2.386,-0.478,-0.059,0.102
2173.0,-9.788,-0.323,2.496,-0.533,-0.044,0.108
2177.0,-9.788,-0.323,2.496,-0.533,-0.044,0.108
2181.0,-9.788,-0.291,2.603,-0.533,-0.044,0.108
2185.0,-9.816,-0.291,2.603,-0.577,-0.049,0.122
2189.0,-9.816,-0.291,2.603,-0.577,-0.049,0.122
2193.0,-9.676,-0.258,2.622,-0.615,-0.064,0.135
2197.0,-9.676,-0.258,2.622,-0.615,-0.064,0.135
2201.0,-9.567,-0.226,2.588,-0.615,-0.064,0.135
2205.0,-9.567,-0.226,2.588,-0.649,-0.073,0.141
2209.0,-9.567,-0.226,2.588,-0.649,-0.073,0.141
2213.0,-9.583,-0.186,2.539,-0.682,-0.063,0.14
2217.0,-9.583,-0.186,2.539,-0.682,-0.063,0.14
2221.0,-9.748,-0.108,2.627,-0.682,-0.043,0.142
2225.0,-9.748,-0.108,2.627,-0.719,-0.043,0.142
2229.0,-9.748,-0.108,2.627,-0.719,-0.043,0.142
2233.0,-9.835,-0.023,2.783,-0.764,-0.035,0.153
2237.0,-9.835,-0.023,2.783,-0.764,-0.035,0.153
2241.0,-9.711,-0.048,2.838,-0.816,-0.045,0.164
2245.0,-9.711,-0.048,2.838,-0.816,-0.045,0.164
2249.0,-9.711,-0.048,2.838,-0.816,-0.045,0.164
2253.0,-9.568,-0.036,2.851,-0.87,-0.055,0.165
2257.0,-9.568,-0.036,2.851,-0.87,-0.055,0.165
2261.0,-9.532,0.001,2.886,-0.93,-0.061,0.161
2265.0,-9.532,0.001,2.886,-0.93,-0.061,0.161
2269.0,-9.532,0.001,2.886,-0.93,-0.061,0.161
2273.0,-9.546,-0.005,2.849,-0.994,-0.059,0.157
2277.0,-9.546,-0.005,2.849,-0.994,-0.059,0.157
2281.0,-9.436,-0.067,2.785,-1.066,-0.052,0.149
2285.0,-9.436,-0.067,2.785,-1.066,-0.052,0.149
2289.0,-9.436,-0.067,2.785,-1.066,-0.052,0.149
2293.0,-9.368,-0.127,2.758,-1.144,-0.048,0.141
2297.0,-9.368,-0.127,2.758,-1.144,-0.048,0.141
2301.0,-9.398,-0.217,2.758,-1.23,-0.044,0.13
2305.0,-9.398,-0.217,2.758,-1.23,-0.044,0.13
2309.0,-9.398,-0.217,2.758,-1.23,-0.044,0.13
2313.0,-9.376,-0.318,2.779,-1.313,-0.044,0.115
2317.0,-9.376,-0.318,2.779,-1.313,-0.044,0.115
2321.0,-9.324,-0.447,2.751,-1.385,-0.053,0.106
2325.0,-9.324,-0.447,2.751,-1.385,-0.053,0.106
2329.0,-9.324,-0.447,2.751,-1.385,-0.053,0.106
2333.0,-9.301,-0.562,2.722,-1.444,-0.061,0.099
2337.0,-9.301,-0.562,2.722,-1.444,-0.061,0.099
2341.0,-9.252,-0.695,2.673,-1.489,-0.064,0.095
2345.0,-9.252,-0.695,2.673,-1.489,-0.064,0.095
2349.0,-9.252,-0.695,2.673,-1.489,-0.064,0.095
2353.0,-9.256,-0.787,2.681,-1.523,-0.061,0.095
2357.0,-9.256,-0.787,2.681,-1.523,-0.061,0.095
2361.0,-9.414,-0.857,2.726,-1.551,-0.055,0.1
2365.0,-9.414,-0.857,2.726,-1.551,-0.055,0.1
2369.0,-9.414,-0.857,2.797,-1.551,-0.055,0.1
2373.0,-9.534,-0.915,2.797,-1.574,-0.051,0.11
2377.0,-9.534,-0.915,2.797,-1.574,-0.051,0.11
2381.0,-9.477,-0.996,2.831,-1.595,-0.063,0.123
2385.0,-9.477,-0.996,2.831,-1.595,-0.063,0.123
2389.0,-9.347,-1.089,2.798,-1.595,-0.063,0.123
2392.0,-9.347,-1.089,2.798,-1.62,-0.079,0.128
2396.0,-9.347,-1.089,2.798,-1.62,-0.079,0.128
2400.0,-9.306,-1.138,2.81,-1.648,-0.086,0.126
2404.0,-9.306,-1.138,2.81,-1.648,-0.086,0.126
2408.0,-9.281,-1.214,2.797,-1.648,-0.086,0.121
2412.0,-9.281,-1.214,2.797,-1.676,-0.088,0.121
2416.0,-9.281,-1.214,2.797,-1.676,-0.088,0.121
2420.0,-9.204,-1.262,2.774,-1.699,-0.085,0.119
2424.0,-9.204,-1.262,2.774,-1.699,-0.085,0.119
2428.0,-9.149,-1.333,2.768,-1.699,-0.081,0.12
2432.0,-9.149,-1.333,2.768,-1.711,-0.081,0.12
2436.0,-9.149,-1.333,2.768,-1.711,-0.081,0.12
2440.0,-9.074,-1.387,2.82,-1.712,-0.084,0.121
2444.0,-9.074,-1.387,2.82,-1.712,-0.084,0.121
2448.0,-9.011,-1.446,2.87,-1.702,-0.097,0.119
2452.0,-9.011,-1.446,2.87,-1.702,-0.097,0.119
2456.0,-9.011,-1.446,2.87,-1.702,-0.097,0.119
2460.0,-8.864,-1.546,2.801,-1.685,-0.11,0.106
2464.0,-8.864,-1.546,2.801,-1.685,-0.11,0.106
2468.0,-8.768,-1.655,2.655,-1.667,-0.114,0.087
2472.0,-8.768,-1.655,2.655,-1.667,-0.114,0.087
2476.0,-8.768,-1.655,2.655,-1.667,-0.114,0.087
2480.0,-8.853,-1.712,2.646,-1.642,-0.107,0.072
2484.0,-8.853,-1.712,2.646,-1.642,-0.107,0.072
2488.0,-8.946,-1.753,2.712,-1.611,-0.103,0.069
2492.0,-8.946,-1.753,2.712,-1.611,-0.103,0.069
2496.0,-8.946,-1.753,2.712,-1.611,-0.103,0.069
2500.0,-8.886,-1.864,2.617,-1.575,-0.106,0.071
2504.0,-8.886,-1.864,2.617,-1.575,-0.106,0.071
2508.0,-8.882,-1.968,2.583,-1.527,-0.105,0.075
2512.0,-8.882,-1.968,2.583,-1.527,-0.105,0.075
2516.0,-8.882,-1.968,2.583,-1.527,-0.105,0.075
2520.0,-9.008,-2.023,2.589,-1.466,-0.101,0.082
2524.0,-9.008,-2.023,2.589,-1.466,-0.101,0.082
2528.0,-9.233,-2.053,2.609,-1.398,-0.091,0.093
2532.0,-9.233,-2.053,2.609,-1.398,-0.091,0.093
2536.0,-9.233,-2.053,2.565,-1.398,-0.091,0.093
2540.0,-9.392,-2.116,2.565,-1.331,-0.082,0.109
2544.0,-9.392,-2.116,2.565,-1.331,-0.082,0.109
2548.0,-9.579,-2.202,2.553,-1.258,-0.072,0.13
2552.0,-9.579,-2.202,2.553,-1.258,-0.072,0.13
2556.0,-9.579,-2.232,2.6,-1.258,-0.072,0.13
2560.0,-9.765,-2.232,2.6,-1.172,-0.063,0.158
2564.0,-9.765,-2.232,2.6,-1.172,-0.063,0.158
2568.0,-9.884,-2.204,2.664,-1.083,-0.06,0.183
2572.0,-9.884,-2.204,2.664,-1.083,-0.06,0.183
2576.0,-9.867,-2.186,2.664,-1.083,-0.06,0.183
2580.0,-9.867,-2.186,2.664,-0.998,-0.062,0.205
2584.0,-9.867,-2.186,2.664,-0.998,-0.062,0.205
2588.0,-9.75,-2.157,2.639,-0.919,-0.065,0.216
2592.0,-9.75,-2.157,2.639,-0.919,-0.065,0.216
2596.0,-9.654,-2.092,2.623,-0.919,-0.065,0.219
2600.0,-9.654,-2.092,2.623,-0.845,-0.066,0.219
2604.0,-9.654,-2.092,2.623,-0.845,-0.066,0.219
2608.0,-9.618,-2.032,2.555,-0.78,-0.062,0.214
2612.0,-9.618,-2.032,2.555,-0.78,-0.062,0.214
2616.0,-9.641,-1.954,2.556,-0.721,-0.049,0.205
2620.0,-9.641,-1.954,2.556,-0.721,-0.049,0.205
2624.0,-9.641,-1.954,2.556,-0.721,-0.049,0.205
2628.0,-9.779,-1.897,2.614,-0.669,-0.038,0.195
2632.0,-9.779,-1.897,2.614,-0.669,-0.038,0.195
2636.0,-9.879,-1.794,2.699,-0.625,-0.035,0.186
2640.0,-9.879,-1.794,2.699,-0.625,-0.035,0.186
2644.0,-9.879,-1.794,2.699,-0.625,-0.035,0.186
2648.0,-9.848,-1.792,2.653,-0.592,-0.043,0.174
2652.0,-9.848,-1.792,2.653,-0.592,-0.043,0.174
2656.0,-9.776,-1.765,2.609,-0.562,-0.048,0.154
2660.0,-9.776,-1.765,2.609,-0.562,-0.048,0.154
2664.0,-9.776,-1.765,2.609,-0.562,-0.048,0.154
2668.0,-9.831,-1.713,2.618,-0.529,-0.05,0.133
2672.0,-9.831,-1.713,2.618,-0.529,-0.05,0.133
2676.0,-9.881,-1.648,2.679,-0.492,-0.046,0.114
2680.0,-9.881,-1.648,2.679,-0.492,-0.046,0.114
2684.0,-9.881,-1.648,2.679,-0.492,-0.046,0.114
2688.0,-9.878,-1.511,2.751,-0.454,-0.059,0.103
2692.0,-9.878,-1.511,2.751,-0.454,-0.059,0.103
2696.0,-9.811,-1.408,2.742,-0.429,-0.076,0.09
2700.0,-9.811,-1.408,2.742,-0.429,-0.076,0.09
2704.0,-9.811,-1.408,2.742,-0.429,-0.076,0.09
2708.0,-9.553,-1.376,2.609,-0.416,-0.087,0.074
2712.0,-9.553,-1.376,2.609,-0.416,-0.087,0.074
2716.0,-9.547,-1.287,2.566,-0.41,-0.089,0.059
2720.0,-9.547,-1.287,2.566,-0.41,-0.089,0.059
2724.0,-9.547,-1.287,2.608,-0.41,-0.089,0.059
2728.0,-9.515,-1.193,2.608,-0.41,-0.081,0.046
2732.0,-9.515,-1.193,2.608,-0.41,-0.081,0.046
2736.0,-9.351,-1.199,2.489,-0.427,-0.087,0.038
2740.0,-9.351,-1.199,2.489,-0.427,-0.087,0.038
2744.0,-9.431,-1.113,2.571,-0.427,-0.087,0.038
2748.0,-9.431,-1.113,2.571,-0.448,-0.09,0.03
2752.0,-9.431,-1.113,2.571,-0.448,-0.09,0.03
2756.0,-9.581,-1.105,2.552,-0.469,-0.093,0.023
2760.0,-9.581,-1.105,2.552,-0.469,-0.093,0.023
2764.0,-9.657,-0.988,2.635,-0.469,-0.093,0.019
2768.0,-9.657,-0.988,2.635,-0.494,-0.096,0.019
2772.0,-9.657,-0.988,2.635,-0.494,-0.096,0.019
2776.0,-9.618,-0.986,2.527,-0.552,-0.108,0.016
2780.0,-9.618,-0.986,2.527,-0.552,-0.108,0.016
2784.0,-9.623,-1.024,2.441,-0.552,-0.107,0.011
2788.0,-9.623,-1.024,2.441,-0.625,-0.107,0.011
2792.0,-9.623,-1.024,2.441,-0.625,-0.107,0.011
2796.0,-9.67,-1.059,2.418,-0.701,-0.104,0.015
2800.0,-9.67,-1.059,2.418,-0.701,-0.104,0.015
2804.0,-9.829,-1.114,2.433,-0.771,-0.106,0.022
2808.0,-9.829,-1.114,2.433,-0.771,-0.106,0.022
2812.0,-9.829,-1.114,2.433,-0.771,-0.106,0.022
2816.0,-9.623,-1.169,2.493,-0.823,-0.118,0.035
2820.0,-9.623,-1.169,2.493,-0.823,-0.118,0.035
2824.0,-9.467,-1.208,2.542,-0.868,-0.139,0.047
2828.0,-9.467,-1.208,2.542,-0.868,-0.139,0.047
2832.0,-9.467,-1.208,2.542,-0.868,-0.139,0.047
2836.0,-9.435,-1.233,2.536,-0.907,-0.151,0.05
2840.0,-9.435,-1.233,2.536,-0.907,-0.151,0.05
2844.0,-9.269,-1.318,2.42,-0.94,-0.147,0.05
2848.0,-9.269,-1.318,2.42,-0.94,-0.147,0.05
2852.0,-9.269,-1.318,2.42,-0.94,-0.147,0.05
2856.0,-9.157,-1.329,2.433,-0.966,-0.136,0.062
2860.0,-9.157,-1.329,2.433,-0.966,-0.136,0.062
2864.0,-9.301,-1.355,2.452,-0.986,-0.121,0.089
2868.0,-9.301,-1.355,2.452,-0.986,-0.121,0.089
2872.0,-9.301,-1.355,2.452,-0.986,-0.121,0.089
2876.0,-9.459,-1.456,2.46,-0.995,-0.1,0.117
2880.0,-9.459,-1.456,2.46,-0.995,-0.1,0.117
2884.0,-9.556,-1.494,2.56,-1.0,-0.09,0.139
2888.0,-9.556,-1.494,2.56,-1.0,-0.09,0.139
2892.0,-9.556,-1.494,2.554,-1.0,-0.09,0.139
2896.0,-9.602,-1.582,2.554,-1.009,-0.092,0.154
2900.0,-9.602,-1.582,2.554,-1.009,-0.092,0.154
2904.0,-9.607,-1.659,2.557,-1.018,-0.089,0.16
2908.0,-9.607,-1.659,2.557,-1.018,-0.089,0.16
2912.0,-9.607,-1.75,2.52,-1.018,-0.089,0.16
2916.0,-9.567,-1.75,2.52,-1.026,-0.087,0.16
2920.0,-9.567,-1.75,2.52,-1.026,-0.087,0.16
2924.0,-9.598,-1.794,2.59,-1.022,-0.082,0.159
2928.0,-9.598,-1.794,2.59,-1.022,-0.082,0.159
2932.0,-9.709,-1.771,2.731,-1.022,-0.082,0.159
2936.0,-9.709,-1.771,2.731,-1.007,-0.078,0.159
2940.0,-9.709,-1.771,2.731,-1.007,-0.078,0.159
2944.0,-9.689,-1.838,2.755,-0.987,-0.08,0.152
2948.0,-9.689,-1.838,2.755,-0.987,-0.08,0.152
2952.0,-9.556,-1.9,2.694,-0.987,-0.08,0.135
2956.0,-9.556,-1.9,2.694,-0.965,-0.082,0.135
2960.0,-9.556,-1.9,2.694,-0.965,-0.082,0.135
2963.0,-9.612,-1.856,2.764,-0.949,-0.082,0.113
2967.0,-9.612,-1.856,2.764,-0.949,-0.082,0.113
2971.0,-9.714,-1.847,2.763,-0.949,-0.079,0.089
2975.0,-9.714,-1.847,2.763,-0.944,-0.079,0.089
2979.0,-9.714,-1.847,2.763,-0.944,-0.079,0.089
2983.0,-9.578,-1.924,2.734,-0.944,-0.078,0.069
2987.0,-9.578,-1.924,2.734,-0.944,-0.078,0.069
2991.0,-9.507,-1.877,2.847,-0.936,-0.085,0.051
2995.0,-9.507,-1.877,2.847,-0.936,-0.085,0.051
2999.0,-9.507,-1.877,2.847,-0.936,-0.085,0.051
