deltaTime,Acc_X,Acc_Y,Acc_Z,Gyro_X,Gyro_Y,Gyro_Z
0.0,-11.302,-4.933,3.528,-0.15,-0.103,-0.689
3.0,-11.302,-4.933,3.528,-0.15,-0.103,-0.689
6.0,-11.302,-4.67,2.81,-0.15,-0.103,-0.689
9.0,-9.957,-4.67,2.81,-0.177,-0.201,-0.747
12.0,-9.957,-4.67,2.81,-0.177,-0.201,-0.747
15.0,-9.957,-4.67,2.81,-0.177,-0.201,-0.747
18.0,-9.2,-4.729,1.969,-0.177,-0.258,-0.802
21.0,-9.2,-4.729,1.969,-0.177,-0.258,-0.802
24.0,-9.2,-4.729,1.969,-0.177,-0.258,-0.802
27.0,-8.832,-4.875,1.251,-0.124,-0.258,-0.814
30.0,-8.832,-4.875,1.251,-0.124,-0.258,-0.814
34.0,-8.832,-4.875,1.251,-0.124,-0.258,-0.814
38.0,-9.076,-5.067,0.614,-0.014,-0.209,-0.748
42.0,-9.076,-5.067,0.614,-0.014,-0.209,-0.748
46.0,-9.777,-4.926,0.121,-0.014,-0.123,-0.617
50.0,-9.777,-4.926,0.121,0.12,-0.123,-0.617
54.0,-9.777,-4.926,0.121,0.12,-0.123,-0.617
57.0,-10.725,-4.588,0.013,0.192,-0.062,-0.503
61.0,-10.725,-4.588,0.013,0.192,-0.062,-0.503
65.0,-11.596,-4.366,0.165,0.192,-0.062,-0.503
69.0,-11.596,-4.366,0.165,0.162,-0.064,-0.421
73.0,-11.596,-4.366,0.165,0.162,-0.064,-0.421
77.0,-11.909,-4.318,0.416,0.056,-0.105,-0.359
81.0,-11.909,-4.318,0.416,0.056,-0.105,-0.359
85.0,-11.909,-4.644,0.667,0.056,-0.105,-0.359
89.0,-11.389,-4.644,0.667,-0.072,-0.172,-0.316
93.0,-11.389,-4.644,0.667,-0.072,-0.172,-0.316
97.0,-10.358,-4.962,0.765,-0.125,-0.25,-0.288
101.0,-10.358,-4.962,0.765,-0.125,-0.25,-0.288
105.0,-9.511,-4.513,0.647,-0.125,-0.25,-0.288
109.0,-9.511,-4.513,0.647,-0.097,-0.294,-0.306
113.0,-9.511,-4.513,0.647,-0.097,-0.294,-0.306
117.0,-8.923,-3.932,0.665,-0.087,-0.289,-0.36
121.0,-8.923,-3.932,0.665,-0.087,-0.289,-0.36
125.0,-8.618,-3.389,0.925,-0.087,-0.289,-0.398
129.0,-8.618,-3.389,0.925,-0.114,-0.234,-0.398
133.0,-8.618,-3.389,0.925,-0.114,-0.234,-0.398
137.0,-8.284,-2.98,1.341,-0.162,-0.178,-0.398
141.0,-8.284,-2.98,1.341,-0.162,-0.178,-0.398
145.0,-8.043,-3.004,1.644,-0.201,-0.134,-0.362
149.0,-8.043,-3.004,1.644,-0.201,-0.134,-0.362
153.0,-8.043,-3.004,1.644,-0.201,-0.134,-0.362
157.0,-7.97,-3.249,1.982,-0.199,-0.092,-0.308
161.0,-7.97,-3.249,1.982,-0.199,-0.092,-0.308
165.0,-7.886,-3.382,2.323,-0.157,-0.066,-0.256
169.0,-7.886,-3.382,2.323,-0.157,-0.066,-0.256
173.0,-7.886,-3.382,2.323,-0.157,-0.066,-0.256
177.0,-7.914,-3.466,2.511,-0.105,-0.063,-0.221
181.0,-7.914,-3.466,2.511,-0.105,-0.063,-0.221
185.0,-8.066,-3.668,2.76,-0.054,-0.06,-0.199
189.0,-8.066,-3.668,2.76,-0.054,-0.06,-0.199
193.0,-8.066,-3.668,2.76,-0.054,-0.06,-0.199
197.0,-8.039,-3.721,3.011,0.003,-0.057,-0.197
200.0,-8.039,-3.721,3.011,0.003,-0.057,-0.197
204.0,-7.842,-3.703,3.272,0.058,-0.064,-0.219
208.0,-7.842,-3.703,3.272,0.058,-0.064,-0.219
212.0,-7.842,-3.703,3.272,0.058,-0.064,-0.219
216.0,-7.747,-3.641,3.553,0.115,-0.068,-0.251
220.0,-7.747,-3.641,3.553,0.115,-0.068,-0.251
224.0,-7.735,-3.276,3.754,0.165,-0.064,-0.284
228.0,-7.735,-3.276,3.754,0.165,-0.064,-0.284
232.0,-7.735,-3.276,3.754,0.165,-0.064,-0.284
236.0,-7.92,-3.096,4.031,0.167,-0.051,-0.303
240.0,-7.92,-3.096,4.031,0.167,-0.051,-0.303
243.0,-7.257,-2.92,4.13,0.147,-0.03,-0.273
247.0,-7.257,-2.92,4.13,0.147,-0.03,-0.273
251.0,-7.257,-2.92,4.13,0.147,-0.03,-0.273
255.0,-6.772,-2.748,4.043,0.104,-0.011,-0.242
259.0,-6.772,-2.748,4.043,0.104,-0.011,-0.242
263.0,-6.533,-2.705,3.955,0.104,-0.014,-0.198
267.0,-6.533,-2.705,3.955,0.028,-0.014,-0.198
271.0,-6.533,-2.705,3.955,0.028,-0.014,-0.198
275.0,-6.686,-2.809,3.711,-0.072,-0.034,-0.143
279.0,-6.686,-2.809,3.711,-0.072,-0.034,-0.143
283.0,-7.122,-3.108,3.492,-0.072,-0.066,-0.085
287.0,-7.122,-3.108,3.492,-0.173,-0.066,-0.085
291.0,-7.122,-3.108,3.492,-0.173,-0.066,-0.085
295.0,-7.654,-3.534,3.194,-0.265,-0.102,-0.03
299.0,-7.654,-3.534,3.194,-0.265,-0.102,-0.03
303.0,-8.137,-3.913,2.788,-0.32,-0.152,0.023
307.0,-8.137,-3.913,2.788,-0.32,-0.152,0.023
310.0,-8.137,-3.913,2.788,-0.32,-0.152,0.023
314.0,-8.438,-4.243,2.466,-0.333,-0.217,0.072
318.0,-8.438,-4.243,2.466,-0.333,-0.217,0.072
322.0,-8.597,-4.423,2.179,-0.333,-0.298,0.099
326.0,-8.597,-4.423,2.179,-0.303,-0.298,0.099
330.0,-8.597,-4.423,2.179,-0.303,-0.298,0.099
334.0,-8.238,-4.512,1.896,-0.241,-0.391,0.104
338.0,-8.238,-4.512,1.896,-0.241,-0.391,0.104
342.0,-7.65,-4.382,1.681,-0.241,-0.391,0.088
346.0,-7.65,-4.382,1.681,-0.156,-0.473,0.088
350.0,-7.65,-4.382,1.681,-0.156,-0.473,0.088
353.0,-6.985,-4.284,1.411,-0.062,-0.528,0.054
357.0,-6.985,-4.284,1.411,-0.062,-0.528,0.054
361.0,-6.501,-4.248,1.293,-0.062,-0.528,0.054
365.0,-6.501,-4.248,1.293,0.038,-0.548,0.02
369.0,-6.501,-4.248,1.293,0.038,-0.548,0.02
373.0,-6.278,-4.187,1.312,0.13,-0.554,-0.013
377.0,-6.278,-4.187,1.312,0.13,-0.554,-0.013
381.0,-6.278,-4.187,1.251,0.13,-0.554,-0.013
385.0,-6.16,-4.081,1.251,0.195,-0.56,-0.043
388.0,-6.16,-4.081,1.251,0.195,-0.56,-0.043
392.0,-6.169,-4.107,1.241,0.238,-0.563,-0.058
396.0,-6.169,-4.107,1.241,0.238,-0.563,-0.058
400.0,-6.169,-4.107,1.241,0.238,-0.563,-0.058
404.0,-6.349,-3.898,1.358,0.262,-0.57,-0.063
408.0,-6.349,-3.898,1.358,0.262,-0.57,-0.063
412.0,-6.511,-3.912,1.361,0.235,-0.578,-0.063
416.0,-6.511,-3.912,1.361,0.235,-0.578,-0.063
420.0,-6.511,-3.912,1.361,0.235,-0.578,-0.063
424.0,-6.522,-4.231,1.439,0.156,-0.583,-0.059
427.0,-6.522,-4.231,1.439,0.156,-0.583,-0.059
431.0,-6.508,-4.688,1.665,0.05,-0.575,-0.057
435.0,-6.508,-4.688,1.665,0.05,-0.575,-0.057
439.0,-6.508,-4.688,1.665,0.05,-0.575,-0.057
443.0,-6.506,-5.263,1.954,-0.054,-0.565,-0.053
447.0,-6.506,-5.263,1.954,-0.054,-0.565,-0.053
451.0,-6.708,-6.004,2.448,-0.14,-0.567,-0.048
455.0,-6.708,-6.004,2.448,-0.14,-0.567,-0.048
459.0,-6.708,-6.004,2.448,-0.14,-0.567,-0.048
463.0,-7.113,-6.731,2.854,-0.201,-0.605,-0.057
467.0,-7.113,-6.731,2.854,-0.201,-0.605,-0.057
471.0,-7.498,-7.371,2.84,-0.236,-0.684,-0.096
475.0,-7.498,-7.371,2.84,-0.236,-0.684,-0.096
479.0,-7.498,-7.371,2.84,-0.236,-0.684,-0.096
483.0,-7.759,-7.938,2.692,-0.246,-0.779,-0.182
487.0,-7.759,-7.938,2.692,-0.246,-0.779,-0.182
491.0,-7.824,-8.431,2.472,-0.233,-0.861,-0.321
495.0,-7.824,-8.431,2.472,-0.233,-0.861,-0.321
499.0,-7.824,-8.431,2.472,-0.233,-0.861,-0.321
503.0,-7.789,-8.742,2.207,-0.196,-0.907,-0.51
507.0,-7.789,-8.742,2.207,-0.196,-0.907,-0.51
511.0,-7.758,-8.999,2.113,-0.137,-0.93,-0.745
515.0,-7.758,-8.999,2.113,-0.137,-0.93,-0.745
519.0,-7.758,-9.231,2.059,-0.137,-0.93,-0.745
523.0,-7.88,-9.231,2.059,-0.06,-0.948,-1.009
527.0,-7.88,-9.231,2.059,-0.06,-0.948,-1.009
531.0,-8.25,-9.485,2.025,0.028,-0.959,-1.273
535.0,-8.25,-9.485,2.025,0.028,-0.959,-1.273
539.0,-8.25,-9.773,2.053,0.028,-0.959,-1.273
543.0,-8.794,-9.773,2.053,0.112,-0.956,-1.508
547.0,-8.794,-9.773,2.053,0.112,-0.956,-1.508
550.0,-9.357,-10.083,2.076,0.171,-0.947,-1.705
554.0,-9.357,-10.083,2.076,0.171,-0.947,-1.705
558.0,-9.357,-10.398,2.104,0.171,-0.947,-1.705
562.0,-9.949,-10.398,2.104,0.195,-0.94,-1.871
566.0,-9.949,-10.398,2.104,0.195,-0.94,-1.871
570.0,-10.553,-10.617,2.014,0.173,-0.936,-2.003
575.0,-10.553,-10.617,2.014,0.173,-0.936,-2.003
579.0,-11.124,-10.716,1.973,0.173,-0.936,-2.083
583.0,-11.124,-10.716,1.973,0.102,-0.926,-2.083
587.0,-11.124,-10.716,1.973,0.102,-0.926,-2.083
591.0,-11.464,-10.711,2.029,-0.008,-0.911,-2.097
595.0,-11.464,-10.711,2.029,-0.008,-0.911,-2.097
599.0,-11.431,-10.64,2.063,-0.127,-0.906,-2.056
603.0,-11.431,-10.64,2.063,-0.127,-0.906,-2.056
608.0,-11.431,-10.64,2.063,-0.127,-0.906,-2.056
612.0,-11.023,-10.536,1.959,-0.238,-0.91,-1.967
616.0,-11.023,-10.536,1.959,-0.238,-0.91,-1.967
620.0,-10.506,-10.47,1.669,-0.326,-0.908,-1.834
624.0,-10.506,-10.47,1.669,-0.326,-0.908,-1.834
628.0,-10.073,-10.419,1.318,-0.381,-0.886,-1.664
633.0,-10.073,-10.419,1.318,-0.381,-0.886,-1.664
637.0,-10.073,-10.419,1.318,-0.381,-0.886,-1.664
641.0,-9.561,-10.259,1.116,-0.401,-0.834,-1.479
645.0,-9.561,-10.259,1.116,-0.401,-0.834,-1.479
649.0,-9.928,-10.31,0.891,-0.382,-0.763,-1.315
653.0,-9.928,-10.31,0.891,-0.382,-0.763,-1.315
657.0,-9.928,-9.721,0.652,-0.382,-0.763,-1.315
661.0,-9.561,-9.721,0.652,-0.277,-0.863,-1.192
665.0,-9.561,-9.721,0.652,-0.277,-0.863,-1.192
669.0,-9.114,-8.977,0.495,-0.171,-0.933,-1.085
673.0,-9.114,-8.977,0.495,-0.171,-0.933,-1.085
677.0,-8.527,-8.082,0.316,-0.171,-0.933,-1.085
681.0,-8.527,-8.082,0.316,-0.068,-0.989,-0.989
685.0,-8.527,-8.082,0.316,-0.068,-0.989,-0.989
689.0,-7.971,-7.119,0.136,0.019,-1.025,-0.881
693.0,-7.971,-7.119,0.136,0.019,-1.025,-0.881
697.0,-7.435,-6.244,0.033,0.019,-1.025,-0.881
701.0,-7.435,-6.244,0.033,0.077,-1.04,-0.739
705.0,-7.435,-6.244,0.033,0.077,-1.04,-0.739
709.0,-6.938,-5.504,0.026,0.103,-1.029,-0.547
713.0,-6.938,-5.504,0.026,0.103,-1.029,-0.547
716.0,-6.938,-4.901,0.133,0.103,-1.029,-0.547
720.0,-6.562,-4.901,0.133,0.095,-0.99,-0.307
724.0,-6.562,-4.901,0.133,0.095,-0.99,-0.307
728.0,-6.268,-4.44,0.371,0.071,-0.938,-0.034
732.0,-6.268,-4.44,0.371,0.071,-0.938,-0.034
736.0,-6.268,-4.44,0.543,0.071,-0.938,-0.034
740.0,-5.971,-4.074,0.543,0.051,-0.887,0.241
744.0,-5.971,-4.074,0.543,0.051,-0.887,0.241
748.0,-5.611,-3.589,0.659,0.056,-0.846,0.488
751.0,-5.611,-3.589,0.659,0.056,-0.846,0.488
755.0,-5.611,-3.589,0.659,0.056,-0.846,0.488
759.0,-5.231,-3.039,0.766,0.087,-0.814,0.714
763.0,-5.231,-3.039,0.766,0.087,-0.814,0.714
767.0,-4.89,-2.588,0.808,0.131,-0.775,0.936
770.0,-4.89,-2.588,0.808,0.131,-0.775,0.936
774.0,-4.89,-2.588,0.808,0.131,-0.775,0.936
778.0,-4.74,-2.266,0.8,0.173,-0.714,1.174
782.0,-4.74,-2.266,0.8,0.173,-0.714,1.174
786.0,-4.809,-2.065,0.739,0.173,-0.714,1.174
790.0,-4.809,-2.065,0.739,0.199,-0.618,1.439
793.0,-4.809,-2.065,0.739,0.199,-0.618,1.439
797.0,-5.113,-1.999,0.706,0.205,-0.479,1.736
801.0,-5.113,-1.999,0.706,0.205,-0.479,1.736
805.0,-5.113,-1.999,0.706,0.205,-0.479,1.736
809.0,-5.63,-2.006,0.726,0.187,-0.301,2.052
812.0,-5.63,-2.006,0.726,0.187,-0.301,2.052
816.0,-6.236,-2.1,0.861,0.15,-0.097,2.37
820.0,-6.236,-2.1,0.861,0.15,-0.097,2.37
824.0,-6.236,-2.1,0.861,0.15,-0.097,2.37
828.0,-6.909,-2.249,1.084,0.095,0.113,2.665
831.0,-6.909,-2.249,1.084,0.095,0.113,2.665
835.0,-7.585,-2.42,1.351,0.095,0.113,2.665
839.0,-7.585,-2.42,1.351,0.028,0.315,2.926
843.0,-7.585,-2.42,1.351,0.028,0.315,2.926
846.0,-8.268,-2.5,1.685,-0.047,0.497,3.148
850.0,-8.268,-2.5,1.685,-0.047,0.497,3.148
854.0,-8.268,-2.5,1.685,-0.047,0.497,3.148
858.0,-8.944,-2.501,2.04,-0.124,0.654,3.345
862.0,-8.944,-2.501,2.04,-0.124,0.654,3.345
865.0,-9.487,-2.448,2.323,-0.197,0.786,3.525
869.0,-9.487,-2.448,2.323,-0.197,0.786,3.525
873.0,-9.487,-2.448,2.323,-0.197,0.786,3.525
877.0,-9.835,-2.363,2.569,-0.262,0.895,3.691
881.0,-9.835,-2.363,2.569,-0.262,0.895,3.691
885.0,-10.138,-2.289,2.743,-0.262,0.895,3.837
888.0,-10.138,-2.289,2.743,-0.309,0.99,3.837
892.0,-10.138,-2.289,2.743,-0.309,0.99,3.837
896.0,-10.429,-2.233,2.796,-0.33,1.076,3.963
900.0,-10.429,-2.233,2.796,-0.33,1.076,3.963
904.0,-10.76,-2.173,2.712,-0.33,1.076,3.963
908.0,-10.76,-2.173,2.712,-0.318,1.158,4.071
912.0,-10.76,-2.173,2.712,-0.318,1.158,4.071
916.0,-11.134,-2.098,2.582,-0.276,1.242,4.169
920.0,-11.134,-2.098,2.582,-0.276,1.242,4.169
924.0,-11.134,-2.098,2.435,-0.276,1.242,4.169
928.0,-11.557,-2.014,2.435,-0.203,1.322,4.258
931.0,-11.557,-2.014,2.435,-0.203,1.322,4.258
935.0,-12.016,-1.997,2.182,-0.104,1.396,4.34
939.0,-12.016,-1.997,2.182,-0.104,1.396,4.34
943.0,-12.016,-1.997,2.182,-0.104,1.396,4.34
947.0,-12.396,-1.936,2.081,-0.006,1.452,4.407
951.0,-12.396,-1.936,2.081,-0.006,1.452,4.407
955.0,-12.669,-1.911,2.072,0.11,1.48,4.447
959.0,-12.669,-1.911,2.072,0.11,1.48,4.447
963.0,-12.669,-1.911,2.072,0.11,1.48,4.447
966.0,-13.037,-1.808,1.998,0.23,1.488,4.444
970.0,-13.037,-1.808,1.998,0.23,1.488,4.444
974.0,-13.447,-1.666,1.953,0.344,1.495,4.391
978.0,-13.447,-1.666,1.953,0.344,1.495,4.391
982.0,-13.447,-1.666,1.953,0.344,1.495,4.391
985.0,-13.67,-1.539,1.925,0.438,1.489,4.297
989.0,-13.67,-1.539,1.925,0.438,1.489,4.297
993.0,-13.677,-1.367,1.908,0.438,1.489,4.297
997.0,-13.677,-1.367,1.908,0.505,1.467,4.159
1001.0,-13.677,-1.367,1.908,0.505,1.467,4.159
1005.0,-13.306,-1.186,2.01,0.541,1.43,3.971
1009.0,-13.306,-1.186,2.01,0.541,1.43,3.971
1012.0,-13.306,-1.186,2.128,0.541,1.43,3.971
1016.0,-12.559,-1.007,2.128,0.549,1.364,3.735
1020.0,-12.559,-1.007,2.128,0.549,1.364,3.735
1024.0,-11.809,-0.808,2.154,0.525,1.278,3.449
1028.0,-11.809,-0.808,2.154,0.525,1.278,3.449
1032.0,-11.809,-0.808,2.154,0.525,1.278,3.449
1036.0,-11.194,-0.541,2.103,0.475,1.193,3.111
1040.0,-11.194,-0.541,2.103,0.475,1.193,3.111
1044.0,-10.726,-0.26,2.008,0.402,1.108,2.739
1048.0,-10.726,-0.26,2.008,0.402,1.108,2.739
1052.0,-10.726,-0.26,2.008,0.402,1.108,2.739
1055.0,-10.525,-0.134,1.95,0.309,1.019,2.361
1059.0,-10.525,-0.134,1.95,0.309,1.019,2.361
1063.0,-10.175,0.196,1.685,0.189,0.933,1.984
1067.0,-10.175,0.196,1.685,0.189,0.933,1.984
1071.0,-10.175,0.196,1.685,0.189,0.933,1.984
1075.0,-10.04,0.568,1.411,0.003,0.856,1.618
1079.0,-10.04,0.568,1.411,0.003,0.856,1.618
1082.0,-9.907,0.907,1.261,0.003,0.8,1.309
1086.0,-9.907,0.907,1.261,-0.238,0.8,1.309
1090.0,-9.907,0.907,1.261,-0.238,0.8,1.309
1094.0,-9.832,1.02,1.139,-0.521,0.753,1.065
1098.0,-9.832,1.02,1.139,-0.521,0.753,1.065
1101.0,-9.832,1.102,1.245,-0.521,0.753,1.065
1105.0,-9.982,1.102,1.245,-0.825,0.724,0.87
1109.0,-9.982,1.102,1.245,-0.825,0.724,0.87
1113.0,-9.859,1.085,1.495,-1.143,0.668,0.713
1117.0,-9.859,1.085,1.495,-1.143,0.668,0.713
1120.0,-9.859,1.085,1.495,-1.143,0.668,0.713
1124.0,-9.651,1.195,1.694,-1.498,0.558,0.587
1128.0,-9.651,1.195,1.694,-1.498,0.558,0.587
1132.0,-9.306,1.195,1.501,-1.909,0.423,0.485
1136.0,-9.306,1.195,1.501,-1.909,0.423,0.485
1140.0,-9.306,1.195,1.501,-1.909,0.423,0.485
1143.0,-8.802,1.176,1.041,-2.399,0.306,0.396
1147.0,-8.802,1.176,1.041,-2.399,0.306,0.396
1151.0,-8.178,1.257,0.768,-2.399,0.306,0.396
1155.0,-8.178,1.257,0.768,-2.92,0.226,0.32
1159.0,-8.178,1.257,0.768,-2.92,0.226,0.32
1162.0,-7.548,1.056,0.416,-3.432,0.175,0.271
1166.0,-7.548,1.056,0.416,-3.432,0.175,0.271
1170.0,-7.548,1.056,0.416,-3.432,0.175,0.271
1174.0,-6.928,0.789,0.051,-3.977,0.145,0.245
1178.0,-6.928,0.789,0.051,-3.977,0.145,0.245
1182.0,-6.416,0.402,-0.293,-4.496,0.139,0.238
1185.0,-6.416,0.402,-0.293,-4.496,0.139,0.238
1189.0,-6.416,0.402,-0.293,-4.496,0.139,0.238
1193.0,-5.964,-0.165,-0.515,-4.914,0.138,0.25
1197.0,-5.964,-0.165,-0.515,-4.914,0.138,0.25
1201.0,-5.575,-0.863,-0.619,-5.013,0.127,0.275
1205.0,-5.575,-0.863,-0.619,-5.013,0.127,0.275
1209.0,-5.575,-0.863,-0.619,-5.013,0.127,0.275
1213.0,-5.358,-1.604,-0.55,-5.013,0.104,0.299
1217.0,-5.358,-1.604,-0.55,-5.013,0.104,0.299
1221.0,-5.237,-2.323,-0.425,-5.013,0.065,0.32
1225.0,-5.237,-2.323,-0.425,-5.013,0.065,0.32
1229.0,-5.237,-2.323,-0.425,-5.013,0.065,0.32
1233.0,-5.113,-2.967,-0.227,-5.013,0.012,0.344
1237.0,-5.113,-2.967,-0.227,-5.013,0.012,0.344
1241.0,-4.929,-3.468,-0.039,-5.013,-0.053,0.372
1245.0,-4.929,-3.468,-0.039,-5.013,-0.053,0.372
1249.0,-4.929,-3.468,0.151,-5.013,-0.053,0.372
1253.0,-4.643,-3.869,0.151,-5.013,-0.111,0.408
1257.0,-4.643,-3.869,0.151,-5.013,-0.111,0.408
1261.0,-4.261,-4.216,0.499,-4.991,-0.143,0.447
1265.0,-4.261,-4.216,0.499,-4.991,-0.143,0.447
1269.0,-3.864,-4.481,0.992,-4.991,-0.143,0.447
1273.0,-3.864,-4.481,0.992,-4.723,-0.137,0.474
1277.0,-3.864,-4.481,0.992,-4.723,-0.137,0.474
1281.0,-3.434,-4.682,1.272,-4.264,-0.099,0.49
1285.0,-3.434,-4.682,1.272,-4.264,-0.099,0.49
1289.0,-2.979,-4.875,1.499,-4.264,-0.099,0.511
1293.0,-2.979,-4.875,1.499,-3.75,-0.024,0.511
1297.0,-2.979,-4.875,1.499,-3.75,-0.024,0.511
1301.0,-2.689,-5.024,1.926,-3.191,0.091,0.547
1305.0,-2.689,-5.024,1.926,-3.191,0.091,0.547
1309.0,-2.773,-5.086,2.373,-3.191,0.091,0.602
1313.0,-2.773,-5.086,2.373,-2.597,0.224,0.602
1317.0,-2.773,-5.086,2.373,-2.597,0.224,0.602
1321.0,-3.334,-5.089,2.621,-1.993,0.357,0.687
1325.0,-3.334,-5.089,2.621,-1.993,0.357,0.687
1329.0,-4.456,-5.151,2.847,-1.993,0.357,0.687
1332.0,-4.456,-5.151,2.847,-1.401,0.497,0.797
1336.0,-4.456,-5.151,2.847,-1.401,0.497,0.797
1340.0,-6.094,-5.259,3.194,-0.836,0.652,0.912
1344.0,-6.094,-5.259,3.194,-0.836,0.652,0.912
1348.0,-6.094,-5.413,3.514,-0.836,0.652,0.912
1352.0,-8.015,-5.413,3.514,-0.305,0.796,1.015
1356.0,-8.015,-5.413,3.514,-0.305,0.796,1.015
1360.0,-10.035,-5.515,3.882,0.188,0.9,1.079
1364.0,-10.035,-5.515,3.882,0.188,0.9,1.079
1368.0,-10.035,-5.515,4.04,0.188,0.9,1.079
1372.0,-11.833,-5.407,4.04,0.629,0.948,1.078
1375.0,-11.833,-5.407,4.04,0.629,0.948,1.078
1379.0,-12.965,-5.054,3.98,0.999,0.96,1.014
1383.0,-12.965,-5.054,3.98,0.999,0.96,1.014
1387.0,-12.965,-5.054,3.98,0.999,0.96,1.014
1391.0,-13.382,-4.537,3.948,1.286,0.964,0.9
1395.0,-13.382,-4.537,3.948,1.286,0.964,0.9
1399.0,-13.296,-3.906,3.965,1.486,0.98,0.754
1403.0,-13.296,-3.906,3.965,1.486,0.98,0.754
1407.0,-13.296,-3.906,3.965,1.486,0.98,0.754
1411.0,-13.193,-3.267,3.965,1.611,1.028,0.592
1415.0,-13.193,-3.267,3.965,1.611,1.028,0.592
1418.0,-13.421,-2.782,3.826,1.68,1.111,0.432
1422.0,-13.421,-2.782,3.826,1.68,1.111,0.432
1426.0,-13.421,-2.782,3.826,1.68,1.111,0.432
1430.0,-14.164,-2.529,3.726,1.709,1.213,0.288
1434.0,-14.164,-2.529,3.726,1.709,1.213,0.288
1438.0,-15.209,-2.431,3.659,1.719,1.305,0.163
1442.0,-15.209,-2.431,3.659,1.719,1.305,0.163
1446.0,-15.209,-2.431,3.659,1.719,1.305,0.163
1450.0,-16.205,-2.546,3.545,1.726,1.356,0.061
1454.0,-16.205,-2.546,3.545,1.726,1.356,0.061
1457.0,-16.941,-2.791,3.486,1.744,1.359,-0.035
1461.0,-16.941,-2.791,3.486,1.744,1.359,-0.035
1465.0,-16.941,-2.791,3.486,1.744,1.359,-0.035
1469.0,-17.219,-3.096,3.641,1.782,1.315,-0.143
1473.0,-17.219,-3.096,3.641,1.782,1.315,-0.143
1477.0,-16.858,-3.31,4.02,1.835,1.222,-0.289
1481.0,-16.858,-3.31,4.02,1.835,1.222,-0.289
1485.0,-16.858,-3.31,4.02,1.835,1.222,-0.289
1489.0,-15.839,-3.327,4.388,1.899,1.081,-0.516
1493.0,-15.839,-3.327,4.388,1.899,1.081,-0.516
1497.0,-14.361,-3.098,4.417,1.974,0.911,-0.845
1501.0,-14.361,-3.098,4.417,1.974,0.911,-0.845
1505.0,-14.361,-3.098,4.417,1.974,0.911,-0.845
1509.0,-12.899,-2.675,4.165,2.056,0.747,-1.261
1513.0,-12.899,-2.675,4.165,2.056,0.747,-1.261
1517.0,-11.931,-2.162,3.72,2.143,0.627,-1.724
1521.0,-11.931,-2.162,3.72,2.143,0.627,-1.724
1525.0,-11.931,-2.162,3.72,2.143,0.627,-1.724
1529.0,-11.716,-1.635,3.242,2.229,0.556,-2.172
1533.0,-11.716,-1.635,3.242,2.229,0.556,-2.172
1537.0,-12.205,-1.244,2.827,2.304,0.513,-2.539
1541.0,-12.205,-1.244,2.827,2.304,0.513,-2.539
1545.0,-12.205,-1.244,2.444,2.304,0.513,-2.539
1549.0,-13.081,-1.12,2.444,2.373,0.468,-2.799
1553.0,-13.081,-1.12,2.444,2.373,0.468,-2.799
1557.0,-13.874,-1.248,2.122,2.445,0.397,-2.975
1561.0,-13.874,-1.248,2.122,2.445,0.397,-2.975
1565.0,-13.874,-1.482,1.903,2.445,0.397,-2.975
1569.0,-14.3,-1.482,1.903,2.531,0.286,-3.096
1573.0,-14.3,-1.482,1.903,2.531,0.286,-3.096
1577.0,-14.43,-1.728,1.746,2.625,0.144,-3.183
1581.0,-14.43,-1.728,1.746,2.625,0.144,-3.183
1585.0,-14.407,-1.875,1.513,2.625,0.144,-3.183
1589.0,-14.407,-1.875,1.513,2.714,-0.012,-3.244
1593.0,-14.407,-1.875,1.513,2.714,-0.012,-3.244
1597.0,-14.276,-1.874,1.415,2.785,-0.171,-3.272
1602.0,-14.276,-1.874,1.415,2.785,-0.171,-3.272
1606.0,-14.319,-1.756,1.309,2.824,-0.334,-3.272
1610.0,-14.319,-1.756,1.309,2.824,-0.334,-3.272
1614.0,-14.319,-1.756,1.309,2.824,-0.334,-3.272
1618.0,-14.463,-1.556,1.074,2.815,-0.503,-3.253
1622.0,-14.463,-1.556,1.074,2.815,-0.503,-3.253
1626.0,-14.387,-1.3,0.855,2.746,-0.672,-3.216
1630.0,-14.387,-1.3,0.855,2.746,-0.672,-3.216
1634.0,-14.387,-1.3,0.689,2.746,-0.672,-3.216
1638.0,-14.007,-1.038,0.689,2.616,-0.835,-3.168
1642.0,-14.007,-1.038,0.689,2.616,-0.835,-3.168
1646.0,-13.497,-0.817,0.555,2.432,-0.982,-3.109
1650.0,-13.497,-0.817,0.555,2.432,-0.982,-3.109
1655.0,-12.793,-0.829,0.507,2.432,-0.982,-3.027
1659.0,-12.793,-0.829,0.507,2.224,-1.091,-3.027
1663.0,-12.793,-0.829,0.507,2.224,-1.091,-3.027
1667.0,-12.01,-0.719,0.376,2.017,-1.164,-2.933
1671.0,-12.01,-0.719,0.376,2.017,-1.164,-2.933
1675.0,-11.331,-0.626,0.287,1.791,-1.21,-2.848
1679.0,-11.331,-0.626,0.287,1.791,-1.21,-2.848
1683.0,-11.331,-0.626,0.287,1.791,-1.21,-2.848
1687.0,-10.799,-0.594,0.224,1.554,-1.223,-2.762
1691.0,-10.799,-0.594,0.224,1.554,-1.223,-2.762
1695.0,-10.5,-0.635,0.214,1.318,-1.207,-2.658
1699.0,-10.5,-0.635,0.214,1.318,-1.207,-2.658
1704.0,-10.5,-0.739,0.243,1.318,-1.207,-2.658
1708.0,-10.442,-0.739,0.243,1.096,-1.171,-2.534
1712.0,-10.442,-0.739,0.243,1.096,-1.171,-2.534
1716.0,-10.548,-0.86,0.186,0.897,-1.135,-2.397
1720.0,-10.548,-0.86,0.186,0.897,-1.135,-2.397
1724.0,-10.509,-0.977,0.114,0.897,-1.11,-2.258
1728.0,-10.509,-0.977,0.114,0.721,-1.11,-2.258
1732.0,-10.509,-0.977,0.114,0.721,-1.11,-2.258
1736.0,-10.198,-1.065,0.013,0.566,-1.097,-2.13
1740.0,-10.198,-1.065,0.013,0.566,-1.097,-2.13
1744.0,-9.642,-1.155,-0.066,0.435,-1.088,-2.018
1748.0,-9.642,-1.155,-0.066,0.435,-1.088,-2.018
1752.0,-9.642,-1.155,-0.066,0.435,-1.088,-2.018
1757.0,-9.0,-1.214,-0.156,0.328,-1.067,-1.924
1761.0,-9.0,-1.214,-0.156,0.328,-1.067,-1.924
1765.0,-8.367,-1.251,-0.243,0.248,-1.031,-1.845
1769.0,-8.367,-1.251,-0.243,0.248,-1.031,-1.845
1773.0,-7.8,-1.275,-0.314,0.248,-1.031,-1.845
1777.0,-7.8,-1.275,-0.314,0.19,-0.98,-1.779
1781.0,-7.8,-1.275,-0.314,0.19,-0.98,-1.779
1785.0,-7.299,-1.302,-0.309,0.156,-0.919,-1.719
1789.0,-7.299,-1.302,-0.309,0.156,-0.919,-1.719
1793.0,-6.873,-1.323,-0.242,0.144,-0.851,-1.66
1797.0,-6.873,-1.323,-0.242,0.144,-0.851,-1.66
1801.0,-6.873,-1.323,-0.242,0.144,-0.851,-1.66
1805.0,-6.535,-1.357,-0.113,0.154,-0.78,-1.591
1810.0,-6.535,-1.357,-0.113,0.154,-0.78,-1.591
1814.0,-6.25,-1.45,0.082,0.184,-0.712,-1.503
1818.0,-6.25,-1.45,0.082,0.184,-0.712,-1.503
1822.0,-6.25,-1.45,0.082,0.184,-0.712,-1.503
1826.0,-6.048,-1.638,0.285,0.225,-0.655,-1.393
1830.0,-6.048,-1.638,0.285,0.225,-0.655,-1.393
1834.0,-5.913,-1.839,0.434,0.273,-0.612,-1.269
1838.0,-5.913,-1.839,0.434,0.273,-0.612,-1.269
1842.0,-5.913,-1.839,0.632,0.273,-0.612,-1.269
1846.0,-5.883,-2.027,0.632,0.321,-0.576,-1.139
1850.0,-5.883,-2.027,0.632,0.321,-0.576,-1.139
1854.0,-6.017,-2.182,0.759,0.364,-0.555,-1.012
1858.0,-6.017,-2.182,0.759,0.364,-0.555,-1.012
1862.0,-6.208,-2.284,0.729,0.364,-0.555,-1.012
1866.0,-6.208,-2.284,0.729,0.394,-0.55,-0.884
1870.0,-6.208,-2.284,0.729,0.394,-0.55,-0.884
1874.0,-6.397,-2.359,0.587,0.404,-0.545,-0.747
1878.0,-6.397,-2.359,0.587,0.404,-0.545,-0.747
1882.0,-6.541,-2.443,0.42,0.404,-0.545,-0.587
1886.0,-6.541,-2.443,0.42,0.395,-0.524,-0.587
1890.0,-6.541,-2.443,0.42,0.395,-0.524,-0.587
1894.0,-6.641,-2.529,0.278,0.368,-0.473,-0.398
1898.0,-6.641,-2.529,0.278,0.368,-0.473,-0.398
1902.0,-6.791,-2.66,0.26,0.368,-0.386,-0.18
1905.0,-6.791,-2.66,0.26,0.334,-0.386,-0.18
1909.0,-6.791,-2.66,0.26,0.334,-0.386,-0.18
1913.0,-7.052,-2.812,0.325,0.293,-0.279,0.066
1917.0,-7.052,-2.812,0.325,0.293,-0.279,0.066
1921.0,-7.473,-2.991,0.578,0.293,-0.165,0.327
1925.0,-7.473,-2.991,0.578,0.253,-0.165,0.327
1929.0,-7.473,-2.991,0.578,0.253,-0.165,0.327
1933.0,-8.09,-3.156,0.933,0.217,-0.063,0.591
1937.0,-8.09,-3.156,0.933,0.217,-0.063,0.591
1941.0,-8.874,-3.364,1.262,0.217,-0.063,0.849
1945.0,-8.874,-3.364,1.262,0.195,0.015,0.849
1949.0,-8.874,-3.364,1.262,0.195,0.015,0.849
1952.0,-9.794,-3.62,1.56,0.191,0.074,1.098
1956.0,-9.794,-3.62,1.56,0.191,0.074,1.098
1960.0,-9.794,-3.62,1.875,0.191,0.074,1.098
1964.0,-10.817,-3.913,1.875,0.217,0.121,1.334
1968.0,-10.817,-3.913,1.875,0.217,0.121,1.334
1972.0,-11.782,-4.152,2.076,0.281,0.149,1.552
1976.0,-11.782,-4.152,2.076,0.281,0.149,1.552
1979.0,-11.782,-4.152,2.076,0.281,0.149,1.552
1983.0,-12.769,-4.354,2.292,0.384,0.157,1.751
1987.0,-12.769,-4.354,2.292,0.384,0.157,1.751
1991.0,-13.983,-4.512,2.28,0.521,0.152,1.932
1995.0,-13.983,-4.512,2.28,0.521,0.152,1.932
1999.0,-13.983,-4.512,2.28,0.521,0.152,1.932
2003.0,-15.209,-4.619,1.872,0.687,0.143,2.1
2007.0,-15.209,-4.619,1.872,0.687,0.143,2.1
2011.0,-15.612,-4.537,1.63,0.867,0.126,2.252
2015.0,-15.612,-4.537,1.63,0.867,0.126,2.252
2019.0,-15.612,-4.537,1.63,0.867,0.126,2.252
2022.0,-14.91,-4.272,1.731,1.038,0.091,2.371
2026.0,-14.91,-4.272,1.731,1.038,0.091,2.371
2030.0,-13.853,-3.958,1.795,1.196,0.059,2.427
2034.0,-13.853,-3.958,1.795,1.196,0.059,2.427
2038.0,-13.853,-3.958,1.795,1.196,0.059,2.427
2042.0,-13.46,-3.618,1.714,1.351,0.063,2.419
2046.0,-13.46,-3.618,1.714,1.351,0.063,2.419
2050.0,-13.936,-3.307,1.522,1.503,0.101,2.385
2054.0,-13.936,-3.307,1.522,1.503,0.101,2.385
2058.0,-13.936,-3.307,1.522,1.503,0.101,2.385
2061.0,-14.901,-3.007,1.327,1.638,0.153,2.355
2065.0,-14.901,-3.007,1.327,1.638,0.153,2.355
2069.0,-15.602,-2.701,1.191,1.638,0.199,2.34
2073.0,-15.602,-2.701,1.191,1.745,0.199,2.34
2077.0,-15.602,-2.701,1.191,1.745,0.199,2.34
2081.0,-15.541,-2.405,1.131,1.813,0.231,2.332
2085.0,-15.541,-2.405,1.131,1.813,0.231,2.332
2089.0,-14.97,-2.105,1.117,1.813,0.231,2.307
2093.0,-14.97,-2.105,1.117,1.83,0.258,2.307
2097.0,-14.97,-2.105,1.117,1.83,0.258,2.307
2101.0,-14.335,-1.822,1.105,1.8,0.295,2.246
2104.0,-14.335,-1.822,1.105,1.8,0.295,2.246
2108.0,-13.655,-1.555,1.13,1.8,0.295,2.246
2112.0,-13.655,-1.555,1.13,1.73,0.346,2.148
2116.0,-13.655,-1.555,1.13,1.73,0.346,2.148
2120.0,-12.721,-1.349,1.231,1.631,0.398,2.029
2124.0,-12.721,-1.349,1.231,1.631,0.398,2.029
2128.0,-12.721,-1.184,1.377,1.631,0.398,2.029
2132.0,-11.477,-1.184,1.377,1.51,0.437,1.899
2136.0,-11.477,-1.184,1.377,1.51,0.437,1.899
2140.0,-9.968,-1.028,1.551,1.381,0.461,1.756
2143.0,-9.968,-1.028,1.551,1.381,0.461,1.756
2147.0,-9.968,-1.028,1.551,1.381,0.461,1.756
2151.0,-8.467,-0.865,1.684,1.25,0.477,1.6
2155.0,-8.467,-0.865,1.684,1.25,0.477,1.6
2159.0,-7.102,-0.707,1.695,1.121,0.491,1.431
2163.0,-7.102,-0.707,1.695,1.121,0.491,1.431
2166.0,-7.102,-0.707,1.695,1.121,0.491,1.431
2170.0,-5.959,-0.542,1.626,0.989,0.514,1.257
2174.0,-5.959,-0.542,1.626,0.989,0.514,1.257
2178.0,-5.243,-0.34,1.452,0.989,0.559,1.098
2182.0,-5.243,-0.34,1.452,0.85,0.559,1.098
2185.0,-5.243,-0.34,1.452,0.85,0.559,1.098
2189.0,-5.155,-0.098,1.169,0.691,0.642,0.977
2193.0,-5.155,-0.098,1.169,0.691,0.642,0.977
2197.0,-5.155,-0.098,0.731,0.691,0.642,0.977
2201.0,-5.879,0.153,0.731,0.497,0.773,0.91
2204.0,-5.879,0.153,0.731,0.497,0.773,0.91
2208.0,-7.259,0.197,0.266,0.265,0.946,0.901
2212.0,-7.259,0.197,0.266,0.265,0.946,0.901
2216.0,-7.259,0.197,0.266,0.265,0.946,0.901
2219.0,-8.874,0.015,-0.067,0.005,1.135,0.935
2223.0,-8.874,0.015,-0.067,0.005,1.135,0.935
2227.0,-10.463,-0.352,-0.269,0.005,1.135,0.991
2231.0,-10.463,-0.352,-0.269,-0.261,1.302,0.991
2235.0,-10.463,-0.352,-0.269,-0.261,1.302,0.991
2239.0,-11.773,-0.826,-0.26,-0.516,1.422,1.059
2243.0,-11.773,-0.826,-0.26,-0.516,1.422,1.059
2247.0,-12.401,-1.247,-0.016,-0.746,1.478,1.121
2251.0,-12.401,-1.247,-0.016,-0.746,1.478,1.121
2255.0,-12.401,-1.247,-0.016,-0.746,1.478,1.121
2260.0,-11.991,-1.56,0.392,-0.945,1.465,1.164
2264.0,-11.991,-1.56,0.392,-0.945,1.465,1.164
2268.0,-10.92,-1.759,0.832,-1.105,1.406,1.177
2272.0,-10.92,-1.759,0.832,-1.105,1.406,1.177
2276.0,-10.92,-1.759,0.832,-1.105,1.406,1.177
2280.0,-9.868,-1.879,1.054,-1.216,1.328,1.15
2283.0,-9.868,-1.879,1.054,-1.216,1.328,1.15
2287.0,-9.156,-1.879,1.059,-1.277,1.253,1.093
2291.0,-9.156,-1.879,1.059,-1.277,1.253,1.093
2295.0,-9.156,-1.879,1.059,-1.277,1.253,1.093
2299.0,-8.715,-1.768,0.89,-1.298,1.189,1.025
2303.0,-8.715,-1.768,0.89,-1.298,1.189,1.025
2307.0,-8.362,-1.665,0.742,-1.287,1.134,0.962
2311.0,-8.362,-1.665,0.742,-1.287,1.134,0.962
2315.0,-8.362,-1.665,0.742,-1.287,1.134,0.962
2319.0,-8.018,-1.582,0.663,-1.249,1.087,0.906
2323.0,-8.018,-1.582,0.663,-1.249,1.087,0.906
2326.0,-7.616,-1.56,0.651,-1.182,1.044,0.845
2330.0,-7.616,-1.56,0.651,-1.182,1.044,0.845
2334.0,-7.616,-1.56,0.651,-1.182,1.044,0.845
2338.0,-7.284,-1.562,0.71,-1.082,1.008,0.773
2342.0,-7.284,-1.562,0.71,-1.082,1.008,0.773
2346.0,-7.153,-1.564,0.748,-0.953,0.976,0.697
2350.0,-7.153,-1.564,0.748,-0.953,0.976,0.697
2354.0,-7.153,-1.564,0.748,-0.953,0.976,0.697
2358.0,-7.074,-1.601,0.742,-0.796,0.951,0.628
2362.0,-7.074,-1.601,0.742,-0.796,0.951,0.628
2365.0,-7.077,-1.647,0.754,-0.796,0.935,0.561
2369.0,-7.077,-1.647,0.754,-0.615,0.935,0.561
2373.0,-7.077,-1.647,0.754,-0.615,0.935,0.561
2377.0,-7.167,-1.722,0.829,-0.422,0.922,0.496
2381.0,-7.167,-1.722,0.829,-0.422,0.922,0.496
2385.0,-7.282,-1.826,0.973,-0.422,0.922,0.432
2389.0,-7.282,-1.826,0.973,-0.216,0.903,0.432
2393.0,-7.282,-1.826,0.973,-0.216,0.903,0.432
2397.0,-7.499,-1.844,1.122,-0.013,0.872,0.367
2401.0,-7.499,-1.844,1.122,-0.013,0.872,0.367
2405.0,-7.77,-1.874,1.267,-0.013,0.872,0.367
2408.0,-7.77,-1.874,1.267,0.171,0.835,0.309
2412.0,-7.77,-1.874,1.267,0.171,0.835,0.309
2416.0,-7.959,-1.826,1.445,0.316,0.792,0.258
2420.0,-7.959,-1.826,1.445,0.316,0.792,0.258
2424.0,-7.959,-1.826,1.445,0.316,0.792,0.258
2428.0,-8.079,-1.672,1.618,0.414,0.736,0.214
2431.0,-8.079,-1.672,1.618,0.414,0.736,0.214
2435.0,-8.17,-1.451,1.711,0.454,0.676,0.18
2439.0,-8.17,-1.451,1.711,0.454,0.676,0.18
2443.0,-8.17,-1.451,1.711,0.454,0.676,0.18
2447.0,-8.238,-1.201,1.753,0.428,0.626,0.154
2450.0,-8.238,-1.201,1.753,0.428,0.626,0.154
2454.0,-8.2,-0.955,1.727,0.428,0.584,0.132
2458.0,-8.2,-0.955,1.727,0.335,0.584,0.132
2462.0,-8.2,-0.955,1.727,0.335,0.584,0.132
2466.0,-8.078,-0.726,1.737,0.184,0.554,0.111
2470.0,-8.078,-0.726,1.737,0.184,0.554,0.111
2473.0,-8.078,-0.577,1.728,0.184,0.554,0.111
2477.0,-7.872,-0.577,1.728,-0.014,0.534,0.088
2481.0,-7.872,-0.577,1.728,-0.014,0.534,0.088
2485.0,-7.491,-0.458,1.74,-0.24,0.513,0.052
2489.0,-7.491,-0.458,1.74,-0.24,0.513,0.052
2493.0,-7.491,-0.458,1.74,-0.24,0.513,0.052
2497.0,-7.025,-0.352,1.752,-0.476,0.486,-0.0
2501.0,-7.025,-0.352,1.752,-0.476,0.486,-0.0
2505.0,-6.645,-0.222,1.722,-0.713,0.454,-0.067
2509.0,-6.645,-0.222,1.722,-0.713,0.454,-0.067
2513.0,-6.645,-0.222,1.625,-0.713,0.454,-0.067
2517.0,-6.355,-0.056,1.625,-0.951,0.424,-0.145
2521.0,-6.355,-0.056,1.625,-0.951,0.424,-0.145
2525.0,-6.08,0.065,1.506,-1.192,0.402,-0.228
2529.0,-6.08,0.065,1.506,-1.192,0.402,-0.228
2532.0,-6.08,0.065,1.436,-1.192,0.402,-0.228
2536.0,-5.77,0.1,1.436,-1.433,0.385,-0.311
2540.0,-5.77,0.1,1.436,-1.433,0.385,-0.311
2544.0,-5.487,0.1,1.381,-1.665,0.37,-0.396
2548.0,-5.487,0.1,1.381,-1.665,0.37,-0.396
2552.0,-5.487,0.1,1.381,-1.665,0.37,-0.396
2556.0,-5.241,0.035,1.276,-1.883,0.361,-0.484
2560.0,-5.241,0.035,1.276,-1.883,0.361,-0.484
2564.0,-5.138,-0.047,1.135,-2.085,0.37,-0.574
2568.0,-5.138,-0.047,1.135,-2.085,0.37,-0.574
2572.0,-5.138,-0.047,1.135,-2.085,0.37,-0.574
2576.0,-5.282,-0.158,1.009,-2.269,0.404,-0.653
2580.0,-5.282,-0.158,1.009,-2.269,0.404,-0.653
2584.0,-5.617,-0.321,0.933,-2.434,0.458,-0.717
2588.0,-5.617,-0.321,0.933,-2.434,0.458,-0.717
2592.0,-5.617,-0.321,0.943,-2.434,0.458,-0.717
2596.0,-6.046,-0.554,0.943,-2.578,0.52,-0.763
2600.0,-6.046,-0.554,0.943,-2.578,0.52,-0.763
2604.0,-6.663,-0.751,1.079,-2.691,0.583,-0.798
2608.0,-6.663,-0.751,1.079,-2.691,0.583,-0.798
2612.0,-7.531,-0.872,1.276,-2.691,0.583,-0.798
2616.0,-7.531,-0.872,1.276,-2.778,0.637,-0.821
2620.0,-7.531,-0.872,1.276,-2.778,0.637,-0.821
2624.0,-8.445,-1.031,1.458,-2.839,0.678,-0.825
2628.0,-8.445,-1.031,1.458,-2.839,0.678,-0.825
2632.0,-9.264,-1.186,1.599,-2.839,0.678,-0.825
2636.0,-9.264,-1.186,1.599,-2.88,0.701,-0.811
2640.0,-9.264,-1.186,1.599,-2.88,0.701,-0.811
2644.0,-10.145,-1.284,1.692,-2.905,0.714,-0.778
2648.0,-10.145,-1.284,1.692,-2.905,0.714,-0.778
2652.0,-11.216,-1.179,1.97,-2.923,0.739,-0.725
2656.0,-11.216,-1.179,1.97,-2.923,0.739,-0.725
2660.0,-11.216,-1.179,1.97,-2.923,0.739,-0.725
2664.0,-13.123,0.115,3.751,-2.977,0.791,-0.649
2668.0,-13.123,0.115,3.751,-2.977,0.791,-0.649
2672.0,-14.798,2.135,6.255,-3.212,0.835,-0.557
2676.0,-14.798,2.135,6.255,-3.212,0.835,-0.557
2680.0,-14.798,2.135,6.255,-3.212,0.835,-0.557
2684.0,-15.435,3.009,7.54,-3.742,0.797,-0.464
2688.0,-15.435,3.009,7.54,-3.742,0.797,-0.464
2692.0,-16.414,2.821,7.776,-4.424,0.693,-0.386
2696.0,-16.414,2.821,7.776,-4.424,0.693,-0.386
2700.0,-16.414,2.821,7.776,-4.424,0.693,-0.386
2704.0,-17.198,1.307,6.606,-4.944,0.555,-0.312
2708.0,-17.198,1.307,6.606,-4.944,0.555,-0.312
2712.0,-17.033,-0.727,4.975,-5.013,0.363,-0.22
2716.0,-17.033,-0.727,4.975,-5.013,0.363,-0.22
2720.0,-17.033,-0.727,3.368,-5.013,0.363,-0.22
2724.0,-15.827,-2.774,3.368,-5.013,0.162,-0.123
2728.0,-15.827,-2.774,3.368,-5.013,0.162,-0.123
2732.0,-14.269,-4.851,2.033,-5.013,-0.02,-0.038
2736.0,-14.269,-4.851,2.033,-5.013,-0.02,-0.038
2741.0,-13.018,-6.106,1.773,-4.913,-0.132,0.002
2745.0,-13.018,-6.106,1.773,-4.913,-0.132,0.002
2749.0,-13.018,-6.106,1.773,-4.913,-0.132,0.002
2753.0,-12.237,-6.797,1.993,-4.235,-0.168,0.004
2757.0,-12.237,-6.797,1.993,-4.235,-0.168,0.004
2761.0,-12.098,-7.033,2.402,-3.251,-0.166,0.014
2765.0,-12.098,-7.033,2.402,-3.251,-0.166,0.014
2769.0,-12.098,-7.033,2.402,-3.251,-0.166,0.014
2773.0,-12.409,-7.044,2.65,-2.211,-0.15,0.05
2777.0,-12.409,-7.044,2.65,-2.211,-0.15,0.05
2781.0,-12.976,-6.897,2.722,-1.204,-0.132,0.101
2786.0,-12.976,-6.897,2.722,-1.204,-0.132,0.101
2790.0,-13.451,-6.684,2.685,-1.204,-0.132,0.156
2794.0,-13.451,-6.684,2.685,-0.285,-0.123,0.156
2798.0,-13.451,-6.684,2.685,-0.285,-0.123,0.156
2802.0,-13.944,-6.42,2.532,0.52,-0.119,0.21
2806.0,-13.944,-6.42,2.532,0.52,-0.119,0.21
2810.0,-14.508,-6.108,2.38,1.208,-0.112,0.259
2814.0,-14.508,-6.108,2.38,1.208,-0.112,0.259
2818.0,-14.508,-6.108,2.38,1.208,-0.112,0.259
2822.0,-14.996,-5.797,2.276,1.783,-0.107,0.297
2826.0,-14.996,-5.797,2.276,1.783,-0.107,0.297
2830.0,-15.123,-5.38,2.296,2.26,-0.12,0.319
2834.0,-15.123,-5.38,2.296,2.26,-0.12,0.319
2838.0,-15.123,-5.38,2.296,2.26,-0.12,0.319
2842.0,-14.645,-4.826,2.386,2.657,-0.163,0.319
2846.0,-14.645,-4.826,2.386,2.657,-0.163,0.319
2850.0,-13.569,-4.156,2.481,2.968,-0.229,0.29
2854.0,-13.569,-4.156,2.481,2.968,-0.229,0.29
2858.0,-13.569,-4.156,2.481,2.968,-0.229,0.29
2862.0,-12.248,-3.458,2.53,3.191,-0.309,0.227
2866.0,-12.248,-3.458,2.53,3.191,-0.309,0.227
2870.0,-11.065,-2.772,2.509,3.337,-0.39,0.13
2874.0,-11.065,-2.772,2.509,3.337,-0.39,0.13
2878.0,-11.065,-2.772,2.509,3.337,-0.39,0.13
2882.0,-10.211,-2.185,2.328,3.42,-0.463,0.011
2886.0,-10.211,-2.185,2.328,3.42,-0.463,0.011
2890.0,-9.763,-1.683,1.989,3.444,-0.517,-0.117
2894.0,-9.763,-1.683,1.989,3.444,-0.517,-0.117
2898.0,-9.763,-1.683,1.626,3.444,-0.517,-0.117
2902.0,-9.699,-1.32,1.626,3.42,-0.552,-0.242
2906.0,-9.699,-1.32,1.626,3.42,-0.552,-0.242
2910.0,-10.012,-1.178,1.292,3.354,-0.575,-0.349
2914.0,-10.012,-1.178,1.292,3.354,-0.575,-0.349
2918.0,-10.671,-1.201,1.046,3.354,-0.575,-0.349
2922.0,-10.671,-1.201,1.046,3.265,-0.601,-0.445
2926.0,-10.671,-1.201,1.046,3.265,-0.601,-0.445
2930.0,-11.47,-1.303,0.802,3.168,-0.649,-0.544
2934.0,-11.47,-1.303,0.802,3.168,-0.649,-0.544
2938.0,-12.102,-1.41,0.488,3.069,-0.736,-0.655
2942.0,-12.102,-1.41,0.488,3.069,-0.736,-0.655
2946.0,-12.102,-1.41,0.488,3.069,-0.736,-0.655
2950.0,-12.37,-1.356,0.16,2.968,-0.86,-0.783
2955.0,-12.37,-1.356,0.16,2.968,-0.86,-0.783
2959.0,-12.096,-1.168,-0.172,2.845,-1.005,-0.928
2963.0,-12.096,-1.168,-0.172,2.845,-1.005,-0.928
2967.0,-12.096,-0.963,-0.465,2.845,-1.005,-0.928
2971.0,-11.419,-0.963,-0.465,2.694,-1.151,-1.085
2975.0,-11.419,-0.963,-0.465,2.694,-1.151,-1.085
2979.0,-10.629,-0.732,-0.652,2.529,-1.277,-1.25
2984.0,-10.629,-0.732,-0.652,2.529,-1.277,-1.25
2988.0,-9.897,-0.532,-0.771,2.352,-1.371,-1.401
2992.0,-9.897,-0.532,-0.771,2.352,-1.371,-1.401
2996.0,-9.897,-0.532,-0.771,2.352,-1.371,-1.401
3000.0,-9.293,-0.348,-0.79,2.164,-1.431,-1.527
