deltaTime,Acc_X,Acc_Y,Acc_Z,Gyro_X,Gyro_Y,Gyro_Z
0.0,-2.341,-1.071,3.137,0.721,-0.396,-0.604
3.0,-2.594,-0.537,2.959,0.721,-0.396,-0.512
6.0,-2.594,-0.537,2.959,0.838,-0.54,-0.512
9.0,-2.594,-0.537,2.959,0.838,-0.54,-0.512
12.0,-2.594,-0.537,2.959,0.838,-0.54,-0.512
15.0,-2.878,-0.675,2.587,0.844,-0.674,-0.431
18.0,-2.878,-0.675,2.587,0.844,-0.674,-0.431
21.0,-2.878,-0.675,2.587,0.844,-0.674,-0.431
24.0,-2.725,-0.82,2.036,0.793,-0.758,-0.36
27.0,-2.725,-0.82,2.036,0.793,-0.758,-0.36
30.0,-2.725,-0.82,2.036,0.793,-0.758,-0.36
33.0,-2.669,-1.175,1.513,0.684,-0.828,-0.343
37.0,-2.669,-1.175,1.513,0.684,-0.828,-0.343
41.0,-2.669,-1.175,1.513,0.684,-0.828,-0.343
45.0,-2.669,-1.601,1.164,0.55,-0.841,-0.367
48.0,-2.669,-1.601,1.164,0.55,-0.841,-0.367
52.0,-3.01,-1.57,1.031,0.55,-0.841,-0.45
56.0,-3.01,-1.57,1.031,0.396,-0.803,-0.45
60.0,-3.01,-1.57,1.031,0.396,-0.803,-0.45
64.0,-3.882,-1.339,1.41,0.189,-0.743,-0.591
67.0,-3.882,-1.339,1.41,0.189,-0.743,-0.591
71.0,-3.882,-1.339,2.228,0.189,-0.743,-0.591
75.0,-4.851,-1.351,2.228,-0.05,-0.696,-0.75
79.0,-4.851,-1.351,2.228,-0.05,-0.696,-0.75
83.0,-5.569,-1.409,3.12,-0.238,-0.696,-0.902
87.0,-5.569,-1.409,3.12,-0.238,-0.696,-0.902
91.0,-5.569,-1.409,3.12,-0.238,-0.696,-0.902
95.0,-6.409,-1.315,3.987,-0.345,-0.724,-1.052
99.0,-6.409,-1.315,3.987,-0.345,-0.724,-1.052
102.0,-7.609,-1.015,4.935,-0.399,-0.748,-1.185
106.0,-7.609,-1.015,4.935,-0.399,-0.748,-1.185
110.0,-7.609,-1.015,4.935,-0.399,-0.748,-1.185
114.0,-8.91,-0.559,5.407,-0.429,-0.783,-1.264
118.0,-8.91,-0.559,5.407,-0.429,-0.783,-1.264
122.0,-10.302,-0.028,5.504,-0.489,-0.82,-1.312
126.0,-10.302,-0.028,5.504,-0.489,-0.82,-1.312
131.0,-10.302,-0.028,5.32,-0.489,-0.82,-1.312
135.0,-11.531,0.196,5.32,-0.609,-0.832,-1.316
139.0,-11.531,0.196,5.32,-0.609,-0.832,-1.316
143.0,-12.403,0.216,5.106,-0.777,-0.808,-1.294
147.0,-12.403,0.216,5.106,-0.777,-0.808,-1.294
151.0,-13.29,-0.131,5.041,-0.777,-0.808,-1.294
155.0,-13.29,-0.131,5.041,-0.964,-0.762,-1.265
159.0,-13.29,-0.131,5.041,-0.964,-0.762,-1.265
163.0,-14.111,-0.939,5.133,-1.127,-0.716,-1.23
167.0,-14.111,-0.939,5.133,-1.127,-0.716,-1.23
171.0,-14.667,-1.865,5.274,-1.221,-0.666,-1.212
175.0,-14.667,-1.865,5.274,-1.221,-0.666,-1.212
179.0,-14.667,-1.865,5.274,-1.221,-0.666,-1.212
183.0,-15.062,-2.695,5.568,-1.238,-0.612,-1.227
187.0,-15.062,-2.695,5.568,-1.238,-0.612,-1.227
191.0,-15.586,-3.425,5.999,-1.178,-0.539,-1.248
195.0,-15.586,-3.425,5.999,-1.178,-0.539,-1.248
200.0,-15.586,-3.425,6.555,-1.178,-0.539,-1.248
204.0,-16.012,-3.897,6.555,-1.055,-0.449,-1.266
208.0,-16.012,-3.897,6.555,-1.055,-0.449,-1.266
212.0,-16.426,-4.275,7.163,-0.891,-0.362,-1.284
216.0,-16.426,-4.275,7.163,-0.891,-0.362,-1.284
220.0,-16.405,-4.639,7.671,-0.891,-0.362,-1.299
224.0,-16.405,-4.639,7.671,-0.691,-0.284,-1.299
228.0,-16.405,-4.639,7.671,-0.691,-0.284,-1.299
232.0,-16.26,-5.031,8.064,-0.441,-0.213,-1.302
236.0,-16.26,-5.031,8.064,-0.441,-0.213,-1.302
240.0,-16.264,-5.186,8.35,-0.124,-0.15,-1.295
244.0,-16.264,-5.186,8.35,-0.124,-0.15,-1.295
249.0,-16.264,-5.186,8.35,-0.124,-0.15,-1.295
253.0,-16.488,-5.201,8.357,0.235,-0.109,-1.278
257.0,-16.488,-5.201,8.357,0.235,-0.109,-1.278
261.0,-16.393,-5.132,7.857,0.611,-0.095,-1.242
265.0,-16.393,-5.132,7.857,0.611,-0.095,-1.242
269.0,-16.393,-5.132,7.857,0.611,-0.095,-1.242
273.0,-16.183,-4.746,6.849,0.962,-0.113,-1.18
277.0,-16.183,-4.746,6.849,0.962,-0.113,-1.18
281.0,-15.266,-4.071,5.664,1.205,-0.097,-1.116
285.0,-15.266,-4.071,5.664,1.205,-0.097,-1.116
289.0,-15.266,-4.071,4.713,1.205,-0.097,-1.116
293.0,-15.101,-3.905,4.713,1.296,-0.001,-1.074
297.0,-15.101,-3.905,4.713,1.296,-0.001,-1.074
300.0,-14.83,-3.805,4.134,1.298,0.107,-1.028
304.0,-14.83,-3.805,4.134,1.298,0.107,-1.028
308.0,-14.83,-3.805,3.847,1.298,0.107,-1.028
312.0,-14.253,-3.441,3.847,1.248,0.194,-0.992
316.0,-14.253,-3.441,3.847,1.248,0.194,-0.992
320.0,-13.47,-3.124,3.684,1.143,0.25,-1.015
324.0,-13.47,-3.124,3.684,1.143,0.25,-1.015
328.0,-13.47,-3.124,3.684,1.143,0.25,-1.015
332.0,-12.687,-3.13,3.437,1.023,0.265,-1.023
336.0,-12.687,-3.13,3.437,1.023,0.265,-1.023
340.0,-11.904,-3.242,3.237,0.973,0.172,-1.001
343.0,-11.904,-3.242,3.237,0.973,0.172,-1.001
347.0,-11.904,-3.242,3.237,0.973,0.172,-1.001
351.0,-11.136,-3.313,2.885,1.038,0.008,-0.967
355.0,-11.136,-3.313,2.885,1.038,0.008,-0.967
359.0,-10.859,-3.419,2.242,1.217,-0.128,-0.943
363.0,-10.859,-3.419,2.242,1.217,-0.128,-0.943
367.0,-10.859,-3.419,2.242,1.217,-0.128,-0.943
371.0,-11.187,-3.105,1.349,1.443,-0.223,-0.864
375.0,-11.187,-3.105,1.349,1.443,-0.223,-0.864
379.0,-11.582,-2.676,0.689,1.588,-0.273,-0.655
383.0,-11.582,-2.676,0.689,1.588,-0.273,-0.655
387.0,-11.582,-2.676,0.689,1.588,-0.273,-0.655
391.0,-11.822,-2.769,0.514,1.608,-0.268,-0.249
395.0,-11.822,-2.769,0.514,1.608,-0.268,-0.249
399.0,-11.858,-3.108,0.771,1.551,-0.214,0.307
403.0,-11.858,-3.108,0.771,1.551,-0.214,0.307
407.0,-11.858,-3.108,1.262,1.551,-0.214,0.307
411.0,-11.671,-3.692,1.262,1.458,-0.152,0.859
415.0,-11.671,-3.692,1.262,1.458,-0.152,0.859
419.0,-11.225,-4.238,1.705,1.35,-0.15,1.274
422.0,-11.225,-4.238,1.705,1.35,-0.15,1.274
426.0,-11.225,-4.238,1.705,1.35,-0.15,1.274
430.0,-10.687,-4.484,2.045,1.225,-0.214,1.512
434.0,-10.687,-4.484,2.045,1.225,-0.214,1.512
438.0,-10.131,-4.381,2.234,1.074,-0.309,1.623
442.0,-10.131,-4.381,2.234,1.074,-0.309,1.623
446.0,-10.131,-4.381,2.234,1.074,-0.309,1.623
450.0,-9.673,-4.026,2.294,0.888,-0.392,1.673
454.0,-9.673,-4.026,2.294,0.888,-0.392,1.673
457.0,-9.31,-3.519,2.17,0.674,-0.442,1.711
461.0,-9.31,-3.519,2.17,0.674,-0.442,1.711
465.0,-9.31,-3.519,2.17,0.674,-0.442,1.711
469.0,-9.049,-3.079,2.034,0.436,-0.46,1.761
473.0,-9.049,-3.079,2.034,0.436,-0.46,1.761
477.0,-8.867,-2.599,1.831,0.436,-0.46,1.823
480.0,-8.867,-2.599,1.831,0.19,-0.465,1.823
484.0,-8.867,-2.599,1.831,0.19,-0.465,1.823
488.0,-8.727,-2.262,1.594,-0.069,-0.474,1.872
492.0,-8.727,-2.262,1.594,-0.069,-0.474,1.872
496.0,-8.727,-2.262,1.281,-0.069,-0.474,1.872
500.0,-8.532,-2.049,1.281,-0.316,-0.468,1.909
504.0,-8.532,-2.049,1.281,-0.316,-0.468,1.909
508.0,-8.166,-1.856,0.968,-0.543,-0.444,1.921
511.0,-8.166,-1.856,0.968,-0.543,-0.444,1.921
515.0,-8.166,-1.856,0.968,-0.543,-0.444,1.921
519.0,-7.686,-1.681,0.712,-0.755,-0.404,1.897
523.0,-7.686,-1.681,0.712,-0.755,-0.404,1.897
527.0,-7.231,-1.52,0.535,-0.956,-0.342,1.835
531.0,-7.231,-1.52,0.535,-0.956,-0.342,1.835
535.0,-7.231,-1.52,0.535,-0.956,-0.342,1.835
539.0,-6.834,-1.388,0.444,-1.141,-0.259,1.739
543.0,-6.834,-1.388,0.444,-1.141,-0.259,1.739
547.0,-6.522,-1.277,0.435,-1.316,-0.166,1.622
550.0,-6.522,-1.277,0.435,-1.316,-0.166,1.622
554.0,-6.522,-1.277,0.435,-1.316,-0.166,1.622
558.0,-6.331,-1.201,0.467,-1.48,-0.066,1.498
562.0,-6.331,-1.201,0.467,-1.48,-0.066,1.498
566.0,-6.239,-1.178,0.51,-1.635,0.037,1.378
570.0,-6.239,-1.178,0.51,-1.635,0.037,1.378
574.0,-6.239,-1.178,0.51,-1.635,0.037,1.378
578.0,-6.214,-1.162,0.536,-1.783,0.141,1.277
581.0,-6.214,-1.162,0.536,-1.783,0.141,1.277
585.0,-6.157,-1.197,0.592,-1.783,0.141,1.201
589.0,-6.157,-1.197,0.592,-1.921,0.247,1.201
593.0,-6.157,-1.197,0.592,-1.921,0.247,1.201
597.0,-6.068,-1.265,0.654,-2.047,0.346,1.154
600.0,-6.068,-1.265,0.654,-2.047,0.346,1.154
604.0,-6.068,-1.265,0.732,-2.047,0.346,1.154
608.0,-5.931,-1.374,0.732,-2.159,0.437,1.133
612.0,-5.931,-1.374,0.732,-2.159,0.437,1.133
616.0,-5.785,-1.532,0.803,-2.252,0.52,1.134
620.0,-5.785,-1.532,0.803,-2.252,0.52,1.134
623.0,-5.785,-1.532,0.803,-2.252,0.52,1.134
627.0,-5.618,-1.735,0.842,-2.322,0.59,1.151
631.0,-5.618,-1.735,0.842,-2.322,0.59,1.151
635.0,-5.447,-1.973,0.882,-2.366,0.652,1.173
639.0,-5.447,-1.973,0.882,-2.366,0.652,1.173
643.0,-5.447,-1.973,0.882,-2.366,0.652,1.173
646.0,-5.265,-2.201,0.904,-2.383,0.7,1.193
650.0,-5.265,-2.201,0.904,-2.383,0.7,1.193
654.0,-5.082,-2.393,0.916,-2.383,0.7,1.193
658.0,-5.082,-2.393,0.916,-2.369,0.735,1.207
662.0,-5.082,-2.393,0.916,-2.369,0.735,1.207
665.0,-4.91,-2.539,0.898,-2.321,0.759,1.218
669.0,-4.91,-2.539,0.898,-2.321,0.759,1.218
673.0,-4.91,-2.539,0.898,-2.321,0.759,1.218
677.0,-4.764,-2.614,0.873,-2.241,0.778,1.232
681.0,-4.764,-2.614,0.873,-2.241,0.778,1.232
685.0,-4.635,-2.632,0.833,-2.128,0.794,1.254
688.0,-4.635,-2.632,0.833,-2.128,0.794,1.254
692.0,-4.635,-2.632,0.833,-2.128,0.794,1.254
696.0,-4.533,-2.597,0.789,-1.987,0.808,1.285
700.0,-4.533,-2.597,0.789,-1.987,0.808,1.285
704.0,-4.469,-2.566,0.748,-1.987,0.808,1.325
707.0,-4.469,-2.566,0.748,-1.817,0.82,1.325
711.0,-4.469,-2.566,0.748,-1.817,0.82,1.325
715.0,-4.437,-2.523,0.72,-1.622,0.834,1.375
719.0,-4.437,-2.523,0.72,-1.622,0.834,1.375
723.0,-4.437,-2.523,0.72,-1.622,0.834,1.375
727.0,-4.438,-2.498,0.668,-1.408,0.85,1.436
730.0,-4.438,-2.498,0.668,-1.408,0.85,1.436
734.0,-4.445,-2.511,0.629,-1.175,0.867,1.507
738.0,-4.445,-2.511,0.629,-1.175,0.867,1.507
742.0,-4.445,-2.511,0.629,-1.175,0.867,1.507
746.0,-4.485,-2.548,0.584,-0.93,0.889,1.587
749.0,-4.485,-2.548,0.584,-0.93,0.889,1.587
753.0,-4.577,-2.591,0.532,-0.93,0.919,1.674
757.0,-4.577,-2.591,0.532,-0.677,0.919,1.674
761.0,-4.577,-2.591,0.532,-0.677,0.919,1.674
765.0,-4.755,-2.662,0.502,-0.424,0.955,1.768
769.0,-4.755,-2.662,0.502,-0.424,0.955,1.768
772.0,-4.755,-2.741,0.492,-0.424,0.955,1.768
776.0,-4.97,-2.741,0.492,-0.176,0.994,1.868
780.0,-4.97,-2.741,0.492,-0.176,0.994,1.868
784.0,-5.297,-2.835,0.583,0.065,1.033,1.973
788.0,-5.297,-2.835,0.583,0.065,1.033,1.973
791.0,-5.297,-2.835,0.583,0.065,1.033,1.973
795.0,-5.871,-3.025,0.793,0.293,1.059,2.079
799.0,-5.871,-3.025,0.793,0.293,1.059,2.079
802.0,-6.801,-3.373,1.087,0.293,1.064,2.179
806.0,-6.801,-3.373,1.087,0.498,1.064,2.179
810.0,-6.801,-3.373,1.087,0.498,1.064,2.179
814.0,-8.307,-4.132,1.707,0.673,1.045,2.253
817.0,-8.307,-4.132,1.707,0.673,1.045,2.253
821.0,-8.307,-4.132,1.707,0.673,1.045,2.253
825.0,-10.798,-5.353,2.496,0.83,0.973,2.264
829.0,-10.798,-5.353,2.496,0.83,0.973,2.264
833.0,-14.643,-6.762,2.699,0.976,0.824,2.188
836.0,-14.643,-6.762,2.699,0.976,0.824,2.188
840.0,-14.643,-6.762,2.699,0.976,0.824,2.188
844.0,-18.967,-7.725,2.219,1.078,0.614,2.049
848.0,-18.967,-7.725,2.219,1.078,0.614,2.049
852.0,-19.6,-7.469,1.352,1.078,0.614,2.049
855.0,-19.6,-7.469,1.352,1.065,0.339,1.934
859.0,-19.6,-7.469,1.352,1.065,0.339,1.934
863.0,-19.6,-6.837,0.601,0.888,0.064,1.908
867.0,-19.6,-6.837,0.601,0.888,0.064,1.908
871.0,-19.6,-6.837,0.601,0.888,0.064,1.908
875.0,-19.6,-6.416,-0.057,0.587,-0.088,1.886
879.0,-19.6,-6.416,-0.057,0.587,-0.088,1.886
883.0,-19.6,-5.931,-0.517,0.242,-0.105,1.81
887.0,-19.6,-5.931,-0.517,0.242,-0.105,1.81
891.0,-19.6,-5.931,-0.517,0.242,-0.105,1.81
895.0,-19.6,-5.45,-0.497,-0.099,-0.101,1.695
899.0,-19.6,-5.45,-0.497,-0.099,-0.101,1.695
903.0,-19.6,-5.13,-0.111,-0.428,-0.151,1.524
907.0,-19.6,-5.13,-0.111,-0.428,-0.151,1.524
911.0,-19.6,-4.816,0.419,-0.428,-0.151,1.524
915.0,-19.6,-4.816,0.419,-0.735,-0.237,1.261
919.0,-19.6,-4.816,0.419,-0.735,-0.237,1.261
923.0,-19.6,-4.553,1.079,-1.007,-0.338,0.921
927.0,-19.6,-4.553,1.079,-1.007,-0.338,0.921
931.0,-19.215,-4.158,1.666,-1.007,-0.338,0.539
935.0,-19.215,-4.158,1.666,-1.255,-0.457,0.539
939.0,-19.215,-4.158,1.666,-1.255,-0.457,0.539
943.0,-17.362,-3.81,2.129,-1.491,-0.576,0.159
947.0,-17.362,-3.81,2.129,-1.491,-0.576,0.159
951.0,-15.268,-3.503,2.355,-1.713,-0.682,-0.199
955.0,-15.268,-3.503,2.355,-1.713,-0.682,-0.199
959.0,-15.268,-3.503,2.355,-1.713,-0.682,-0.199
963.0,-13.379,-3.218,2.38,-1.899,-0.776,-0.532
967.0,-13.379,-3.218,2.38,-1.899,-0.776,-0.532
971.0,-11.745,-2.989,2.177,-2.042,-0.853,-0.836
975.0,-11.745,-2.989,2.177,-2.042,-0.853,-0.836
979.0,-11.745,-2.989,2.177,-2.042,-0.853,-0.836
983.0,-10.33,-2.754,1.838,-2.137,-0.913,-1.107
987.0,-10.33,-2.754,1.838,-2.137,-0.913,-1.107
992.0,-9.124,-2.592,1.47,-2.188,-0.949,-1.336
996.0,-9.124,-2.592,1.47,-2.188,-0.949,-1.336
1000.0,-8.222,-2.455,1.171,-2.188,-0.949,-1.336
1004.0,-8.222,-2.455,1.171,-2.191,-0.956,-1.515
1008.0,-8.222,-2.455,1.171,-2.191,-0.956,-1.515
1012.0,-7.69,-2.329,0.921,-2.144,-0.932,-1.639
1016.0,-7.69,-2.329,0.921,-2.144,-0.932,-1.639
1020.0,-7.49,-2.232,0.643,-2.044,-0.889,-1.694
1024.0,-7.49,-2.232,0.643,-2.044,-0.889,-1.694
1028.0,-7.49,-2.232,0.643,-2.044,-0.889,-1.694
1032.0,-7.503,-2.158,0.348,-1.898,-0.84,-1.677
1036.0,-7.503,-2.158,0.348,-1.898,-0.84,-1.677
1040.0,-7.634,-2.057,0.027,-1.716,-0.797,-1.597
1044.0,-7.634,-2.057,0.027,-1.716,-0.797,-1.597
1048.0,-7.634,-2.057,-0.258,-1.716,-0.797,-1.597
1053.0,-8.038,-2.012,-0.258,-1.521,-0.756,-1.468
1057.0,-8.038,-2.012,-0.258,-1.521,-0.756,-1.468
1061.0,-8.579,-1.954,-0.51,-1.314,-0.709,-1.29
1065.0,-8.579,-1.954,-0.51,-1.314,-0.709,-1.29
1069.0,-9.089,-1.884,-0.668,-1.115,-0.662,-1.078
1073.0,-9.089,-1.884,-0.668,-1.115,-0.662,-1.078
1078.0,-9.089,-1.884,-0.668,-1.115,-0.662,-1.078
1082.0,-9.487,-1.832,-0.638,-0.941,-0.613,-0.848
1086.0,-9.487,-1.832,-0.638,-0.941,-0.613,-0.848
1090.0,-9.708,-1.744,-0.504,-0.805,-0.567,-0.612
1094.0,-9.708,-1.744,-0.504,-0.805,-0.567,-0.612
1098.0,-9.654,-1.634,-0.215,-0.805,-0.567,-0.381
1103.0,-9.654,-1.634,-0.215,-0.71,-0.517,-0.381
1107.0,-9.654,-1.634,-0.215,-0.71,-0.517,-0.381
1111.0,-9.364,-1.47,0.241,-0.655,-0.464,-0.173
1115.0,-9.364,-1.47,0.241,-0.655,-0.464,-0.173
1119.0,-8.923,-1.334,0.849,-0.629,-0.414,0.002
1123.0,-8.923,-1.334,0.849,-0.629,-0.414,0.002
1127.0,-8.923,-1.334,0.849,-0.629,-0.414,0.002
1131.0,-8.438,-1.14,1.451,-0.609,-0.374,0.139
1135.0,-8.438,-1.14,1.451,-0.609,-0.374,0.139
1139.0,-7.965,-0.864,1.92,-0.574,-0.337,0.239
1143.0,-7.965,-0.864,1.92,-0.574,-0.337,0.239
1147.0,-7.965,-0.864,1.92,-0.574,-0.337,0.239
1151.0,-7.508,-0.508,2.323,-0.516,-0.296,0.317
1155.0,-7.508,-0.508,2.323,-0.516,-0.296,0.317
1159.0,-7.047,-0.076,2.61,-0.434,-0.25,0.384
1163.0,-7.047,-0.076,2.61,-0.434,-0.25,0.384
1167.0,-7.047,-0.076,2.683,-0.434,-0.25,0.384
1171.0,-6.564,0.296,2.683,-0.332,-0.198,0.452
1175.0,-6.564,0.296,2.683,-0.332,-0.198,0.452
1179.0,-6.103,0.65,2.633,-0.223,-0.138,0.517
1183.0,-6.103,0.65,2.633,-0.223,-0.138,0.517
1187.0,-6.103,0.65,2.62,-0.223,-0.138,0.517
1191.0,-5.688,0.982,2.62,-0.124,-0.067,0.582
1195.0,-5.688,0.982,2.62,-0.124,-0.067,0.582
1198.0,-5.326,1.268,2.585,-0.038,0.011,0.654
1202.0,-5.326,1.268,2.585,-0.038,0.011,0.654
1206.0,-5.326,1.268,2.585,-0.038,0.011,0.654
1210.0,-4.968,1.443,2.544,0.033,0.105,0.724
1214.0,-4.968,1.443,2.544,0.033,0.105,0.724
1217.0,-4.667,1.521,2.619,0.091,0.216,0.782
1221.0,-4.667,1.521,2.619,0.091,0.216,0.782
1225.0,-4.667,1.521,2.619,0.091,0.216,0.782
1229.0,-4.409,1.545,2.697,0.14,0.328,0.813
1232.0,-4.409,1.545,2.697,0.14,0.328,0.813
1236.0,-4.409,1.545,2.697,0.14,0.328,0.813
1240.0,-4.18,1.578,2.795,0.18,0.431,0.813
1243.0,-4.18,1.578,2.795,0.18,0.431,0.813
1247.0,-3.934,1.654,2.896,0.209,0.512,0.785
1251.0,-3.934,1.654,2.896,0.209,0.512,0.785
1255.0,-3.934,1.654,2.896,0.209,0.512,0.785
1258.0,-3.674,1.746,2.956,0.219,0.566,0.742
1262.0,-3.674,1.746,2.956,0.219,0.566,0.742
1266.0,-3.674,1.746,2.993,0.219,0.566,0.742
1270.0,-3.398,1.828,2.993,0.207,0.596,0.696
1273.0,-3.398,1.828,2.993,0.207,0.596,0.696
1277.0,-3.176,1.901,2.956,0.17,0.614,0.657
1281.0,-3.176,1.901,2.956,0.17,0.614,0.657
1285.0,-3.176,1.901,2.956,0.17,0.614,0.657
1288.0,-2.983,1.96,2.874,0.107,0.627,0.631
1292.0,-2.983,1.96,2.874,0.107,0.627,0.631
1296.0,-2.868,1.964,2.812,0.107,0.627,0.631
1299.0,-2.868,1.964,2.812,0.015,0.639,0.619
1303.0,-2.868,1.964,2.812,0.015,0.639,0.619
1307.0,-2.84,1.911,2.743,-0.098,0.645,0.619
1311.0,-2.84,1.911,2.743,-0.098,0.645,0.619
1315.0,-2.84,1.911,2.743,-0.098,0.645,0.619
1318.0,-2.846,1.791,2.684,-0.223,0.641,0.622
1322.0,-2.846,1.791,2.684,-0.223,0.641,0.622
1326.0,-2.825,1.646,2.672,-0.35,0.621,0.614
1330.0,-2.825,1.646,2.672,-0.35,0.621,0.614
1334.0,-2.825,1.646,2.672,-0.35,0.621,0.614
1337.0,-2.728,1.478,2.674,-0.465,0.59,0.581
1341.0,-2.728,1.478,2.674,-0.465,0.59,0.581
1345.0,-2.57,1.296,2.7,-0.465,0.59,0.581
1349.0,-2.57,1.296,2.7,-0.559,0.547,0.52
1353.0,-2.57,1.296,2.7,-0.559,0.547,0.52
1357.0,-2.334,1.117,2.692,-0.63,0.497,0.437
1360.0,-2.334,1.117,2.692,-0.63,0.497,0.437
1364.0,-2.334,1.117,2.692,-0.63,0.497,0.437
1368.0,-2.206,0.953,2.604,-0.676,0.459,0.337
1372.0,-2.206,0.953,2.604,-0.676,0.459,0.337
1376.0,-2.341,0.833,2.51,-0.699,0.462,0.228
1379.0,-2.341,0.833,2.51,-0.699,0.462,0.228
1383.0,-2.341,0.833,2.51,-0.699,0.462,0.228
1387.0,-2.968,0.781,2.544,-0.702,0.525,0.122
1391.0,-2.968,0.781,2.544,-0.702,0.525,0.122
1395.0,-4.144,0.792,2.752,-0.702,0.525,0.034
1399.0,-4.144,0.792,2.752,-0.687,0.64,0.034
1402.0,-4.144,0.792,2.752,-0.687,0.64,0.034
1406.0,-5.77,0.807,3.091,-0.654,0.789,-0.02
1410.0,-5.77,0.807,3.091,-0.654,0.789,-0.02
1414.0,-5.77,0.704,3.522,-0.654,0.789,-0.02
1418.0,-7.927,0.704,3.522,-0.599,0.957,-0.036
1422.0,-7.927,0.704,3.522,-0.599,0.957,-0.036
1426.0,-10.749,0.501,4.043,-0.517,1.131,-0.011
1430.0,-10.749,0.501,4.043,-0.517,1.131,-0.011
1434.0,-10.749,0.182,4.711,-0.517,1.131,-0.011
1438.0,-13.942,0.182,4.711,-0.401,1.275,0.06
1442.0,-13.942,0.182,4.711,-0.401,1.275,0.06
1446.0,-16.819,0.056,5.365,-0.271,1.328,0.182
1449.0,-16.819,0.056,5.365,-0.271,1.328,0.182
1453.0,-16.819,0.056,5.898,-0.271,1.328,0.182
1457.0,-18.425,0.108,5.898,-0.151,1.247,0.36
1461.0,-18.425,0.108,5.898,-0.151,1.247,0.36
1465.0,-18.245,0.1,6.13,-0.057,1.06,0.54
1469.0,-18.245,0.1,6.13,-0.057,1.06,0.54
1473.0,-18.245,0.1,6.13,-0.057,1.06,0.54
1477.0,-16.868,0.086,5.822,0.021,0.863,0.643
1481.0,-16.868,0.086,5.822,0.021,0.863,0.643
1484.0,-15.342,0.294,5.212,0.087,0.737,0.635
1488.0,-15.342,0.294,5.212,0.087,0.737,0.635
1492.0,-15.342,0.294,5.212,0.087,0.737,0.635
1496.0,-14.22,0.669,4.586,0.137,0.713,0.54
1500.0,-14.22,0.669,4.586,0.137,0.713,0.54
1504.0,-13.689,1.055,4.112,0.137,0.77,0.403
1507.0,-13.689,1.055,4.112,0.165,0.77,0.403
1511.0,-13.689,1.055,4.112,0.165,0.77,0.403
1515.0,-13.924,1.358,3.84,0.17,0.869,0.272
1519.0,-13.924,1.358,3.84,0.17,0.869,0.272
1523.0,-13.924,1.568,3.813,0.17,0.869,0.272
1526.0,-14.836,1.568,3.813,0.159,0.975,0.195
1530.0,-14.836,1.568,3.813,0.159,0.975,0.195
1534.0,-15.717,1.504,3.996,0.142,1.053,0.203
1538.0,-15.717,1.504,3.996,0.142,1.053,0.203
1542.0,-15.717,1.504,3.996,0.142,1.053,0.203
1546.0,-16.052,1.088,4.186,0.131,1.077,0.281
1549.0,-16.052,1.088,4.186,0.131,1.077,0.281
1553.0,-16.104,0.46,4.227,0.132,1.057,0.377
1557.0,-16.104,0.46,4.227,0.132,1.057,0.377
1561.0,-16.104,0.46,4.227,0.132,1.057,0.377
1565.0,-16.108,-0.167,4.068,0.147,1.021,0.439
1569.0,-16.108,-0.167,4.068,0.147,1.021,0.439
1572.0,-15.905,-0.663,3.793,0.147,1.021,0.442
1576.0,-15.905,-0.663,3.793,0.176,0.973,0.442
1580.0,-15.905,-0.663,3.793,0.176,0.973,0.442
1584.0,-15.552,-0.934,3.62,0.221,0.905,0.39
1588.0,-15.552,-0.934,3.62,0.221,0.905,0.39
1592.0,-14.949,-1.012,3.714,0.221,0.905,0.39
1596.0,-14.949,-1.012,3.714,0.285,0.811,0.305
1600.0,-14.949,-1.012,3.714,0.285,0.811,0.305
1604.0,-13.938,-1.027,3.973,0.38,0.67,0.216
1608.0,-13.938,-1.027,3.973,0.38,0.67,0.216
1612.0,-12.827,-1.063,3.989,0.38,0.67,0.216
1615.0,-12.827,-1.063,3.989,0.51,0.474,0.13
1619.0,-12.827,-1.063,3.989,0.51,0.474,0.13
1623.0,-12.072,-1.074,3.509,0.666,0.26,0.036
1627.0,-12.072,-1.074,3.509,0.666,0.26,0.036
1631.0,-12.072,-1.074,2.755,0.666,0.26,0.036
1635.0,-11.872,-0.998,2.755,0.825,0.077,-0.063
1639.0,-11.872,-0.998,2.755,0.825,0.077,-0.063
1643.0,-12.127,-0.902,2.122,0.965,-0.059,-0.144
1647.0,-12.127,-0.902,2.122,0.965,-0.059,-0.144
1651.0,-12.58,-0.851,1.755,0.965,-0.059,-0.144
1655.0,-12.58,-0.851,1.755,1.073,-0.163,-0.176
1659.0,-12.58,-0.851,1.755,1.073,-0.163,-0.176
1663.0,-13.001,-0.955,1.719,1.151,-0.257,-0.15
1667.0,-13.001,-0.955,1.719,1.151,-0.257,-0.15
1671.0,-13.335,-1.214,1.772,1.211,-0.369,-0.077
1676.0,-13.335,-1.214,1.772,1.211,-0.369,-0.077
1680.0,-13.335,-1.214,1.772,1.211,-0.369,-0.077
1684.0,-13.491,-1.506,1.753,1.257,-0.51,0.021
1688.0,-13.491,-1.506,1.753,1.257,-0.51,0.021
1692.0,-13.44,-1.75,1.563,1.286,-0.672,0.117
1696.0,-13.44,-1.75,1.563,1.286,-0.672,0.117
1700.0,-13.44,-1.75,1.563,1.286,-0.672,0.117
1704.0,-13.136,-1.849,1.3,1.287,-0.838,0.186
1708.0,-13.136,-1.849,1.3,1.287,-0.838,0.186
1712.0,-12.641,-1.82,1.037,1.253,-0.983,0.213
1716.0,-12.641,-1.82,1.037,1.253,-0.983,0.213
1720.0,-12.641,-1.82,1.037,1.253,-0.983,0.213
1724.0,-12.147,-1.658,0.838,1.182,-1.099,0.2
1728.0,-12.147,-1.658,0.838,1.182,-1.099,0.2
1732.0,-11.796,-1.473,0.704,1.078,-1.183,0.162
1736.0,-11.796,-1.473,0.704,1.078,-1.183,0.162
1740.0,-11.796,-1.473,0.652,1.078,-1.183,0.162
1744.0,-11.58,-1.297,0.652,0.949,-1.246,0.113
1748.0,-11.58,-1.297,0.652,0.949,-1.246,0.113
1752.0,-11.367,-1.193,0.492,0.802,-1.301,0.054
1756.0,-11.367,-1.193,0.492,0.802,-1.301,0.054
1760.0,-11.224,-0.938,0.598,0.802,-1.301,0.054
1764.0,-11.224,-0.938,0.598,0.642,-1.344,-0.02
1768.0,-11.224,-0.938,0.598,0.642,-1.344,-0.02
1772.0,-10.954,-1.007,0.288,0.479,-1.391,-0.1
1776.0,-10.954,-1.007,0.288,0.479,-1.391,-0.1
1780.0,-10.394,-0.906,0.096,0.479,-1.424,-0.207
1784.0,-10.394,-0.906,0.096,0.32,-1.424,-0.207
1788.0,-10.394,-0.906,0.096,0.32,-1.424,-0.207
1792.0,-9.77,-0.794,0.04,0.155,-1.435,-0.347
1796.0,-9.77,-0.794,0.04,0.155,-1.435,-0.347
1800.0,-9.345,-0.553,0.283,-0.007,-1.431,-0.507
1804.0,-9.345,-0.553,0.283,-0.007,-1.431,-0.507
1808.0,-9.345,-0.553,0.283,-0.007,-1.431,-0.507
1812.0,-8.758,-0.633,-0.083,-0.155,-1.429,-0.668
1817.0,-8.758,-0.633,-0.083,-0.155,-1.429,-0.668
1821.0,-8.091,-0.547,-0.167,-0.292,-1.402,-0.842
1825.0,-8.091,-0.547,-0.167,-0.292,-1.402,-0.842
1829.0,-7.509,-0.532,-0.174,-0.292,-1.402,-1.018
1833.0,-7.509,-0.532,-0.174,-0.418,-1.355,-1.018
1837.0,-7.509,-0.532,-0.174,-0.418,-1.355,-1.018
1842.0,-7.04,-0.58,-0.217,-0.524,-1.294,-1.185
1846.0,-7.04,-0.58,-0.217,-0.524,-1.294,-1.185
1850.0,-6.673,-0.705,-0.28,-0.609,-1.212,-1.333
1854.0,-6.673,-0.705,-0.28,-0.609,-1.212,-1.333
1858.0,-6.673,-0.873,-0.348,-0.609,-1.212,-1.333
1862.0,-6.457,-0.873,-0.348,-0.669,-1.109,-1.454
1867.0,-6.457,-0.873,-0.348,-0.669,-1.109,-1.454
1871.0,-6.331,-1.082,-0.377,-0.701,-0.993,-1.546
1875.0,-6.331,-1.082,-0.377,-0.701,-0.993,-1.546
1879.0,-6.248,-1.307,-0.357,-0.702,-0.873,-1.604
1883.0,-6.248,-1.307,-0.357,-0.702,-0.873,-1.604
1887.0,-6.248,-1.307,-0.357,-0.702,-0.873,-1.604
1892.0,-6.177,-1.572,-0.333,-0.668,-0.751,-1.634
1896.0,-6.177,-1.572,-0.333,-0.668,-0.751,-1.634
1900.0,-6.126,-1.861,-0.304,-0.6,-0.63,-1.635
1904.0,-6.126,-1.861,-0.304,-0.6,-0.63,-1.635
1908.0,-6.092,-2.169,-0.268,-0.6,-0.513,-1.611
1912.0,-6.092,-2.169,-0.268,-0.498,-0.513,-1.611
1917.0,-6.092,-2.169,-0.268,-0.498,-0.513,-1.611
1921.0,-6.103,-2.469,-0.211,-0.36,-0.397,-1.564
1925.0,-6.103,-2.469,-0.211,-0.36,-0.397,-1.564
1929.0,-6.151,-2.75,-0.167,-0.188,-0.285,-1.492
1933.0,-6.151,-2.75,-0.167,-0.188,-0.285,-1.492
1937.0,-6.239,-2.991,-0.106,-0.188,-0.285,-1.492
1942.0,-6.239,-2.991,-0.106,0.014,-0.178,-1.395
1946.0,-6.239,-2.991,-0.106,0.014,-0.178,-1.395
1950.0,-6.357,-3.199,-0.057,0.241,-0.083,-1.277
1954.0,-6.357,-3.199,-0.057,0.241,-0.083,-1.277
1958.0,-6.511,-3.415,-0.01,0.49,0.001,-1.139
1962.0,-6.511,-3.415,-0.01,0.49,0.001,-1.139
1966.0,-6.511,-3.415,-0.01,0.49,0.001,-1.139
1970.0,-6.695,-3.601,0.007,0.764,0.075,-0.986
1974.0,-6.695,-3.601,0.007,0.764,0.075,-0.986
1978.0,-6.84,-3.757,0.022,1.06,0.14,-0.827
1982.0,-6.84,-3.757,0.022,1.06,0.14,-0.827
1985.0,-6.84,-3.757,0.022,1.06,0.14,-0.827
1989.0,-6.994,-3.914,0.001,1.367,0.194,-0.672
1993.0,-6.994,-3.914,0.001,1.367,0.194,-0.672
1997.0,-7.168,-4.006,-0.044,1.677,0.24,-0.528
2001.0,-7.168,-4.006,-0.044,1.677,0.24,-0.528
2005.0,-7.168,-4.006,-0.044,1.677,0.24,-0.528
2009.0,-7.369,-4.07,-0.132,1.983,0.277,-0.396
2013.0,-7.369,-4.07,-0.132,1.983,0.277,-0.396
2017.0,-7.561,-4.073,-0.214,2.279,0.309,-0.276
2021.0,-7.561,-4.073,-0.214,2.279,0.309,-0.276
2025.0,-7.561,-4.073,-0.214,2.279,0.309,-0.276
2029.0,-7.701,-4.003,-0.303,2.561,0.334,-0.172
2033.0,-7.701,-4.003,-0.303,2.561,0.334,-0.172
2037.0,-7.826,-3.919,-0.378,2.823,0.352,-0.085
2041.0,-7.826,-3.919,-0.378,2.823,0.352,-0.085
2045.0,-7.826,-3.919,-0.378,2.823,0.352,-0.085
2049.0,-7.959,-3.864,-0.45,3.061,0.361,-0.018
2053.0,-7.959,-3.864,-0.45,3.061,0.361,-0.018
2057.0,-8.155,-3.793,-0.561,3.27,0.362,0.026
2061.0,-8.155,-3.793,-0.561,3.27,0.362,0.026
2065.0,-8.155,-3.793,-0.561,3.27,0.362,0.026
2069.0,-8.398,-3.697,-0.672,3.447,0.36,0.052
2073.0,-8.398,-3.697,-0.672,3.447,0.36,0.052
2077.0,-8.695,-3.556,-0.779,3.591,0.359,0.065
2081.0,-8.695,-3.556,-0.779,3.591,0.359,0.065
2084.0,-8.695,-3.556,-0.779,3.591,0.359,0.065
2088.0,-9.032,-3.392,-0.857,3.701,0.359,0.075
2092.0,-9.032,-3.392,-0.857,3.701,0.359,0.075
2096.0,-9.403,-3.266,-0.924,3.779,0.358,0.084
2100.0,-9.403,-3.266,-0.924,3.779,0.358,0.084
2104.0,-9.403,-3.266,-0.924,3.779,0.358,0.084
2108.0,-9.777,-3.106,-0.939,3.826,0.355,0.091
2112.0,-9.777,-3.106,-0.939,3.826,0.355,0.091
2116.0,-10.153,-2.97,-0.912,3.844,0.348,0.095
2120.0,-10.153,-2.97,-0.912,3.844,0.348,0.095
2124.0,-10.153,-2.97,-0.912,3.844,0.348,0.095
2128.0,-10.459,-2.849,-0.865,3.832,0.335,0.099
2132.0,-10.459,-2.849,-0.865,3.832,0.335,0.099
2136.0,-10.683,-2.731,-0.766,3.795,0.315,0.099
2140.0,-10.683,-2.731,-0.766,3.795,0.315,0.099
2144.0,-10.683,-2.731,-0.766,3.795,0.315,0.099
2148.0,-10.869,-2.636,-0.658,3.738,0.289,0.089
2152.0,-10.869,-2.636,-0.658,3.738,0.289,0.089
2156.0,-11.115,-2.532,-0.517,3.665,0.256,0.068
2160.0,-11.115,-2.532,-0.517,3.665,0.256,0.068
2164.0,-11.115,-2.532,-0.517,3.665,0.256,0.068
2168.0,-11.439,-2.43,-0.374,3.578,0.219,0.034
2172.0,-11.439,-2.43,-0.374,3.578,0.219,0.034
2176.0,-11.742,-2.301,-0.25,3.482,0.171,-0.012
2180.0,-11.742,-2.301,-0.25,3.482,0.171,-0.012
2184.0,-11.742,-2.301,-0.154,3.482,0.171,-0.012
2188.0,-12.017,-2.154,-0.154,3.377,0.116,-0.071
2192.0,-12.017,-2.154,-0.154,3.377,0.116,-0.071
2196.0,-12.336,-1.952,-0.12,3.258,0.061,-0.148
2200.0,-12.336,-1.952,-0.12,3.258,0.061,-0.148
2204.0,-12.752,-1.72,-0.133,3.258,0.061,-0.242
2208.0,-12.752,-1.72,-0.133,3.123,0.013,-0.242
2212.0,-12.752,-1.72,-0.133,3.123,0.013,-0.242
2216.0,-13.251,-1.472,-0.191,2.969,-0.024,-0.341
2221.0,-13.251,-1.472,-0.191,2.969,-0.024,-0.341
2225.0,-13.65,-1.24,-0.263,2.794,-0.051,-0.433
2229.0,-13.65,-1.24,-0.263,2.794,-0.051,-0.433
2233.0,-13.65,-1.24,-0.263,2.794,-0.051,-0.433
2237.0,-13.907,-1.027,-0.266,2.594,-0.066,-0.51
2241.0,-13.907,-1.027,-0.266,2.594,-0.066,-0.51
2246.0,-14.162,-0.891,-0.203,2.368,-0.066,-0.571
2250.0,-14.162,-0.891,-0.203,2.368,-0.066,-0.571
2254.0,-14.609,-0.818,-0.099,2.121,-0.044,-0.615
2258.0,-14.609,-0.818,-0.099,2.121,-0.044,-0.615
2262.0,-14.609,-0.818,-0.099,2.121,-0.044,-0.615
2266.0,-15.168,-0.82,0.038,1.859,-0.006,-0.644
2270.0,-15.168,-0.82,0.038,1.859,-0.006,-0.644
2275.0,-15.569,-0.844,0.191,1.583,0.033,-0.661
2279.0,-15.569,-0.844,0.191,1.583,0.033,-0.661
2283.0,-15.569,-0.844,0.346,1.583,0.033,-0.661
2287.0,-15.689,-0.85,0.346,1.297,0.058,-0.67
2290.0,-15.689,-0.85,0.346,1.297,0.058,-0.67
2294.0,-15.47,-0.817,0.456,1.006,0.071,-0.687
2298.0,-15.47,-0.817,0.456,1.006,0.071,-0.687
2302.0,-15.47,-0.718,0.572,1.006,0.071,-0.687
2306.0,-14.763,-0.718,0.572,0.714,0.08,-0.72
2310.0,-14.763,-0.718,0.572,0.714,0.08,-0.72
2314.0,-13.736,-0.546,0.733,0.425,0.082,-0.773
2318.0,-13.736,-0.546,0.733,0.425,0.082,-0.773
2322.0,-12.601,-0.361,0.943,0.425,0.082,-0.773
2326.0,-12.601,-0.361,0.943,0.147,0.073,-0.844
2330.0,-12.601,-0.361,0.943,0.147,0.073,-0.844
2334.0,-11.381,-0.206,1.104,-0.108,0.045,-0.928
2338.0,-11.381,-0.206,1.104,-0.108,0.045,-0.928
2343.0,-10.087,-0.129,1.218,-0.108,-0.013,-1.025
2347.0,-10.087,-0.129,1.218,-0.333,-0.013,-1.025
2351.0,-10.087,-0.129,1.218,-0.333,-0.013,-1.025
2355.0,-8.903,-0.112,1.268,-0.518,-0.093,-1.143
2359.0,-8.903,-0.112,1.268,-0.518,-0.093,-1.143
2363.0,-7.938,-0.126,1.202,-0.661,-0.178,-1.289
2367.0,-7.938,-0.126,1.202,-0.661,-0.178,-1.289
2371.0,-7.938,-0.126,1.022,-0.661,-0.178,-1.289
2375.0,-7.442,-0.193,1.022,-0.762,-0.238,-1.452
2380.0,-7.442,-0.193,1.022,-0.762,-0.238,-1.452
2384.0,-7.488,-0.219,0.781,-0.83,-0.251,-1.604
2388.0,-7.488,-0.219,0.781,-0.83,-0.251,-1.604
2392.0,-7.996,-0.261,0.598,-0.83,-0.251,-1.711
2396.0,-7.996,-0.261,0.598,-0.874,-0.219,-1.711
2400.0,-7.996,-0.261,0.598,-0.874,-0.219,-1.711
2404.0,-8.785,-0.388,0.535,-0.9,-0.161,-1.751
2408.0,-8.785,-0.388,0.535,-0.9,-0.161,-1.751
2412.0,-9.647,-0.612,0.609,-0.905,-0.096,-1.727
2416.0,-9.647,-0.612,0.609,-0.905,-0.096,-1.727
2420.0,-9.647,-0.612,0.609,-0.905,-0.096,-1.727
2424.0,-10.537,-0.918,0.756,-0.886,-0.038,-1.653
2429.0,-10.537,-0.918,0.756,-0.886,-0.038,-1.653
2433.0,-11.325,-1.223,0.98,-0.836,0.001,-1.541
2437.0,-11.325,-1.223,0.98,-0.836,0.001,-1.541
2441.0,-11.85,-1.486,1.3,-0.836,0.001,-1.541
2445.0,-11.85,-1.486,1.3,-0.759,0.005,-1.396
2449.0,-11.85,-1.486,1.3,-0.759,0.005,-1.396
2453.0,-12.054,-1.699,1.628,-0.658,-0.035,-1.23
2457.0,-12.054,-1.699,1.628,-0.658,-0.035,-1.23
2462.0,-11.847,-1.805,1.865,-0.54,-0.113,-1.063
2466.0,-11.847,-1.805,1.865,-0.54,-0.113,-1.063
2470.0,-11.847,-1.805,1.865,-0.54,-0.113,-1.063
2474.0,-11.279,-1.793,2.046,-0.414,-0.216,-0.918
2478.0,-11.279,-1.793,2.046,-0.414,-0.216,-0.918
2482.0,-10.566,-1.623,2.113,-0.291,-0.332,-0.813
2487.0,-10.566,-1.623,2.113,-0.291,-0.332,-0.813
2491.0,-9.871,-1.303,2.057,-0.291,-0.451,-0.751
2495.0,-9.871,-1.303,2.057,-0.187,-0.451,-0.751
2499.0,-9.871,-1.303,2.057,-0.187,-0.451,-0.751
2503.0,-9.213,-0.922,1.924,-0.111,-0.564,-0.722
2507.0,-9.213,-0.922,1.924,-0.111,-0.564,-0.722
2511.0,-8.6,-0.544,1.808,-0.061,-0.668,-0.712
2515.0,-8.6,-0.544,1.808,-0.061,-0.668,-0.712
2519.0,-8.6,-0.544,1.808,-0.061,-0.668,-0.712
2523.0,-8.035,-0.235,1.667,-0.03,-0.762,-0.717
2527.0,-8.035,-0.235,1.667,-0.03,-0.762,-0.717
2531.0,-7.585,0.022,1.472,-0.015,-0.842,-0.734
2535.0,-7.585,0.022,1.472,-0.015,-0.842,-0.734
2539.0,-7.47,0.221,1.208,-0.015,-0.842,-0.734
2543.0,-7.47,0.221,1.208,-0.019,-0.895,-0.756
2547.0,-7.47,0.221,1.208,-0.019,-0.895,-0.756
2551.0,-7.802,0.405,0.949,-0.047,-0.901,-0.769
2555.0,-7.802,0.405,0.949,-0.047,-0.901,-0.769
2559.0,-8.308,0.514,0.835,-0.047,-0.901,-0.769
2563.0,-8.308,0.514,0.835,-0.103,-0.867,-0.757
2567.0,-8.308,0.514,0.835,-0.103,-0.867,-0.757
2571.0,-8.712,0.579,0.943,-0.185,-0.821,-0.71
2575.0,-8.712,0.579,0.943,-0.185,-0.821,-0.71
2579.0,-8.846,0.558,1.232,-0.185,-0.793,-0.633
2583.0,-8.846,0.558,1.232,-0.292,-0.793,-0.633
2587.0,-8.846,0.558,1.232,-0.292,-0.793,-0.633
2591.0,-8.794,0.491,1.579,-0.414,-0.796,-0.541
2595.0,-8.794,0.491,1.579,-0.414,-0.796,-0.541
2599.0,-8.705,0.397,1.793,-0.545,-0.823,-0.45
2603.0,-8.705,0.397,1.793,-0.545,-0.823,-0.45
2607.0,-8.705,0.397,1.793,-0.545,-0.823,-0.45
2611.0,-8.709,0.324,1.847,-0.682,-0.86,-0.371
2615.0,-8.709,0.324,1.847,-0.682,-0.86,-0.371
2619.0,-8.807,0.284,1.774,-0.828,-0.888,-0.298
2623.0,-8.807,0.284,1.774,-0.828,-0.888,-0.298
2627.0,-8.807,0.284,1.774,-0.828,-0.888,-0.298
2631.0,-8.914,0.257,1.706,-0.989,-0.895,-0.217
2635.0,-8.914,0.257,1.706,-0.989,-0.895,-0.217
2639.0,-9.022,0.25,1.672,-1.162,-0.875,-0.117
2643.0,-9.022,0.25,1.672,-1.162,-0.875,-0.117
2647.0,-9.022,0.25,1.672,-1.162,-0.875,-0.117
2651.0,-9.148,0.169,1.682,-1.339,-0.826,0.013
2655.0,-9.148,0.169,1.682,-1.339,-0.826,0.013
2659.0,-9.34,0.086,1.755,-1.515,-0.758,0.174
2663.0,-9.34,0.086,1.755,-1.515,-0.758,0.174
2667.0,-9.34,0.086,1.755,-1.515,-0.758,0.174
2671.0,-9.612,-0.035,1.912,-1.684,-0.686,0.36
2675.0,-9.612,-0.035,1.912,-1.684,-0.686,0.36
2679.0,-9.954,-0.179,2.088,-1.838,-0.623,0.564
2683.0,-9.954,-0.179,2.088,-1.838,-0.623,0.564
2687.0,-9.954,-0.179,2.088,-1.838,-0.623,0.564
2691.0,-10.323,-0.346,2.235,-1.973,-0.58,0.775
2695.0,-10.323,-0.346,2.235,-1.973,-0.58,0.775
2699.0,-10.494,-0.477,2.356,-2.091,-0.567,0.981
2703.0,-10.494,-0.477,2.356,-2.091,-0.567,0.981
2707.0,-10.494,-0.477,2.428,-2.091,-0.567,0.981
2711.0,-10.37,-0.569,2.428,-2.195,-0.586,1.169
2715.0,-10.37,-0.569,2.428,-2.195,-0.586,1.169
2719.0,-10.112,-0.589,2.364,-2.29,-0.625,1.324
2723.0,-10.112,-0.589,2.364,-2.29,-0.625,1.324
2727.0,-9.869,-0.564,2.198,-2.29,-0.665,1.44
2731.0,-9.869,-0.564,2.198,-2.38,-0.665,1.44
2735.0,-9.869,-0.564,2.198,-2.38,-0.665,1.44
2739.0,-9.634,-0.486,1.978,-2.469,-0.699,1.519
2743.0,-9.634,-0.486,1.978,-2.469,-0.699,1.519
2747.0,-9.373,-0.421,1.737,-2.562,-0.729,1.57
2751.0,-9.373,-0.421,1.737,-2.562,-0.729,1.57
2755.0,-9.373,-0.421,1.737,-2.562,-0.729,1.57
2759.0,-9.153,-0.322,1.539,-2.657,-0.751,1.591
2763.0,-9.153,-0.322,1.539,-2.657,-0.751,1.591
2767.0,-8.888,-0.284,1.353,-2.752,-0.768,1.59
2771.0,-8.888,-0.284,1.353,-2.752,-0.768,1.59
2775.0,-8.888,-0.284,1.353,-2.752,-0.768,1.59
2779.0,-8.747,-0.261,1.121,-2.845,-0.776,1.57
2783.0,-8.747,-0.261,1.121,-2.845,-0.776,1.57
2787.0,-8.916,-0.268,0.918,-2.93,-0.762,1.536
2791.0,-8.916,-0.268,0.918,-2.93,-0.762,1.536
2795.0,-8.916,-0.268,0.918,-2.93,-0.762,1.536
2799.0,-9.285,-0.319,0.692,-3.01,-0.73,1.514
2803.0,-9.285,-0.319,0.692,-3.01,-0.73,1.514
2807.0,-9.757,-0.433,0.534,-3.098,-0.692,1.512
2811.0,-9.757,-0.433,0.534,-3.098,-0.692,1.512
2815.0,-9.757,-0.433,0.534,-3.098,-0.692,1.512
2819.0,-10.259,-0.609,0.452,-3.189,-0.66,1.533
2823.0,-10.259,-0.609,0.452,-3.189,-0.66,1.533
2827.0,-10.674,-0.872,0.373,-3.281,-0.652,1.575
2832.0,-10.674,-0.872,0.373,-3.281,-0.652,1.575
2836.0,-11.082,-1.13,0.223,-3.281,-0.652,1.575
2840.0,-11.082,-1.13,0.223,-3.372,-0.671,1.633
2844.0,-11.082,-1.13,0.223,-3.372,-0.671,1.633
2848.0,-11.35,-1.458,0.135,-3.451,-0.715,1.702
2852.0,-11.35,-1.458,0.135,-3.451,-0.715,1.702
2856.0,-11.413,-1.771,-0.082,-3.526,-0.79,1.758
2860.0,-11.413,-1.771,-0.082,-3.526,-0.79,1.758
2864.0,-11.413,-1.771,-0.082,-3.526,-0.79,1.758
2869.0,-11.355,-1.954,-0.361,-3.607,-0.885,1.805
2873.0,-11.355,-1.954,-0.361,-3.607,-0.885,1.805
2877.0,-11.322,-2.015,-0.698,-3.693,-0.979,1.851
2881.0,-11.322,-2.015,-0.698,-3.693,-0.979,1.851
2885.0,-11.359,-2.087,-1.114,-3.693,-0.979,1.851
2889.0,-11.359,-2.087,-1.114,-3.787,-1.058,1.9
2894.0,-11.359,-2.087,-1.114,-3.787,-1.058,1.9
2898.0,-11.35,-2.119,-1.525,-3.884,-1.115,1.951
2902.0,-11.35,-2.119,-1.525,-3.884,-1.115,1.951
2906.0,-11.267,-2.13,-1.879,-3.981,-1.157,1.999
2910.0,-11.267,-2.13,-1.879,-3.981,-1.157,1.999
2914.0,-11.267,-2.13,-2.176,-3.981,-1.157,1.999
2919.0,-11.177,-2.189,-2.176,-4.073,-1.194,2.038
2923.0,-11.177,-2.189,-2.176,-4.073,-1.194,2.038
2927.0,-11.106,-2.28,-2.433,-4.149,-1.224,2.066
2931.0,-11.106,-2.28,-2.433,-4.149,-1.224,2.066
2935.0,-11.133,-2.361,-2.67,-4.21,-1.242,2.077
2939.0,-11.133,-2.361,-2.67,-4.21,-1.242,2.077
2944.0,-11.133,-2.361,-2.67,-4.21,-1.242,2.077
2948.0,-11.167,-2.45,-2.741,-4.251,-1.243,2.08
2952.0,-11.167,-2.45,-2.741,-4.251,-1.243,2.08
2956.0,-11.085,-2.597,-2.853,-4.272,-1.235,2.09
2960.0,-11.085,-2.597,-2.853,-4.272,-1.235,2.09
2964.0,-10.95,-2.691,-2.919,-4.272,-1.218,2.103
2969.0,-10.95,-2.691,-2.919,-4.282,-1.218,2.103
2973.0,-10.95,-2.691,-2.919,-4.282,-1.218,2.103
2977.0,-10.908,-2.749,-2.892,-4.289,-1.185,2.117
2981.0,-10.908,-2.749,-2.892,-4.289,-1.185,2.117
2985.0,-10.953,-2.782,-2.846,-4.294,-1.143,2.128
2989.0,-10.953,-2.782,-2.846,-4.294,-1.143,2.128
2994.0,-10.993,-2.844,-2.791,-4.294,-1.143,2.128
2998.0,-10.993,-2.844,-2.791,-4.3,-1.1,2.136
