deltaTime,Acc_X,Acc_Y,Acc_Z,Gyro_X,Gyro_Y,Gyro_Z
0.0,-8.493,1.071,1.284,-0.561,-0.378,0.174
3.0,-8.493,1.071,1.284,-0.595,-0.378,0.174
6.0,-8.493,1.071,1.284,-0.595,-0.378,0.174
9.0,-8.493,1.071,1.284,-0.595,-0.378,0.174
12.0,-8.22,0.695,1.227,-0.612,-0.366,0.194
15.0,-8.22,0.695,1.227,-0.612,-0.366,0.194
18.0,-8.22,0.695,1.227,-0.612,-0.366,0.194
21.0,-7.994,0.307,1.186,-0.587,-0.335,0.212
24.0,-7.994,0.307,1.186,-0.587,-0.335,0.212
27.0,-7.994,0.307,1.186,-0.587,-0.335,0.212
30.0,-7.767,0.115,1.159,-0.518,-0.289,0.214
33.0,-7.767,0.115,1.159,-0.518,-0.289,0.214
36.0,-7.767,0.115,1.159,-0.518,-0.289,0.214
39.0,-7.615,0.141,1.128,-0.441,-0.228,0.203
43.0,-7.615,0.141,1.128,-0.441,-0.228,0.203
47.0,-7.615,0.141,1.128,-0.441,-0.228,0.203
51.0,-7.82,0.149,1.149,-0.381,-0.154,0.194
54.0,-7.82,0.149,1.149,-0.381,-0.154,0.194
58.0,-7.82,0.149,1.149,-0.381,-0.154,0.194
62.0,-8.078,0.176,1.212,-0.327,-0.084,0.192
65.0,-8.078,0.176,1.212,-0.327,-0.084,0.192
69.0,-8.389,0.22,1.373,-0.279,-0.019,0.192
73.0,-8.389,0.22,1.373,-0.279,-0.019,0.192
77.0,-8.389,0.22,1.373,-0.279,-0.019,0.192
80.0,-8.668,0.149,1.582,-0.236,0.039,0.197
84.0,-8.668,0.149,1.582,-0.236,0.039,0.197
88.0,-8.668,0.149,1.753,-0.236,0.039,0.197
91.0,-8.944,0.154,1.753,-0.184,0.089,0.193
95.0,-8.944,0.154,1.753,-0.184,0.089,0.193
99.0,-9.291,0.156,1.793,-0.136,0.119,0.187
102.0,-9.291,0.156,1.793,-0.136,0.119,0.187
106.0,-9.291,0.156,1.793,-0.136,0.119,0.187
110.0,-9.708,0.162,1.929,-0.107,0.124,0.195
113.0,-9.708,0.162,1.929,-0.107,0.124,0.195
117.0,-9.708,0.162,1.929,-0.107,0.124,0.195
121.0,-10.241,0.23,2.24,-0.082,0.117,0.199
125.0,-10.241,0.23,2.24,-0.082,0.117,0.199
129.0,-10.659,0.285,2.387,-0.056,0.094,0.2
132.0,-10.659,0.285,2.387,-0.056,0.094,0.2
136.0,-10.659,0.285,2.387,-0.056,0.094,0.2
140.0,-10.681,0.204,2.39,-0.028,0.054,0.198
144.0,-10.681,0.204,2.39,-0.028,0.054,0.198
148.0,-10.391,0.229,2.449,-0.028,0.017,0.194
151.0,-10.391,0.229,2.449,0.011,0.017,0.194
155.0,-10.391,0.229,2.449,0.011,0.017,0.194
159.0,-9.954,0.262,2.508,0.051,-0.007,0.184
163.0,-9.954,0.262,2.508,0.051,-0.007,0.184
166.0,-9.954,0.262,2.508,0.051,-0.007,0.184
170.0,-9.483,0.169,2.497,0.093,-0.02,0.164
174.0,-9.483,0.169,2.497,0.093,-0.02,0.164
178.0,-9.063,0.199,2.483,0.14,-0.026,0.128
181.0,-9.063,0.199,2.483,0.14,-0.026,0.128
185.0,-9.063,0.199,2.483,0.14,-0.026,0.128
189.0,-8.953,0.195,2.455,0.174,-0.031,0.077
193.0,-8.953,0.195,2.455,0.174,-0.031,0.077
196.0,-8.953,0.195,2.415,0.174,-0.031,0.077
200.0,-8.874,0.1,2.415,0.204,-0.043,0.019
204.0,-8.874,0.1,2.415,0.204,-0.043,0.019
207.0,-8.919,0.167,2.38,0.227,-0.058,-0.045
211.0,-8.919,0.167,2.38,0.227,-0.058,-0.045
215.0,-8.919,0.167,2.38,0.227,-0.058,-0.045
219.0,-8.844,0.334,2.362,0.219,-0.08,-0.116
223.0,-8.844,0.334,2.362,0.219,-0.08,-0.116
227.0,-8.851,0.354,2.502,0.219,-0.08,-0.186
230.0,-8.851,0.354,2.502,0.175,-0.086,-0.186
234.0,-8.851,0.354,2.502,0.175,-0.086,-0.186
238.0,-9.033,0.531,2.692,0.117,-0.088,-0.239
242.0,-9.033,0.531,2.692,0.117,-0.088,-0.239
246.0,-9.033,0.531,2.955,0.117,-0.088,-0.239
249.0,-9.139,0.825,2.955,0.031,-0.099,-0.284
253.0,-9.139,0.825,2.955,0.031,-0.099,-0.284
257.0,-9.388,0.804,3.087,-0.079,-0.11,-0.319
261.0,-9.388,0.804,3.087,-0.079,-0.11,-0.319
265.0,-9.388,0.804,3.087,-0.079,-0.11,-0.319
269.0,-9.715,0.413,3.155,-0.127,-0.118,-0.332
273.0,-9.715,0.413,3.155,-0.127,-0.118,-0.332
277.0,-9.76,0.371,3.036,-0.077,-0.133,-0.333
281.0,-9.76,0.371,3.036,-0.077,-0.133,-0.333
284.0,-9.76,0.371,3.036,-0.077,-0.133,-0.333
288.0,-10.009,0.424,2.775,-0.008,-0.153,-0.36
292.0,-10.009,0.424,2.775,-0.008,-0.153,-0.36
296.0,-10.319,0.207,2.578,0.051,-0.167,-0.373
300.0,-10.319,0.207,2.578,0.051,-0.167,-0.373
304.0,-10.319,0.207,2.578,0.051,-0.167,-0.373
308.0,-10.51,-0.061,2.535,0.145,-0.185,-0.353
312.0,-10.51,-0.061,2.535,0.145,-0.185,-0.353
316.0,-10.516,-0.194,2.538,0.276,-0.221,-0.322
320.0,-10.516,-0.194,2.538,0.276,-0.221,-0.322
324.0,-10.516,-0.194,2.538,0.276,-0.221,-0.322
328.0,-10.424,-0.209,2.534,0.417,-0.274,-0.301
332.0,-10.424,-0.209,2.534,0.417,-0.274,-0.301
336.0,-10.36,-0.092,2.475,0.562,-0.332,-0.294
340.0,-10.36,-0.092,2.475,0.562,-0.332,-0.294
344.0,-10.36,-0.092,2.475,0.562,-0.332,-0.294
348.0,-10.414,0.366,2.355,0.677,-0.392,-0.299
352.0,-10.414,0.366,2.355,0.677,-0.392,-0.299
356.0,-10.287,0.72,2.206,0.694,-0.449,-0.333
360.0,-10.287,0.72,2.206,0.694,-0.449,-0.333
364.0,-10.287,0.72,2.206,0.694,-0.449,-0.333
368.0,-10.025,0.783,2.072,0.627,-0.493,-0.386
371.0,-10.025,0.783,2.072,0.627,-0.493,-0.386
375.0,-9.969,1.003,1.94,0.514,-0.521,-0.453
379.0,-9.969,1.003,1.94,0.514,-0.521,-0.453
383.0,-9.969,1.003,1.94,0.514,-0.521,-0.453
387.0,-9.967,1.35,1.892,0.341,-0.547,-0.543
391.0,-9.967,1.35,1.892,0.341,-0.547,-0.543
394.0,-9.75,1.411,1.889,0.341,-0.575,-0.642
398.0,-9.75,1.411,1.889,0.115,-0.575,-0.642
402.0,-9.75,1.411,1.889,0.115,-0.575,-0.642
406.0,-9.537,1.379,1.896,-0.118,-0.603,-0.742
410.0,-9.537,1.379,1.896,-0.118,-0.603,-0.742
414.0,-9.537,1.273,1.879,-0.118,-0.603,-0.742
418.0,-9.377,1.273,1.879,-0.329,-0.62,-0.844
422.0,-9.377,1.273,1.879,-0.329,-0.62,-0.844
425.0,-9.282,1.149,1.869,-0.502,-0.624,-0.947
429.0,-9.282,1.149,1.869,-0.502,-0.624,-0.947
433.0,-9.282,1.149,1.866,-0.502,-0.624,-0.947
437.0,-9.226,0.976,1.866,-0.635,-0.617,-1.044
441.0,-9.226,0.976,1.866,-0.635,-0.617,-1.044
445.0,-9.186,0.777,1.84,-0.732,-0.599,-1.125
449.0,-9.186,0.777,1.84,-0.732,-0.599,-1.125
453.0,-9.186,0.777,1.84,-0.732,-0.599,-1.125
457.0,-9.126,0.557,1.86,-0.8,-0.565,-1.191
461.0,-9.126,0.557,1.86,-0.8,-0.565,-1.191
464.0,-9.103,0.323,1.905,-0.839,-0.518,-1.237
468.0,-9.103,0.323,1.905,-0.839,-0.518,-1.237
472.0,-9.103,0.323,1.905,-0.839,-0.518,-1.237
476.0,-9.124,0.078,1.975,-0.852,-0.46,-1.26
480.0,-9.124,0.078,1.975,-0.852,-0.46,-1.26
484.0,-9.212,-0.211,2.115,-0.836,-0.395,-1.26
488.0,-9.212,-0.211,2.115,-0.836,-0.395,-1.26
492.0,-9.212,-0.211,2.115,-0.836,-0.395,-1.26
496.0,-9.45,-0.543,2.3,-0.793,-0.333,-1.242
500.0,-9.45,-0.543,2.3,-0.793,-0.333,-1.242
504.0,-9.809,-0.93,2.347,-0.724,-0.277,-1.215
508.0,-9.809,-0.93,2.347,-0.724,-0.277,-1.215
512.0,-9.809,-0.93,2.347,-0.724,-0.277,-1.215
516.0,-10.232,-1.265,2.329,-0.633,-0.214,-1.19
520.0,-10.232,-1.265,2.329,-0.633,-0.214,-1.19
524.0,-10.612,-1.481,2.346,-0.522,-0.138,-1.168
528.0,-10.612,-1.481,2.346,-0.522,-0.138,-1.168
532.0,-10.978,-1.618,2.418,-0.522,-0.138,-1.168
536.0,-10.978,-1.618,2.418,-0.394,-0.057,-1.139
540.0,-10.978,-1.618,2.418,-0.394,-0.057,-1.139
545.0,-11.253,-1.704,2.468,-0.249,0.013,-1.091
549.0,-11.253,-1.704,2.468,-0.249,0.013,-1.091
553.0,-11.374,-1.811,2.529,-0.249,0.066,-1.027
556.0,-11.374,-1.811,2.529,-0.091,0.066,-1.027
560.0,-11.374,-1.811,2.529,-0.091,0.066,-1.027
564.0,-11.411,-1.975,2.562,0.074,0.103,-0.97
568.0,-11.411,-1.975,2.562,0.074,0.103,-0.97
572.0,-11.405,-2.125,2.477,0.248,0.126,-0.939
576.0,-11.405,-2.125,2.477,0.248,0.126,-0.939
580.0,-11.405,-2.125,2.477,0.248,0.126,-0.939
584.0,-11.319,-2.226,2.358,0.425,0.143,-0.939
588.0,-11.319,-2.226,2.358,0.425,0.143,-0.939
592.0,-11.278,-2.312,2.207,0.425,0.143,-0.962
596.0,-11.278,-2.312,2.207,0.603,0.153,-0.962
600.0,-11.278,-2.312,2.207,0.603,0.153,-0.962
604.0,-11.279,-2.347,2.037,0.772,0.162,-1.003
607.0,-11.279,-2.347,2.037,0.772,0.162,-1.003
611.0,-11.297,-2.304,1.926,0.772,0.162,-1.003
615.0,-11.297,-2.304,1.926,0.929,0.17,-1.047
619.0,-11.297,-2.304,1.926,0.929,0.17,-1.047
623.0,-11.255,-2.297,1.911,1.058,0.179,-1.083
627.0,-11.255,-2.297,1.911,1.058,0.179,-1.083
631.0,-11.255,-2.329,1.94,1.058,0.179,-1.083
635.0,-11.304,-2.329,1.94,1.154,0.189,-1.11
639.0,-11.304,-2.329,1.94,1.154,0.189,-1.11
643.0,-11.464,-2.365,2.008,1.216,0.199,-1.122
647.0,-11.464,-2.365,2.008,1.216,0.199,-1.122
650.0,-11.464,-2.365,2.205,1.216,0.199,-1.122
654.0,-11.907,-2.414,2.205,1.247,0.202,-1.113
658.0,-11.907,-2.414,2.205,1.247,0.202,-1.113
662.0,-12.39,-2.536,2.208,1.247,0.188,-1.079
666.0,-12.39,-2.536,2.208,1.247,0.188,-1.079
670.0,-12.39,-2.536,2.208,1.247,0.188,-1.079
674.0,-12.648,-2.798,2.073,1.205,0.165,-1.035
678.0,-12.648,-2.798,2.073,1.205,0.165,-1.035
682.0,-12.432,-3.086,1.944,1.129,0.156,-0.986
686.0,-12.432,-3.086,1.944,1.129,0.156,-0.986
689.0,-12.432,-3.086,1.944,1.129,0.156,-0.986
693.0,-11.848,-3.4,1.892,1.045,0.172,-0.925
697.0,-11.848,-3.4,1.892,1.045,0.172,-0.925
701.0,-11.222,-3.514,1.961,0.971,0.222,-0.873
705.0,-11.222,-3.514,1.961,0.971,0.222,-0.873
709.0,-11.222,-3.514,1.961,0.971,0.222,-0.873
713.0,-10.682,-3.54,2.064,0.916,0.297,-0.848
717.0,-10.682,-3.54,2.064,0.916,0.297,-0.848
721.0,-10.44,-3.667,2.261,0.881,0.375,-0.859
725.0,-10.44,-3.667,2.261,0.881,0.375,-0.859
729.0,-10.44,-3.667,2.261,0.881,0.375,-0.859
732.0,-10.433,-3.808,2.466,0.881,0.431,-0.905
736.0,-10.433,-3.808,2.466,0.881,0.431,-0.905
740.0,-10.382,-3.945,2.655,0.914,0.452,-0.979
744.0,-10.382,-3.945,2.655,0.914,0.452,-0.979
748.0,-10.382,-3.945,2.655,0.914,0.452,-0.979
752.0,-10.22,-3.964,2.851,0.969,0.448,-1.068
756.0,-10.22,-3.964,2.851,0.969,0.448,-1.068
760.0,-9.877,-3.888,3.046,0.969,0.439,-1.147
764.0,-9.877,-3.888,3.046,1.029,0.439,-1.147
767.0,-9.877,-3.888,3.046,1.029,0.439,-1.147
771.0,-9.446,-3.817,3.233,1.07,0.441,-1.198
775.0,-9.446,-3.817,3.233,1.07,0.441,-1.198
779.0,-9.446,-3.852,3.269,1.07,0.441,-1.198
783.0,-8.891,-3.852,3.269,1.077,0.465,-1.217
787.0,-8.891,-3.852,3.269,1.077,0.465,-1.217
790.0,-8.371,-4.049,3.322,1.05,0.517,-1.215
794.0,-8.371,-4.049,3.322,1.05,0.517,-1.215
798.0,-8.371,-4.049,3.322,1.05,0.517,-1.215
802.0,-8.032,-4.324,3.692,0.998,0.589,-1.206
806.0,-8.032,-4.324,3.692,0.998,0.589,-1.206
809.0,-7.774,-4.464,3.869,0.939,0.648,-1.189
813.0,-7.774,-4.464,3.869,0.939,0.648,-1.189
817.0,-7.774,-4.464,3.869,0.939,0.648,-1.189
821.0,-7.385,-4.364,4.079,0.885,0.702,-1.154
825.0,-7.385,-4.364,4.079,0.885,0.702,-1.154
829.0,-7.138,-4.366,4.562,0.885,0.702,-1.154
832.0,-7.138,-4.366,4.562,0.833,0.739,-1.107
836.0,-7.138,-4.366,4.562,0.833,0.739,-1.107
840.0,-6.936,-4.097,4.7,0.781,0.745,-1.067
844.0,-6.936,-4.097,4.7,0.781,0.745,-1.067
848.0,-6.936,-4.097,4.7,0.781,0.745,-1.067
851.0,-6.67,-3.821,4.769,0.737,0.742,-1.019
855.0,-6.67,-3.821,4.769,0.737,0.742,-1.019
859.0,-6.425,-3.809,4.825,0.703,0.729,-0.965
863.0,-6.425,-3.809,4.825,0.703,0.729,-0.965
867.0,-6.425,-3.809,4.825,0.703,0.729,-0.965
871.0,-6.243,-3.781,4.658,0.686,0.715,-0.918
874.0,-6.243,-3.781,4.658,0.686,0.715,-0.918
878.0,-5.971,-3.56,4.523,0.686,0.702,-0.877
882.0,-5.971,-3.56,4.523,0.681,0.702,-0.877
886.0,-5.971,-3.56,4.523,0.681,0.702,-0.877
890.0,-5.537,-3.22,4.397,0.677,0.683,-0.827
893.0,-5.537,-3.22,4.397,0.677,0.683,-0.827
897.0,-5.537,-2.85,4.36,0.677,0.683,-0.827
901.0,-5.128,-2.85,4.36,0.666,0.662,-0.764
905.0,-5.128,-2.85,4.36,0.666,0.662,-0.764
909.0,-4.954,-2.538,4.449,0.637,0.636,-0.694
913.0,-4.954,-2.538,4.449,0.637,0.636,-0.694
916.0,-4.954,-2.538,4.449,0.637,0.636,-0.694
920.0,-4.956,-2.32,4.566,0.585,0.604,-0.627
924.0,-4.956,-2.32,4.566,0.585,0.604,-0.627
928.0,-4.973,-2.1,4.746,0.515,0.564,-0.559
932.0,-4.973,-2.1,4.746,0.515,0.564,-0.559
935.0,-4.973,-2.1,4.746,0.515,0.564,-0.559
939.0,-4.773,-2.129,4.813,0.435,0.512,-0.491
943.0,-4.773,-2.129,4.813,0.435,0.512,-0.491
947.0,-4.511,-2.426,4.511,0.435,0.512,-0.491
951.0,-4.511,-2.426,4.511,0.367,0.479,-0.444
955.0,-4.511,-2.426,4.511,0.367,0.479,-0.444
958.0,-4.481,-2.597,4.397,0.342,0.468,-0.407
962.0,-4.481,-2.597,4.397,0.342,0.468,-0.407
966.0,-4.481,-2.597,4.397,0.342,0.468,-0.407
970.0,-4.336,-2.474,4.296,0.361,0.456,-0.35
974.0,-4.336,-2.474,4.296,0.361,0.456,-0.35
977.0,-4.245,-2.23,4.084,0.399,0.447,-0.266
981.0,-4.245,-2.23,4.084,0.399,0.447,-0.266
985.0,-4.245,-2.23,4.084,0.399,0.447,-0.266
989.0,-4.11,-1.927,3.766,0.446,0.45,-0.163
993.0,-4.11,-1.927,3.766,0.446,0.45,-0.163
997.0,-3.928,-1.783,3.456,0.446,0.469,-0.051
1000.0,-3.928,-1.783,3.456,0.497,0.469,-0.051
1004.0,-3.928,-1.783,3.456,0.497,0.469,-0.051
1008.0,-3.945,-1.811,3.284,0.555,0.5,0.055
1012.0,-3.945,-1.811,3.284,0.555,0.5,0.055
1016.0,-3.945,-1.944,3.208,0.555,0.5,0.055
1020.0,-4.271,-1.944,3.208,0.624,0.535,0.147
1024.0,-4.271,-1.944,3.208,0.624,0.535,0.147
1027.0,-4.737,-2.107,3.206,0.699,0.569,0.231
1031.0,-4.737,-2.107,3.206,0.699,0.569,0.231
1035.0,-4.737,-2.107,3.206,0.699,0.569,0.231
1039.0,-5.043,-2.355,3.272,0.776,0.591,0.31
1043.0,-5.043,-2.355,3.272,0.776,0.591,0.31
1046.0,-5.269,-2.583,3.377,0.849,0.596,0.384
1050.0,-5.269,-2.583,3.377,0.849,0.596,0.384
1054.0,-5.269,-2.583,3.377,0.849,0.596,0.384
1058.0,-5.557,-2.637,3.415,0.914,0.598,0.46
1062.0,-5.557,-2.637,3.415,0.914,0.598,0.46
1066.0,-5.824,-2.652,3.346,0.914,0.598,0.558
1069.0,-5.824,-2.652,3.346,0.969,0.613,0.558
1073.0,-5.824,-2.652,3.346,0.969,0.613,0.558
1077.0,-6.087,-2.64,3.266,1.006,0.645,0.679
1081.0,-6.087,-2.64,3.266,1.006,0.645,0.679
1085.0,-6.087,-2.64,3.266,1.006,0.645,0.679
1088.0,-6.343,-2.64,3.203,1.03,0.69,0.82
1092.0,-6.343,-2.64,3.203,1.03,0.69,0.82
1096.0,-6.51,-2.664,3.169,1.042,0.732,0.97
1100.0,-6.51,-2.664,3.169,1.042,0.732,0.97
1104.0,-6.51,-2.664,3.169,1.042,0.732,0.97
1108.0,-6.536,-2.742,3.206,1.042,0.758,1.117
1111.0,-6.536,-2.742,3.206,1.042,0.758,1.117
1115.0,-6.492,-2.771,3.269,1.042,0.763,1.253
1119.0,-6.492,-2.771,3.269,1.036,0.763,1.253
1123.0,-6.492,-2.771,3.269,1.036,0.763,1.253
1127.0,-6.699,-2.867,3.214,1.028,0.752,1.377
1130.0,-6.699,-2.867,3.214,1.028,0.752,1.377
1134.0,-6.699,-3.032,3.041,1.028,0.752,1.377
1138.0,-7.205,-3.032,3.041,1.016,0.742,1.482
1142.0,-7.205,-3.032,3.041,1.016,0.742,1.482
1146.0,-7.712,-2.994,2.728,0.993,0.742,1.565
1150.0,-7.712,-2.994,2.728,0.993,0.742,1.565
1153.0,-7.712,-2.994,2.728,0.993,0.742,1.565
1157.0,-7.932,-2.776,2.493,0.959,0.742,1.641
1161.0,-7.932,-2.776,2.493,0.959,0.742,1.641
1165.0,-7.895,-2.85,2.614,0.917,0.725,1.71
1169.0,-7.895,-2.85,2.614,0.917,0.725,1.71
1172.0,-7.895,-2.85,2.614,0.917,0.725,1.71
1176.0,-7.67,-3.047,2.822,0.877,0.674,1.739
1180.0,-7.67,-3.047,2.822,0.877,0.674,1.739
1184.0,-7.314,-3.144,3.07,0.877,0.674,1.739
1188.0,-7.314,-3.144,3.07,0.857,0.594,1.734
1192.0,-7.314,-3.144,3.07,0.857,0.594,1.734
1195.0,-7.248,-3.321,3.309,0.851,0.503,1.717
1199.0,-7.248,-3.321,3.309,0.851,0.503,1.717
1203.0,-7.248,-3.321,3.309,0.851,0.503,1.717
1207.0,-7.673,-3.415,3.355,0.853,0.429,1.699
1211.0,-7.673,-3.415,3.355,0.853,0.429,1.699
1214.0,-8.244,-3.339,3.29,0.851,0.383,1.712
1218.0,-8.244,-3.339,3.29,0.851,0.383,1.712
1222.0,-8.244,-3.339,3.29,0.851,0.383,1.712
1226.0,-9.0,-3.317,3.24,0.828,0.352,1.781
1230.0,-9.0,-3.317,3.24,0.828,0.352,1.781
1234.0,-9.917,-3.291,3.107,0.828,0.339,1.892
1237.0,-9.917,-3.291,3.107,0.777,0.339,1.892
1241.0,-9.917,-3.291,3.107,0.777,0.339,1.892
1245.0,-10.708,-3.13,2.931,0.693,0.347,2.041
1249.0,-10.708,-3.13,2.931,0.693,0.347,2.041
1253.0,-11.244,-2.941,2.834,0.693,0.347,2.041
1257.0,-11.244,-2.941,2.834,0.564,0.376,2.231
1261.0,-11.244,-2.941,2.834,0.564,0.376,2.231
1265.0,-11.674,-2.793,2.835,0.383,0.423,2.442
1268.0,-11.674,-2.793,2.835,0.383,0.423,2.442
1272.0,-11.674,-2.793,2.879,0.383,0.423,2.442
1276.0,-12.127,-2.68,2.879,0.157,0.479,2.644
1280.0,-12.127,-2.68,2.879,0.157,0.479,2.644
1284.0,-12.658,-2.587,2.893,-0.106,0.522,2.803
1288.0,-12.658,-2.587,2.893,-0.106,0.522,2.803
1292.0,-12.658,-2.587,2.861,-0.106,0.522,2.803
1296.0,-13.332,-2.508,2.861,-0.399,0.524,2.899
1300.0,-13.332,-2.508,2.861,-0.399,0.524,2.899
1304.0,-14.043,-2.401,2.784,-0.718,0.477,2.921
1308.0,-14.043,-2.401,2.784,-0.718,0.477,2.921
1312.0,-14.825,-2.296,2.707,-0.718,0.477,2.921
1316.0,-14.825,-2.296,2.707,-1.059,0.387,2.874
1320.0,-14.825,-2.296,2.707,-1.059,0.387,2.874
1324.0,-15.578,-2.219,2.569,-1.409,0.265,2.766
1328.0,-15.578,-2.219,2.569,-1.409,0.265,2.766
1332.0,-16.104,-2.128,2.358,-1.409,0.265,2.766
1336.0,-16.104,-2.128,2.358,-1.759,0.114,2.594
1340.0,-16.104,-2.128,2.358,-1.759,0.114,2.594
1344.0,-16.328,-2.061,2.102,-2.103,-0.068,2.362
1348.0,-16.328,-2.061,2.102,-2.103,-0.068,2.362
1352.0,-16.195,-2.112,1.705,-2.432,-0.27,2.06
1356.0,-16.195,-2.112,1.705,-2.432,-0.27,2.06
1360.0,-16.195,-2.112,1.705,-2.432,-0.27,2.06
1364.0,-15.721,-2.237,1.265,-2.735,-0.468,1.665
1368.0,-15.721,-2.237,1.265,-2.735,-0.468,1.665
1373.0,-14.977,-2.366,0.782,-3.001,-0.645,1.15
1377.0,-14.977,-2.366,0.782,-3.001,-0.645,1.15
1381.0,-14.977,-2.366,0.782,-3.001,-0.645,1.15
1385.0,-14.131,-2.39,0.482,-3.222,-0.791,0.506
1389.0,-14.131,-2.39,0.482,-3.222,-0.791,0.506
1393.0,-13.319,-2.101,0.586,-3.381,-0.909,-0.242
1397.0,-13.319,-2.101,0.586,-3.381,-0.909,-0.242
1401.0,-12.874,-1.549,0.899,-3.381,-0.909,-0.999
1405.0,-12.874,-1.549,0.899,-3.468,-1.021,-0.999
1410.0,-12.874,-1.549,0.899,-3.468,-1.021,-0.999
1414.0,-12.622,-1.034,1.033,-3.481,-1.132,-1.651
1418.0,-12.622,-1.034,1.033,-3.481,-1.132,-1.651
1422.0,-12.182,-0.769,1.012,-3.418,-1.219,-2.148
1426.0,-12.182,-0.769,1.012,-3.418,-1.219,-2.148
1430.0,-12.182,-0.8,0.955,-3.418,-1.219,-2.148
1435.0,-11.471,-0.8,0.955,-3.281,-1.264,-2.522
1439.0,-11.471,-0.8,0.955,-3.281,-1.264,-2.522
1443.0,-10.719,-1.065,0.867,-3.088,-1.257,-2.82
1447.0,-10.719,-1.065,0.867,-3.088,-1.257,-2.82
1451.0,-10.151,-1.39,0.77,-2.862,-1.205,-3.079
1455.0,-10.151,-1.39,0.77,-2.862,-1.205,-3.079
1460.0,-10.151,-1.39,0.77,-2.862,-1.205,-3.079
1464.0,-9.9,-1.717,0.639,-2.623,-1.12,-3.305
1468.0,-9.9,-1.717,0.639,-2.623,-1.12,-3.305
1472.0,-9.932,-2.072,0.532,-2.383,-1.012,-3.5
1476.0,-9.932,-2.072,0.532,-2.383,-1.012,-3.5
1480.0,-10.2,-2.408,0.47,-2.383,-1.012,-3.5
1484.0,-10.2,-2.408,0.47,-2.145,-0.897,-3.662
1488.0,-10.2,-2.408,0.47,-2.145,-0.897,-3.662
1493.0,-10.567,-2.834,0.425,-1.914,-0.784,-3.789
1497.0,-10.567,-2.834,0.425,-1.914,-0.784,-3.789
1501.0,-10.956,-3.345,0.445,-1.692,-0.684,-3.886
1505.0,-10.956,-3.345,0.445,-1.692,-0.684,-3.886
1509.0,-10.956,-3.345,0.449,-1.692,-0.684,-3.886
1513.0,-11.218,-3.793,0.449,-1.471,-0.594,-3.946
1518.0,-11.218,-3.793,0.449,-1.471,-0.594,-3.946
1522.0,-11.262,-4.172,0.556,-1.242,-0.511,-3.955
1526.0,-11.262,-4.172,0.556,-1.242,-0.511,-3.955
1530.0,-11.137,-4.446,0.787,-0.995,-0.432,-3.91
1534.0,-11.137,-4.446,0.787,-0.995,-0.432,-3.91
1538.0,-11.137,-4.446,0.787,-0.995,-0.432,-3.91
1543.0,-10.952,-4.597,1.102,-0.722,-0.362,-3.822
1547.0,-10.952,-4.597,1.102,-0.722,-0.362,-3.822
1551.0,-10.766,-4.574,1.402,-0.422,-0.3,-3.691
1555.0,-10.766,-4.574,1.402,-0.422,-0.3,-3.691
1559.0,-10.592,-4.39,1.673,-0.422,-0.25,-3.519
1563.0,-10.592,-4.39,1.673,-0.102,-0.25,-3.519
1568.0,-10.592,-4.39,1.673,-0.102,-0.25,-3.519
1572.0,-10.397,-4.068,1.886,0.223,-0.22,-3.307
1576.0,-10.397,-4.068,1.886,0.223,-0.22,-3.307
1580.0,-10.117,-3.652,2.016,0.535,-0.208,-3.061
1584.0,-10.117,-3.652,2.016,0.535,-0.208,-3.061
1588.0,-10.117,-3.652,2.016,0.535,-0.208,-3.061
1592.0,-9.711,-3.24,2.054,0.822,-0.206,-2.788
1596.0,-9.711,-3.24,2.054,0.822,-0.206,-2.788
1600.0,-9.243,-2.857,1.998,1.081,-0.204,-2.499
1604.0,-9.243,-2.857,1.998,1.081,-0.204,-2.499
1608.0,-9.243,-2.527,1.893,1.081,-0.204,-2.499
1612.0,-8.73,-2.527,1.893,1.309,-0.189,-2.205
1616.0,-8.73,-2.527,1.893,1.309,-0.189,-2.205
1620.0,-8.24,-2.256,1.85,1.504,-0.158,-1.914
1624.0,-8.24,-2.256,1.85,1.504,-0.158,-1.914
1628.0,-7.829,-2.019,1.802,1.504,-0.158,-1.914
1632.0,-7.829,-2.019,1.802,1.669,-0.116,-1.633
1636.0,-7.829,-2.019,1.802,1.669,-0.116,-1.633
1640.0,-7.492,-1.863,1.749,1.806,-0.061,-1.365
1644.0,-7.492,-1.863,1.749,1.806,-0.061,-1.365
1648.0,-7.207,-1.702,1.745,1.806,-0.061,-1.114
1652.0,-7.207,-1.702,1.745,1.915,0.007,-1.114
1656.0,-7.207,-1.702,1.745,1.915,0.007,-1.114
1660.0,-7.015,-1.567,1.795,1.99,0.083,-0.884
1664.0,-7.015,-1.567,1.795,1.99,0.083,-0.884
1668.0,-6.894,-1.412,1.886,1.99,0.083,-0.672
1672.0,-6.894,-1.412,1.886,2.032,0.167,-0.672
1675.0,-6.894,-1.412,1.886,2.032,0.167,-0.672
1679.0,-6.886,-1.233,2.039,2.05,0.26,-0.479
1683.0,-6.886,-1.233,2.039,2.05,0.26,-0.479
1687.0,-6.969,-1.056,2.26,2.05,0.26,-0.479
1691.0,-6.969,-1.056,2.26,2.047,0.359,-0.294
1695.0,-6.969,-1.056,2.26,2.047,0.359,-0.294
1699.0,-7.114,-0.854,2.498,2.03,0.456,-0.119
1703.0,-7.114,-0.854,2.498,2.03,0.456,-0.119
1707.0,-7.114,-0.854,2.727,2.03,0.456,-0.119
1711.0,-7.287,-0.643,2.727,2.002,0.549,0.055
1714.0,-7.287,-0.643,2.727,2.002,0.549,0.055
1718.0,-7.436,-0.417,2.926,1.966,0.631,0.223
1722.0,-7.436,-0.417,2.926,1.966,0.631,0.223
1726.0,-7.436,-0.417,2.926,1.966,0.631,0.223
1730.0,-7.6,-0.214,3.065,1.916,0.711,0.386
1734.0,-7.6,-0.214,3.065,1.916,0.711,0.386
1737.0,-7.72,0.084,3.242,1.846,0.806,0.534
1741.0,-7.72,0.084,3.242,1.846,0.806,0.534
1745.0,-7.72,0.084,3.242,1.846,0.806,0.534
1749.0,-7.922,0.475,3.487,1.741,0.927,0.662
1752.0,-7.922,0.475,3.487,1.741,0.927,0.662
1756.0,-7.922,0.475,3.766,1.741,0.927,0.662
1760.0,-8.279,0.857,3.766,1.585,1.055,0.779
1764.0,-8.279,0.857,3.766,1.585,1.055,0.779
1767.0,-8.746,1.214,4.019,1.37,1.163,0.891
1771.0,-8.746,1.214,4.019,1.37,1.163,0.891
1775.0,-8.746,1.214,4.019,1.37,1.163,0.891
1778.0,-9.206,1.481,4.271,1.1,1.228,0.995
1782.0,-9.206,1.481,4.271,1.1,1.228,0.995
1786.0,-9.556,1.652,4.464,1.1,1.228,0.995
1790.0,-9.556,1.652,4.464,0.791,1.251,1.083
1793.0,-9.556,1.652,4.464,0.791,1.251,1.083
1797.0,-9.747,1.786,4.612,0.456,1.238,1.152
1801.0,-9.747,1.786,4.612,0.456,1.238,1.152
1805.0,-9.747,1.786,4.612,0.456,1.238,1.152
1808.0,-9.925,1.886,4.683,0.097,1.206,1.202
1812.0,-9.925,1.886,4.683,0.097,1.206,1.202
1816.0,-10.075,1.9,4.679,0.097,1.206,1.242
1820.0,-10.075,1.9,4.679,-0.279,1.153,1.242
1823.0,-10.075,1.9,4.679,-0.279,1.153,1.242
1827.0,-10.281,1.839,4.599,-0.664,1.08,1.28
1831.0,-10.281,1.839,4.599,-0.664,1.08,1.28
1835.0,-10.281,1.629,4.427,-0.664,1.08,1.28
1839.0,-10.549,1.629,4.427,-1.035,0.99,1.322
1843.0,-10.549,1.629,4.427,-1.035,0.99,1.322
1847.0,-10.816,1.303,4.214,-1.369,0.883,1.37
1851.0,-10.816,1.303,4.214,-1.369,0.883,1.37
1855.0,-10.816,1.303,4.016,-1.369,0.883,1.37
1859.0,-10.968,0.94,4.016,-1.644,0.768,1.424
1863.0,-10.968,0.94,4.016,-1.644,0.768,1.424
1866.0,-11.049,0.493,3.803,-1.855,0.651,1.482
1870.0,-11.049,0.493,3.803,-1.855,0.651,1.482
1874.0,-11.049,0.493,3.803,-1.855,0.651,1.482
1878.0,-11.112,0.013,3.592,-1.994,0.533,1.54
1882.0,-11.112,0.013,3.592,-1.994,0.533,1.54
1886.0,-11.098,-0.461,3.381,-2.059,0.417,1.593
1890.0,-11.098,-0.461,3.381,-2.059,0.417,1.593
1894.0,-11.098,-0.461,3.381,-2.059,0.417,1.593
1898.0,-11.028,-0.913,3.187,-2.059,0.311,1.637
1902.0,-11.028,-0.913,3.187,-2.059,0.311,1.637
1906.0,-11.043,-1.386,3.02,-2.001,0.219,1.67
1910.0,-11.043,-1.386,3.02,-2.001,0.219,1.67
1914.0,-11.043,-1.386,2.941,-2.001,0.219,1.67
1918.0,-11.079,-1.798,2.941,-1.889,0.141,1.691
1922.0,-11.079,-1.798,2.941,-1.889,0.141,1.691
1926.0,-10.996,-2.103,2.892,-1.742,0.069,1.697
1930.0,-10.996,-2.103,2.892,-1.742,0.069,1.697
1934.0,-10.996,-2.329,2.825,-1.742,0.069,1.697
1938.0,-10.743,-2.329,2.825,-1.573,0.01,1.693
1942.0,-10.743,-2.329,2.825,-1.573,0.01,1.693
1946.0,-10.482,-2.472,2.771,-1.394,-0.034,1.682
1950.0,-10.482,-2.472,2.771,-1.394,-0.034,1.682
1954.0,-10.399,-2.572,2.701,-1.394,-0.034,1.662
1958.0,-10.399,-2.572,2.701,-1.211,-0.063,1.662
1962.0,-10.399,-2.572,2.701,-1.211,-0.063,1.662
1966.0,-10.372,-2.575,2.566,-1.034,-0.075,1.634
1970.0,-10.372,-2.575,2.566,-1.034,-0.075,1.634
1974.0,-10.395,-2.505,2.554,-0.876,-0.066,1.603
1979.0,-10.395,-2.505,2.554,-0.876,-0.066,1.603
1983.0,-10.395,-2.505,2.554,-0.876,-0.066,1.603
1987.0,-10.449,-2.398,2.54,-0.747,-0.05,1.576
1991.0,-10.449,-2.398,2.54,-0.747,-0.05,1.576
1995.0,-10.46,-2.277,2.514,-0.647,-0.037,1.554
1999.0,-10.46,-2.277,2.514,-0.647,-0.037,1.554
2003.0,-10.46,-2.154,2.454,-0.647,-0.037,1.554
2007.0,-10.518,-2.154,2.454,-0.579,-0.024,1.533
2011.0,-10.518,-2.154,2.454,-0.579,-0.024,1.533
2015.0,-10.588,-2.041,2.387,-0.54,-0.01,1.508
2019.0,-10.588,-2.041,2.387,-0.54,-0.01,1.508
2023.0,-10.597,-1.935,2.295,-0.54,0.006,1.482
2027.0,-10.597,-1.935,2.295,-0.524,0.006,1.482
2031.0,-10.597,-1.935,2.295,-0.524,0.006,1.482
2035.0,-10.538,-1.838,2.178,-0.526,0.024,1.455
2039.0,-10.538,-1.838,2.178,-0.526,0.024,1.455
2043.0,-10.491,-1.76,2.062,-0.546,0.047,1.431
2047.0,-10.491,-1.76,2.062,-0.546,0.047,1.431
2051.0,-10.491,-1.76,2.062,-0.546,0.047,1.431
2055.0,-10.436,-1.678,1.943,-0.575,0.077,1.41
2059.0,-10.436,-1.678,1.943,-0.575,0.077,1.41
2063.0,-10.281,-1.638,1.836,-0.613,0.105,1.393
2067.0,-10.281,-1.638,1.836,-0.613,0.105,1.393
2071.0,-10.281,-1.638,1.836,-0.613,0.105,1.393
2075.0,-10.039,-1.618,1.713,-0.655,0.128,1.377
2079.0,-10.039,-1.618,1.713,-0.655,0.128,1.377
2083.0,-9.834,-1.612,1.59,-0.701,0.147,1.356
2087.0,-9.834,-1.612,1.59,-0.701,0.147,1.356
2091.0,-9.834,-1.612,1.59,-0.701,0.147,1.356
2095.0,-9.752,-1.625,1.46,-0.751,0.171,1.326
2099.0,-9.752,-1.625,1.46,-0.751,0.171,1.326
2103.0,-9.794,-1.644,1.369,-0.801,0.197,1.291
2107.0,-9.794,-1.644,1.369,-0.801,0.197,1.291
2111.0,-9.794,-1.644,1.369,-0.801,0.197,1.291
2115.0,-9.85,-1.662,1.315,-0.851,0.223,1.257
2118.0,-9.85,-1.662,1.315,-0.851,0.223,1.257
2122.0,-9.907,-1.693,1.311,-0.899,0.242,1.225
2126.0,-9.907,-1.693,1.311,-0.899,0.242,1.225
2130.0,-9.907,-1.693,1.311,-0.899,0.242,1.225
2134.0,-9.888,-1.725,1.342,-0.942,0.253,1.194
2138.0,-9.888,-1.725,1.342,-0.942,0.253,1.194
2142.0,-9.796,-1.766,1.365,-0.978,0.261,1.161
2146.0,-9.796,-1.766,1.365,-0.978,0.261,1.161
2150.0,-9.796,-1.766,1.365,-0.978,0.261,1.161
2154.0,-9.715,-1.778,1.366,-1.007,0.267,1.119
2158.0,-9.715,-1.778,1.366,-1.007,0.267,1.119
2161.0,-9.694,-1.755,1.39,-1.007,0.267,1.067
2165.0,-9.694,-1.755,1.39,-1.034,0.274,1.067
2169.0,-9.694,-1.755,1.39,-1.034,0.274,1.067
2173.0,-9.651,-1.732,1.378,-1.066,0.283,1.011
2177.0,-9.651,-1.732,1.378,-1.066,0.283,1.011
2181.0,-9.602,-1.717,1.362,-1.066,0.283,1.011
2185.0,-9.602,-1.717,1.362,-1.1,0.296,0.954
2189.0,-9.602,-1.717,1.362,-1.1,0.296,0.954
2193.0,-9.558,-1.681,1.37,-1.139,0.315,0.897
2197.0,-9.558,-1.681,1.37,-1.139,0.315,0.897
2200.0,-9.453,-1.667,1.396,-1.139,0.315,0.897
2204.0,-9.453,-1.667,1.396,-1.177,0.336,0.839
2208.0,-9.453,-1.667,1.396,-1.177,0.336,0.839
2212.0,-9.368,-1.666,1.468,-1.214,0.358,0.781
2216.0,-9.368,-1.666,1.468,-1.214,0.358,0.781
2220.0,-9.368,-1.666,1.542,-1.214,0.358,0.781
2224.0,-9.319,-1.664,1.542,-1.247,0.379,0.726
2228.0,-9.319,-1.664,1.542,-1.247,0.379,0.726
2232.0,-9.251,-1.683,1.615,-1.273,0.393,0.672
2236.0,-9.251,-1.683,1.615,-1.273,0.393,0.672
2240.0,-9.251,-1.683,1.615,-1.273,0.393,0.672
2243.0,-9.136,-1.742,1.646,-1.292,0.396,0.623
2247.0,-9.136,-1.742,1.646,-1.292,0.396,0.623
2251.0,-9.01,-1.783,1.638,-1.303,0.396,0.576
2255.0,-9.01,-1.783,1.638,-1.303,0.396,0.576
2259.0,-9.01,-1.783,1.638,-1.303,0.396,0.576
2263.0,-8.92,-1.819,1.607,-1.304,0.397,0.527
2267.0,-8.92,-1.819,1.607,-1.304,0.397,0.527
2271.0,-8.841,-1.868,1.585,-1.298,0.4,0.48
2275.0,-8.841,-1.868,1.585,-1.298,0.4,0.48
2279.0,-8.841,-1.868,1.585,-1.298,0.4,0.48
2283.0,-8.84,-1.875,1.518,-1.283,0.406,0.435
2286.0,-8.84,-1.875,1.518,-1.283,0.406,0.435
2290.0,-8.812,-1.923,1.641,-1.258,0.418,0.402
2294.0,-8.812,-1.923,1.641,-1.258,0.418,0.402
2298.0,-8.812,-1.923,1.641,-1.258,0.418,0.402
2302.0,-8.753,-2.026,1.763,-1.22,0.412,0.362
2306.0,-8.753,-2.026,1.763,-1.22,0.412,0.362
2310.0,-8.663,-2.056,1.834,-1.171,0.391,0.318
2314.0,-8.663,-2.056,1.834,-1.171,0.391,0.318
2318.0,-8.663,-2.056,1.834,-1.171,0.391,0.318
2322.0,-8.538,-2.021,1.825,-1.113,0.372,0.279
2325.0,-8.538,-2.021,1.825,-1.113,0.372,0.279
2329.0,-8.541,-1.952,1.838,-1.113,0.368,0.246
2333.0,-8.541,-1.952,1.838,-1.056,0.368,0.246
2337.0,-8.541,-1.952,1.838,-1.056,0.368,0.246
2341.0,-8.696,-1.867,1.862,-1.003,0.381,0.223
2345.0,-8.696,-1.867,1.862,-1.003,0.381,0.223
2349.0,-8.816,-1.793,1.906,-1.003,0.381,0.217
2353.0,-8.816,-1.793,1.906,-0.955,0.392,0.217
2357.0,-8.816,-1.793,1.906,-0.955,0.392,0.217
2361.0,-8.87,-1.755,1.947,-0.918,0.392,0.221
2365.0,-8.87,-1.755,1.947,-0.918,0.392,0.221
2368.0,-8.947,-1.755,1.975,-0.918,0.392,0.221
2372.0,-8.947,-1.755,1.975,-0.886,0.387,0.225
2376.0,-8.947,-1.755,1.975,-0.886,0.387,0.225
2380.0,-9.014,-1.758,1.929,-0.861,0.385,0.225
2384.0,-9.014,-1.758,1.929,-0.861,0.385,0.225
2388.0,-9.014,-1.744,1.887,-0.861,0.385,0.225
2392.0,-9.159,-1.744,1.887,-0.845,0.387,0.224
2396.0,-9.159,-1.744,1.887,-0.845,0.387,0.224
2400.0,-9.476,-1.717,1.827,-0.841,0.394,0.223
2404.0,-9.476,-1.717,1.827,-0.841,0.394,0.223
2408.0,-9.476,-1.717,1.921,-0.841,0.394,0.223
2411.0,-9.786,-1.627,1.921,-0.848,0.392,0.226
2415.0,-9.786,-1.627,1.921,-0.848,0.392,0.226
2419.0,-9.965,-1.395,2.127,-0.867,0.36,0.233
2423.0,-9.965,-1.395,2.127,-0.867,0.36,0.233
2427.0,-9.965,-1.395,2.127,-0.867,0.36,0.233
2431.0,-9.967,-1.211,2.203,-0.902,0.301,0.234
2435.0,-9.967,-1.211,2.203,-0.902,0.301,0.234
2439.0,-9.839,-1.074,2.185,-0.949,0.244,0.214
2443.0,-9.839,-1.074,2.185,-0.949,0.244,0.214
2447.0,-9.839,-1.074,2.185,-0.949,0.244,0.214
2450.0,-9.677,-0.845,2.213,-1.002,0.197,0.175
2454.0,-9.677,-0.845,2.213,-1.002,0.197,0.175
2458.0,-9.662,-0.491,2.297,-1.058,0.155,0.143
2462.0,-9.662,-0.491,2.297,-1.058,0.155,0.143
2466.0,-9.662,-0.491,2.297,-1.058,0.155,0.143
2470.0,-9.646,-0.194,2.411,-1.107,0.119,0.128
2474.0,-9.646,-0.194,2.411,-1.107,0.119,0.128
2478.0,-9.562,0.132,2.63,-1.153,0.079,0.122
2482.0,-9.562,0.132,2.63,-1.153,0.079,0.122
2485.0,-9.562,0.132,2.63,-1.153,0.079,0.122
2489.0,-9.516,0.489,2.824,-1.21,0.023,0.116
2493.0,-9.516,0.489,2.824,-1.21,0.023,0.116
2497.0,-9.421,0.662,2.812,-1.21,0.023,0.105
2501.0,-9.421,0.662,2.812,-1.289,-0.034,0.105
2505.0,-9.421,0.662,2.812,-1.289,-0.034,0.105
2509.0,-9.207,0.629,2.65,-1.419,-0.072,0.067
2512.0,-9.207,0.629,2.65,-1.419,-0.072,0.067
2516.0,-9.207,0.596,2.588,-1.419,-0.072,0.067
2520.0,-9.173,0.596,2.588,-1.602,-0.094,0.005
2524.0,-9.173,0.596,2.588,-1.602,-0.094,0.005
2528.0,-9.435,0.545,2.551,-1.826,-0.104,-0.065
2532.0,-9.435,0.545,2.551,-1.826,-0.104,-0.065
2536.0,-9.435,0.312,2.515,-1.826,-0.104,-0.065
2540.0,-9.878,0.312,2.515,-2.062,-0.1,-0.125
2544.0,-9.878,0.312,2.515,-2.062,-0.1,-0.125
2548.0,-10.375,-0.061,2.45,-2.287,-0.078,-0.173
2552.0,-10.375,-0.061,2.45,-2.287,-0.078,-0.173
2556.0,-10.973,-0.328,2.538,-2.287,-0.045,-0.202
2561.0,-10.973,-0.328,2.538,-2.48,-0.045,-0.202
2565.0,-10.973,-0.328,2.538,-2.48,-0.045,-0.202
2569.0,-11.253,-0.706,2.59,-2.622,-0.032,-0.194
2573.0,-11.253,-0.706,2.59,-2.622,-0.032,-0.194
2577.0,-10.959,-1.254,2.49,-2.704,-0.041,-0.171
2581.0,-10.959,-1.254,2.49,-2.704,-0.041,-0.171
2586.0,-10.372,-1.808,2.189,-2.704,-0.041,-0.171
2590.0,-10.372,-1.808,2.189,-2.721,-0.048,-0.155
2594.0,-10.372,-1.808,2.189,-2.721,-0.048,-0.155
2598.0,-10.008,-2.161,1.92,-2.684,-0.037,-0.157
2602.0,-10.008,-2.161,1.92,-2.684,-0.037,-0.157
2606.0,-10.06,-2.28,1.742,-2.601,-0.003,-0.161
2611.0,-10.06,-2.28,1.742,-2.601,-0.003,-0.161
2615.0,-10.06,-2.28,1.742,-2.601,-0.003,-0.161
2619.0,-10.266,-2.39,1.58,-2.481,0.049,-0.147
2623.0,-10.266,-2.39,1.58,-2.481,0.049,-0.147
2627.0,-10.509,-2.441,1.6,-2.33,0.113,-0.112
2631.0,-10.509,-2.441,1.6,-2.33,0.113,-0.112
2635.0,-10.612,-2.478,1.731,-2.33,0.113,-0.05
2639.0,-10.612,-2.478,1.731,-2.137,0.163,-0.05
2643.0,-10.612,-2.478,1.731,-2.137,0.163,-0.05
2647.0,-10.36,-2.617,1.82,-1.899,0.194,0.024
2651.0,-10.36,-2.617,1.82,-1.899,0.194,0.024
2655.0,-9.974,-2.755,1.862,-1.624,0.223,0.085
2659.0,-9.974,-2.755,1.862,-1.624,0.223,0.085
2663.0,-9.974,-2.755,1.862,-1.624,0.223,0.085
2667.0,-9.735,-2.768,1.921,-1.32,0.257,0.128
2671.0,-9.735,-2.768,1.921,-1.32,0.257,0.128
2675.0,-9.802,-2.691,2.039,-1.01,0.299,0.158
2679.0,-9.802,-2.691,2.039,-1.01,0.299,0.158
2683.0,-9.802,-2.691,2.039,-1.01,0.299,0.158
2687.0,-10.192,-2.466,2.238,-0.723,0.347,0.181
2691.0,-10.192,-2.466,2.238,-0.723,0.347,0.181
2695.0,-10.872,-2.1,2.557,-0.723,0.388,0.209
2699.0,-10.872,-2.1,2.557,-0.468,0.388,0.209
2703.0,-10.872,-2.1,2.557,-0.468,0.388,0.209
2707.0,-11.431,-1.775,2.855,-0.245,0.405,0.248
2711.0,-11.431,-1.775,2.855,-0.245,0.405,0.248
2715.0,-11.638,-1.527,3.071,-0.053,0.401,0.281
2719.0,-11.638,-1.527,3.071,-0.053,0.401,0.281
2723.0,-11.638,-1.527,3.071,-0.053,0.401,0.281
2727.0,-11.678,-1.175,3.302,0.111,0.384,0.299
2731.0,-11.678,-1.175,3.302,0.111,0.384,0.299
2734.0,-11.443,-0.924,3.403,0.252,0.355,0.308
2738.0,-11.443,-0.924,3.403,0.252,0.355,0.308
2742.0,-11.443,-0.924,3.403,0.252,0.355,0.308
2746.0,-10.908,-0.881,3.294,0.369,0.327,0.298
2750.0,-10.908,-0.881,3.294,0.369,0.327,0.298
2754.0,-10.371,-0.929,3.117,0.465,0.313,0.258
2758.0,-10.371,-0.929,3.117,0.465,0.313,0.258
2762.0,-10.371,-0.929,3.117,0.465,0.313,0.258
2766.0,-9.942,-0.957,3.029,0.556,0.303,0.199
2769.0,-9.942,-0.957,3.029,0.556,0.303,0.199
2773.0,-9.522,-1.077,2.856,0.556,0.303,0.134
2777.0,-9.522,-1.077,2.856,0.652,0.284,0.134
2781.0,-9.522,-1.077,2.856,0.652,0.284,0.134
2785.0,-9.29,-1.189,2.583,0.764,0.266,0.07
2789.0,-9.29,-1.189,2.583,0.764,0.266,0.07
2792.0,-9.29,-1.189,2.583,0.764,0.266,0.07
2796.0,-9.37,-1.231,2.404,0.887,0.26,0.013
2800.0,-9.37,-1.231,2.404,0.887,0.26,0.013
2804.0,-9.736,-1.324,2.34,1.025,0.254,-0.02
2808.0,-9.736,-1.324,2.34,1.025,0.254,-0.02
2812.0,-9.736,-1.324,2.34,1.025,0.254,-0.02
2816.0,-10.139,-1.482,2.297,1.191,0.231,-0.028
2820.0,-10.139,-1.482,2.297,1.191,0.231,-0.028
2824.0,-10.42,-1.69,2.291,1.392,0.191,-0.024
2828.0,-10.42,-1.69,2.291,1.392,0.191,-0.024
2832.0,-10.42,-1.69,2.291,1.392,0.191,-0.024
2836.0,-10.409,-1.889,2.272,1.617,0.124,-0.015
2840.0,-10.409,-1.889,2.272,1.617,0.124,-0.015
2844.0,-10.14,-1.99,2.141,1.843,0.025,-0.015
2848.0,-10.14,-1.99,2.141,1.843,0.025,-0.015
2852.0,-10.14,-1.99,2.141,1.843,0.025,-0.015
2856.0,-9.866,-1.892,1.942,2.045,-0.083,-0.036
2860.0,-9.866,-1.892,1.942,2.045,-0.083,-0.036
2864.0,-9.886,-1.679,1.714,2.21,-0.177,-0.07
2867.0,-9.886,-1.679,1.714,2.21,-0.177,-0.07
2871.0,-9.886,-1.679,1.536,2.21,-0.177,-0.07
2875.0,-10.242,-1.338,1.536,2.346,-0.243,-0.104
2880.0,-10.242,-1.338,1.536,2.346,-0.243,-0.104
2884.0,-10.607,-0.977,1.479,2.481,-0.297,-0.111
2888.0,-10.607,-0.977,1.479,2.481,-0.297,-0.111
2892.0,-10.658,-0.751,1.345,2.481,-0.297,-0.092
2896.0,-10.658,-0.751,1.345,2.615,-0.35,-0.092
2900.0,-10.658,-0.751,1.345,2.615,-0.35,-0.092
2904.0,-10.618,-0.488,1.232,2.717,-0.407,-0.075
2908.0,-10.618,-0.488,1.232,2.717,-0.407,-0.075
2912.0,-10.776,-0.175,1.172,2.779,-0.453,-0.067
2916.0,-10.776,-0.175,1.172,2.779,-0.453,-0.067
2920.0,-10.776,-0.175,1.172,2.779,-0.453,-0.067
2924.0,-10.996,0.173,1.144,2.803,-0.491,-0.052
2928.0,-10.996,0.173,1.144,2.803,-0.491,-0.052
2932.0,-11.117,0.422,1.074,2.782,-0.526,-0.029
2936.0,-11.117,0.422,1.074,2.782,-0.526,-0.029
2940.0,-11.117,0.422,1.074,2.782,-0.526,-0.029
2944.0,-11.048,0.666,1.053,2.718,-0.564,-0.007
2948.0,-11.048,0.666,1.053,2.718,-0.564,-0.007
2952.0,-10.78,0.935,1.062,2.607,-0.614,0.006
2956.0,-10.78,0.935,1.062,2.607,-0.614,0.006
2960.0,-10.78,0.935,1.062,2.607,-0.614,0.006
2964.0,-10.418,1.138,0.988,2.437,-0.671,-0.004
2968.0,-10.418,1.138,0.988,2.437,-0.671,-0.004
2972.0,-10.159,1.386,0.939,2.209,-0.713,-0.046
2976.0,-10.159,1.386,0.939,2.209,-0.713,-0.046
2980.0,-10.159,1.386,0.89,2.209,-0.713,-0.046
2984.0,-9.927,1.639,0.89,1.935,-0.741,-0.105
2988.0,-9.927,1.639,0.89,1.935,-0.741,-0.105
2992.0,-9.535,1.781,0.841,1.636,-0.764,-0.162
2996.0,-9.535,1.781,0.841,1.636,-0.764,-0.162
3000.0,-9.535,1.781,0.841,1.636,-0.764,-0.162
