deltaTime,Acc_X,Acc_Y,Acc_Z,Gyro_X,Gyro_Y,Gyro_Z
0.0,-8.964,-3.37,1.675,0.223,0.239,0.147
3.0,-8.767,-3.072,1.559,0.206,0.23,0.074
6.0,-8.767,-3.072,1.559,0.206,0.23,0.074
9.0,-8.767,-3.072,1.559,0.206,0.23,0.074
12.0,-8.671,-2.926,1.613,0.158,0.23,0.016
15.0,-8.671,-2.926,1.613,0.158,0.23,0.016
18.0,-8.671,-2.926,1.613,0.158,0.23,0.016
21.0,-8.671,-2.926,1.682,0.158,0.23,0.016
24.0,-8.595,-2.886,1.682,0.104,0.227,-0.022
27.0,-8.595,-2.886,1.682,0.104,0.227,-0.022
30.0,-8.595,-2.886,1.682,0.104,0.227,-0.022
33.0,-8.618,-2.819,1.792,0.046,0.225,-0.05
36.0,-8.618,-2.819,1.792,0.046,0.225,-0.05
39.0,-8.618,-2.819,1.792,0.046,0.225,-0.05
42.0,-8.611,-2.828,1.823,-0.031,0.228,-0.068
46.0,-8.611,-2.828,1.823,-0.031,0.228,-0.068
50.0,-8.611,-2.828,1.899,-0.031,0.228,-0.068
54.0,-8.457,-2.994,1.899,-0.125,0.242,-0.074
58.0,-8.457,-2.994,1.899,-0.125,0.242,-0.074
62.0,-8.471,-3.118,1.974,-0.205,0.255,-0.069
65.0,-8.471,-3.118,1.974,-0.205,0.255,-0.069
69.0,-8.471,-3.118,1.974,-0.205,0.255,-0.069
73.0,-8.703,-3.116,2.032,-0.283,0.262,-0.067
77.0,-8.703,-3.116,2.032,-0.283,0.262,-0.067
81.0,-8.972,-3.24,2.19,-0.369,0.257,-0.068
84.0,-8.972,-3.24,2.19,-0.369,0.257,-0.068
88.0,-8.972,-3.24,2.19,-0.369,0.257,-0.068
92.0,-8.548,-3.48,2.331,-0.424,0.215,-0.069
96.0,-8.548,-3.48,2.331,-0.424,0.215,-0.069
100.0,-8.548,-3.589,2.35,-0.424,0.215,-0.069
104.0,-7.781,-3.589,2.35,-0.419,0.162,-0.083
108.0,-7.781,-3.589,2.35,-0.419,0.162,-0.083
111.0,-7.283,-3.464,2.132,-0.376,0.136,-0.114
115.0,-7.283,-3.464,2.132,-0.376,0.136,-0.114
119.0,-7.283,-3.464,1.917,-0.376,0.136,-0.114
123.0,-7.272,-3.228,1.917,-0.34,0.158,-0.148
127.0,-7.272,-3.228,1.917,-0.34,0.158,-0.148
131.0,-7.548,-2.974,1.909,-0.334,0.216,-0.164
135.0,-7.548,-2.974,1.909,-0.334,0.216,-0.164
139.0,-7.548,-2.974,1.909,-0.334,0.216,-0.164
143.0,-7.893,-2.711,2.072,-0.355,0.286,-0.164
147.0,-7.893,-2.711,2.072,-0.355,0.286,-0.164
151.0,-8.285,-2.573,2.587,-0.402,0.351,-0.155
154.0,-8.285,-2.573,2.587,-0.402,0.351,-0.155
158.0,-8.285,-2.573,2.587,-0.402,0.351,-0.155
162.0,-8.498,-2.681,3.151,-0.443,0.373,-0.142
166.0,-8.498,-2.681,3.151,-0.443,0.373,-0.142
170.0,-8.468,-2.728,3.464,-0.445,0.34,-0.132
174.0,-8.468,-2.728,3.464,-0.445,0.34,-0.132
178.0,-8.468,-2.728,3.464,-0.445,0.34,-0.132
182.0,-8.416,-2.865,3.632,-0.422,0.274,-0.131
186.0,-8.416,-2.865,3.632,-0.422,0.274,-0.131
190.0,-8.377,-2.99,3.527,-0.358,0.193,-0.125
193.0,-8.377,-2.99,3.527,-0.358,0.193,-0.125
197.0,-8.377,-2.99,3.527,-0.358,0.193,-0.125
201.0,-8.186,-2.831,3.182,-0.276,0.116,-0.123
205.0,-8.186,-2.831,3.182,-0.276,0.116,-0.123
209.0,-7.916,-2.494,2.915,-0.236,0.076,-0.137
213.0,-7.916,-2.494,2.915,-0.236,0.076,-0.137
217.0,-7.916,-2.494,2.915,-0.236,0.076,-0.137
221.0,-7.691,-2.354,2.64,-0.25,0.038,-0.14
225.0,-7.691,-2.354,2.64,-0.25,0.038,-0.14
229.0,-7.306,-2.067,2.496,-0.25,-0.019,-0.131
233.0,-7.306,-2.067,2.496,-0.287,-0.019,-0.131
237.0,-7.306,-2.067,2.496,-0.287,-0.019,-0.131
241.0,-7.022,-1.714,2.383,-0.374,-0.06,-0.169
245.0,-7.022,-1.714,2.383,-0.374,-0.06,-0.169
249.0,-6.808,-1.638,2.233,-0.501,-0.088,-0.22
253.0,-6.808,-1.638,2.233,-0.501,-0.088,-0.22
257.0,-6.808,-1.638,2.233,-0.501,-0.088,-0.22
261.0,-6.711,-1.636,2.021,-0.624,-0.101,-0.24
265.0,-6.711,-1.636,2.021,-0.624,-0.101,-0.24
269.0,-7.021,-1.638,1.899,-0.726,-0.096,-0.235
273.0,-7.021,-1.638,1.899,-0.726,-0.096,-0.235
277.0,-7.021,-1.638,1.899,-0.726,-0.096,-0.235
281.0,-7.371,-1.726,1.843,-0.805,-0.078,-0.204
285.0,-7.371,-1.726,1.843,-0.805,-0.078,-0.204
289.0,-7.854,-1.802,1.872,-0.869,-0.058,-0.15
293.0,-7.854,-1.802,1.872,-0.869,-0.058,-0.15
297.0,-7.854,-1.802,1.872,-0.869,-0.058,-0.15
301.0,-8.237,-1.981,1.907,-0.926,-0.051,-0.071
304.0,-8.237,-1.981,1.907,-0.926,-0.051,-0.071
308.0,-8.582,-2.225,1.931,-0.966,-0.057,0.028
312.0,-8.582,-2.225,1.931,-0.966,-0.057,0.028
316.0,-8.582,-2.225,1.931,-0.966,-0.057,0.028
320.0,-8.984,-2.563,1.872,-0.992,-0.059,0.142
324.0,-8.984,-2.563,1.872,-0.992,-0.059,0.142
328.0,-9.497,-2.885,1.792,-1.009,-0.05,0.267
332.0,-9.497,-2.885,1.792,-1.009,-0.05,0.267
336.0,-9.497,-2.885,1.792,-1.009,-0.05,0.267
340.0,-10.071,-3.173,1.72,-1.015,-0.032,0.397
344.0,-10.071,-3.173,1.72,-1.015,-0.032,0.397
348.0,-10.734,-3.472,1.709,-1.015,-0.005,0.535
352.0,-10.734,-3.472,1.709,-1.015,-0.005,0.535
356.0,-10.734,-3.472,1.709,-1.015,-0.005,0.535
360.0,-11.465,-3.794,1.736,-1.006,0.023,0.676
364.0,-11.465,-3.794,1.736,-1.006,0.023,0.676
368.0,-12.33,-4.108,1.7,-0.985,0.048,0.814
371.0,-12.33,-4.108,1.7,-0.985,0.048,0.814
375.0,-12.33,-4.108,1.7,-0.985,0.048,0.814
379.0,-13.022,-4.341,1.59,-0.949,0.068,0.945
383.0,-13.022,-4.341,1.59,-0.949,0.068,0.945
387.0,-13.27,-4.448,1.365,-0.901,0.083,1.061
391.0,-13.27,-4.448,1.365,-0.901,0.083,1.061
395.0,-13.27,-4.448,1.365,-0.901,0.083,1.061
399.0,-13.476,-4.55,1.324,-0.841,0.117,1.159
403.0,-13.476,-4.55,1.324,-0.841,0.117,1.159
407.0,-13.808,-4.583,1.309,-0.757,0.165,1.232
410.0,-13.808,-4.583,1.309,-0.757,0.165,1.232
414.0,-13.808,-4.583,1.309,-0.757,0.165,1.232
418.0,-14.176,-4.527,1.259,-0.644,0.213,1.276
422.0,-14.176,-4.527,1.259,-0.644,0.213,1.276
426.0,-14.084,-4.381,1.172,-0.644,0.234,1.293
430.0,-14.084,-4.381,1.172,-0.509,0.234,1.293
434.0,-14.084,-4.381,1.172,-0.509,0.234,1.293
438.0,-13.694,-4.178,0.973,-0.361,0.226,1.275
442.0,-13.694,-4.178,0.973,-0.361,0.226,1.275
446.0,-13.205,-3.893,0.598,-0.361,0.226,1.227
450.0,-13.205,-3.893,0.598,-0.206,0.216,1.227
453.0,-13.205,-3.893,0.598,-0.206,0.216,1.227
457.0,-12.991,-3.6,0.23,-0.055,0.234,1.163
461.0,-12.991,-3.6,0.23,-0.055,0.234,1.163
465.0,-13.132,-3.336,0.002,-0.055,0.234,1.163
469.0,-13.132,-3.336,0.002,0.083,0.287,1.103
473.0,-13.132,-3.336,0.002,0.083,0.287,1.103
477.0,-13.616,-3.155,0.001,0.205,0.349,1.059
481.0,-13.616,-3.155,0.001,0.205,0.349,1.059
484.0,-13.616,-3.155,0.001,0.205,0.349,1.059
488.0,-13.85,-3.082,0.021,0.313,0.381,1.035
492.0,-13.85,-3.082,0.021,0.313,0.381,1.035
496.0,-13.911,-3.071,-0.056,0.402,0.382,1.019
500.0,-13.911,-3.071,-0.056,0.402,0.382,1.019
504.0,-13.911,-3.071,-0.056,0.402,0.382,1.019
508.0,-14.204,-3.104,-0.152,0.469,0.384,1.006
511.0,-14.204,-3.104,-0.152,0.469,0.384,1.006
515.0,-14.536,-3.103,-0.163,0.522,0.389,1.0
519.0,-14.536,-3.103,-0.163,0.522,0.389,1.0
523.0,-14.536,-3.103,-0.163,0.522,0.389,1.0
527.0,-14.593,-3.038,-0.224,0.556,0.376,1.006
531.0,-14.593,-3.038,-0.224,0.556,0.376,1.006
535.0,-14.16,-2.915,-0.351,0.564,0.341,1.025
539.0,-14.16,-2.915,-0.351,0.564,0.341,1.025
543.0,-14.16,-2.915,-0.351,0.564,0.341,1.025
547.0,-13.708,-2.783,-0.444,0.547,0.3,1.048
551.0,-13.708,-2.783,-0.444,0.547,0.3,1.048
554.0,-13.133,-2.6,-0.534,0.547,0.259,1.069
558.0,-13.133,-2.6,-0.534,0.51,0.259,1.069
562.0,-13.133,-2.6,-0.534,0.51,0.259,1.069
566.0,-12.159,-2.413,-0.602,0.456,0.209,1.09
570.0,-12.159,-2.413,-0.602,0.456,0.209,1.09
574.0,-10.948,-2.279,-0.767,0.456,0.209,1.108
578.0,-10.948,-2.279,-0.767,0.387,0.153,1.108
582.0,-10.948,-2.279,-0.767,0.387,0.153,1.108
586.0,-10.099,-2.192,-1.014,0.311,0.119,1.109
590.0,-10.099,-2.192,-1.014,0.311,0.119,1.109
593.0,-9.909,-2.081,-1.363,0.311,0.119,1.109
597.0,-9.909,-2.081,-1.363,0.233,0.126,1.086
601.0,-9.909,-2.081,-1.363,0.233,0.126,1.086
605.0,-10.309,-1.963,-1.699,0.147,0.172,1.051
609.0,-10.309,-1.963,-1.699,0.147,0.172,1.051
613.0,-10.309,-1.963,-1.937,0.147,0.172,1.051
617.0,-10.716,-1.903,-1.937,0.05,0.244,1.018
621.0,-10.716,-1.903,-1.937,0.05,0.244,1.018
624.0,-11.043,-1.88,-1.914,-0.058,0.326,0.988
628.0,-11.043,-1.88,-1.914,-0.058,0.326,0.988
632.0,-11.043,-1.88,-1.914,-0.058,0.326,0.988
636.0,-11.342,-1.825,-1.67,-0.165,0.403,0.957
640.0,-11.342,-1.825,-1.67,-0.165,0.403,0.957
644.0,-11.329,-1.824,-1.315,-0.262,0.458,0.922
648.0,-11.329,-1.824,-1.315,-0.262,0.458,0.922
652.0,-11.329,-1.824,-0.935,-0.262,0.458,0.922
656.0,-10.869,-1.839,-0.935,-0.344,0.472,0.877
660.0,-10.869,-1.839,-0.935,-0.344,0.472,0.877
664.0,-10.158,-1.847,-0.717,-0.407,0.443,0.812
668.0,-10.158,-1.847,-0.717,-0.407,0.443,0.812
672.0,-9.412,-1.828,-0.698,-0.407,0.443,0.812
676.0,-9.412,-1.828,-0.698,-0.45,0.399,0.721
680.0,-9.412,-1.828,-0.698,-0.45,0.399,0.721
684.0,-8.676,-1.761,-0.788,-0.479,0.362,0.604
688.0,-8.676,-1.761,-0.788,-0.479,0.362,0.604
692.0,-8.676,-1.761,-0.946,-0.479,0.362,0.604
696.0,-7.983,-1.665,-0.946,-0.5,0.346,0.471
700.0,-7.983,-1.665,-0.946,-0.5,0.346,0.471
704.0,-7.463,-1.579,-1.128,-0.519,0.356,0.337
708.0,-7.463,-1.579,-1.128,-0.519,0.356,0.337
711.0,-7.463,-1.579,-1.128,-0.519,0.356,0.337
715.0,-7.155,-1.526,-1.25,-0.536,0.391,0.213
719.0,-7.155,-1.526,-1.25,-0.536,0.391,0.213
723.0,-7.199,-1.503,-1.269,-0.546,0.442,0.108
727.0,-7.199,-1.503,-1.269,-0.546,0.442,0.108
731.0,-7.199,-1.503,-1.269,-0.546,0.442,0.108
735.0,-7.542,-1.543,-1.251,-0.548,0.493,0.033
739.0,-7.542,-1.543,-1.251,-0.548,0.493,0.033
743.0,-8.033,-1.679,-1.126,-0.538,0.53,-0.015
747.0,-8.033,-1.679,-1.126,-0.538,0.53,-0.015
751.0,-8.033,-1.679,-1.126,-0.538,0.53,-0.015
755.0,-8.554,-1.814,-0.955,-0.51,0.535,-0.047
759.0,-8.554,-1.814,-0.955,-0.51,0.535,-0.047
763.0,-8.905,-1.992,-0.824,-0.463,0.508,-0.067
767.0,-8.905,-1.992,-0.824,-0.463,0.508,-0.067
771.0,-8.905,-1.992,-0.824,-0.463,0.508,-0.067
775.0,-9.037,-2.125,-0.638,-0.397,0.453,-0.084
779.0,-9.037,-2.125,-0.638,-0.397,0.453,-0.084
783.0,-9.081,-2.21,-0.537,-0.316,0.378,-0.099
787.0,-9.081,-2.21,-0.537,-0.316,0.378,-0.099
791.0,-9.081,-2.21,-0.49,-0.316,0.378,-0.099
795.0,-9.021,-2.266,-0.49,-0.224,0.295,-0.115
799.0,-9.021,-2.266,-0.49,-0.224,0.295,-0.115
803.0,-8.882,-2.255,-0.405,-0.122,0.203,-0.136
807.0,-8.882,-2.255,-0.405,-0.122,0.203,-0.136
811.0,-8.88,-2.16,-0.401,-0.122,0.203,-0.136
815.0,-8.88,-2.16,-0.401,-0.016,0.101,-0.163
819.0,-8.88,-2.16,-0.401,-0.016,0.101,-0.163
823.0,-9.02,-2.028,-0.516,0.086,-0.001,-0.192
827.0,-9.02,-2.028,-0.516,0.086,-0.001,-0.192
831.0,-9.084,-1.881,-0.636,0.086,-0.001,-0.219
835.0,-9.084,-1.881,-0.636,0.171,-0.098,-0.219
839.0,-9.084,-1.881,-0.636,0.171,-0.098,-0.219
843.0,-9.017,-1.727,-0.642,0.235,-0.192,-0.243
847.0,-9.017,-1.727,-0.642,0.235,-0.192,-0.243
850.0,-8.992,-1.578,-0.671,0.235,-0.282,-0.269
854.0,-8.992,-1.578,-0.671,0.278,-0.282,-0.269
858.0,-8.992,-1.578,-0.671,0.278,-0.282,-0.269
862.0,-8.999,-1.457,-0.684,0.301,-0.36,-0.301
866.0,-8.999,-1.457,-0.684,0.301,-0.36,-0.301
870.0,-8.916,-1.337,-0.533,0.303,-0.432,-0.338
874.0,-8.916,-1.337,-0.533,0.303,-0.432,-0.338
878.0,-8.916,-1.337,-0.533,0.303,-0.432,-0.338
882.0,-8.858,-1.205,-0.346,0.288,-0.511,-0.383
886.0,-8.858,-1.205,-0.346,0.288,-0.511,-0.383
890.0,-8.819,-1.062,-0.227,0.257,-0.592,-0.439
894.0,-8.819,-1.062,-0.227,0.257,-0.592,-0.439
898.0,-8.819,-1.062,-0.227,0.257,-0.592,-0.439
902.0,-8.725,-0.925,-0.108,0.205,-0.669,-0.505
906.0,-8.725,-0.925,-0.108,0.205,-0.669,-0.505
910.0,-8.549,-0.743,0.032,0.134,-0.743,-0.583
914.0,-8.549,-0.743,0.032,0.134,-0.743,-0.583
918.0,-8.549,-0.743,0.032,0.134,-0.743,-0.583
922.0,-8.26,-0.561,0.212,0.045,-0.819,-0.672
926.0,-8.26,-0.561,0.212,0.045,-0.819,-0.672
930.0,-7.917,-0.355,0.363,-0.057,-0.901,-0.772
934.0,-7.917,-0.355,0.363,-0.057,-0.901,-0.772
938.0,-7.917,-0.355,0.363,-0.057,-0.901,-0.772
942.0,-7.548,-0.17,0.404,-0.169,-0.982,-0.881
946.0,-7.548,-0.17,0.404,-0.169,-0.982,-0.881
950.0,-7.146,-0.014,0.374,-0.292,-1.057,-0.996
954.0,-7.146,-0.014,0.374,-0.292,-1.057,-0.996
958.0,-7.146,-0.014,0.374,-0.292,-1.057,-0.996
962.0,-6.723,0.131,0.323,-0.428,-1.121,-1.115
966.0,-6.723,0.131,0.323,-0.428,-1.121,-1.115
970.0,-6.324,0.22,0.277,-0.572,-1.17,-1.237
974.0,-6.324,0.22,0.277,-0.572,-1.17,-1.237
977.0,-6.324,0.22,0.277,-0.572,-1.17,-1.237
981.0,-5.95,0.272,0.308,-0.718,-1.203,-1.359
985.0,-5.95,0.272,0.308,-0.718,-1.203,-1.359
989.0,-5.641,0.279,0.403,-0.854,-1.224,-1.478
993.0,-5.641,0.279,0.403,-0.854,-1.224,-1.478
997.0,-5.641,0.279,0.403,-0.854,-1.224,-1.478
1001.0,-5.396,0.237,0.523,-0.976,-1.236,-1.593
1005.0,-5.396,0.237,0.523,-0.976,-1.236,-1.593
1009.0,-5.206,0.209,0.683,-1.08,-1.248,-1.7
1013.0,-5.206,0.209,0.683,-1.08,-1.248,-1.7
1017.0,-5.206,0.209,0.683,-1.08,-1.248,-1.7
1021.0,-5.066,0.193,0.802,-1.168,-1.262,-1.796
1025.0,-5.066,0.193,0.802,-1.168,-1.262,-1.796
1029.0,-5.01,0.154,0.878,-1.247,-1.272,-1.88
1033.0,-5.01,0.154,0.878,-1.247,-1.272,-1.88
1037.0,-5.01,0.154,0.878,-1.247,-1.272,-1.88
1041.0,-5.002,0.113,0.988,-1.317,-1.268,-1.955
1045.0,-5.002,0.113,0.988,-1.317,-1.268,-1.955
1049.0,-5.04,0.1,1.199,-1.379,-1.261,-2.02
1053.0,-5.04,0.1,1.199,-1.379,-1.261,-2.02
1057.0,-5.04,0.1,1.199,-1.379,-1.261,-2.02
1061.0,-5.24,0.136,1.481,-1.433,-1.255,-2.07
1065.0,-5.24,0.136,1.481,-1.433,-1.255,-2.07
1069.0,-5.734,0.291,2.116,-1.479,-1.254,-2.098
1073.0,-5.734,0.291,2.116,-1.479,-1.254,-2.098
1077.0,-5.734,0.291,3.074,-1.479,-1.254,-2.098
1081.0,-6.451,0.518,3.074,-1.514,-1.291,-2.09
1085.0,-6.451,0.518,3.074,-1.514,-1.291,-2.09
1089.0,-7.072,0.684,3.834,-1.546,-1.389,-2.032
1093.0,-7.072,0.684,3.834,-1.546,-1.389,-2.032
1097.0,-7.072,0.751,4.363,-1.546,-1.389,-2.032
1101.0,-7.525,0.751,4.363,-1.586,-1.507,-1.932
1105.0,-7.525,0.751,4.363,-1.586,-1.507,-1.932
1109.0,-7.747,0.648,4.482,-1.639,-1.598,-1.808
1113.0,-7.747,0.648,4.482,-1.639,-1.598,-1.808
1117.0,-7.696,0.586,4.53,-1.639,-1.598,-1.808
1121.0,-7.696,0.586,4.53,-1.712,-1.638,-1.677
1125.0,-7.696,0.586,4.53,-1.712,-1.638,-1.677
1129.0,-7.592,0.5,4.478,-1.807,-1.622,-1.538
1133.0,-7.592,0.5,4.478,-1.807,-1.622,-1.538
1137.0,-7.75,0.364,4.418,-1.807,-1.622,-1.399
1141.0,-7.75,0.364,4.418,-1.909,-1.56,-1.399
1145.0,-7.75,0.364,4.418,-1.909,-1.56,-1.399
1149.0,-8.118,0.129,4.156,-2.013,-1.465,-1.264
1153.0,-8.118,0.129,4.156,-2.013,-1.465,-1.264
1157.0,-8.712,-0.095,3.735,-2.121,-1.329,-1.137
1161.0,-8.712,-0.095,3.735,-2.121,-1.329,-1.137
1165.0,-8.712,-0.095,3.735,-2.121,-1.329,-1.137
1169.0,-9.601,-0.231,3.686,-2.249,-1.147,-1.015
1173.0,-9.601,-0.231,3.686,-2.249,-1.147,-1.015
1177.0,-10.834,-0.486,3.901,-2.392,-0.949,-0.887
1181.0,-10.834,-0.486,3.901,-2.392,-0.949,-0.887
1185.0,-10.834,-0.486,4.272,-2.392,-0.949,-0.887
1190.0,-12.43,-0.823,4.272,-2.531,-0.755,-0.758
1194.0,-12.43,-0.823,4.272,-2.531,-0.755,-0.758
1198.0,-14.226,-1.094,4.817,-2.65,-0.6,-0.638
1202.0,-14.226,-1.094,4.817,-2.65,-0.6,-0.638
1206.0,-15.681,-1.472,5.007,-2.74,-0.505,-0.531
1210.0,-15.681,-1.472,5.007,-2.74,-0.505,-0.531
1215.0,-15.681,-1.472,5.007,-2.74,-0.505,-0.531
1219.0,-16.435,-1.673,5.284,-2.801,-0.451,-0.456
1223.0,-16.435,-1.673,5.284,-2.801,-0.451,-0.456
1227.0,-16.433,-1.826,5.621,-2.825,-0.435,-0.406
1231.0,-16.433,-1.826,5.621,-2.825,-0.435,-0.406
1235.0,-15.909,-1.953,5.65,-2.825,-0.435,-0.383
1240.0,-15.909,-1.953,5.65,-2.792,-0.433,-0.383
1244.0,-15.909,-1.953,5.65,-2.792,-0.433,-0.383
1248.0,-15.203,-1.973,5.402,-2.704,-0.411,-0.378
1252.0,-15.203,-1.973,5.402,-2.704,-0.411,-0.378
1256.0,-14.828,-1.914,4.928,-2.58,-0.348,-0.382
1260.0,-14.828,-1.914,4.928,-2.58,-0.348,-0.382
1265.0,-14.828,-1.838,4.356,-2.58,-0.348,-0.382
1269.0,-14.771,-1.838,4.356,-2.445,-0.248,-0.375
1273.0,-14.771,-1.838,4.356,-2.445,-0.248,-0.375
1277.0,-15.025,-1.828,3.831,-2.317,-0.131,-0.34
1281.0,-15.025,-1.828,3.831,-2.317,-0.131,-0.34
1285.0,-15.013,-1.854,3.387,-2.205,-0.02,-0.277
1290.0,-15.013,-1.854,3.387,-2.205,-0.02,-0.277
1294.0,-15.013,-1.854,3.387,-2.205,-0.02,-0.277
1298.0,-14.812,-2.001,2.908,-2.115,0.078,-0.202
1302.0,-14.812,-2.001,2.908,-2.115,0.078,-0.202
1306.0,-14.835,-2.24,2.623,-2.041,0.183,-0.132
1310.0,-14.835,-2.24,2.623,-2.041,0.183,-0.132
1314.0,-14.481,-2.464,2.547,-2.041,0.183,-0.132
1318.0,-14.481,-2.464,2.547,-1.968,0.287,-0.078
1322.0,-14.481,-2.464,2.547,-1.968,0.287,-0.078
1326.0,-13.714,-2.66,2.492,-1.879,0.352,-0.037
1331.0,-13.714,-2.66,2.492,-1.879,0.352,-0.037
1335.0,-13.215,-2.822,2.411,-1.769,0.394,-0.016
1339.0,-13.215,-2.822,2.411,-1.769,0.394,-0.016
1343.0,-13.215,-2.822,2.411,-1.769,0.394,-0.016
1347.0,-12.777,-2.917,2.454,-1.625,0.428,-0.009
1351.0,-12.777,-2.917,2.454,-1.625,0.428,-0.009
1355.0,-12.039,-2.956,2.584,-1.438,0.423,0.0
1359.0,-12.039,-2.956,2.584,-1.438,0.423,0.0
1363.0,-12.039,-2.956,2.771,-1.438,0.423,0.0
1367.0,-11.258,-2.983,2.771,-1.208,0.357,0.015
1371.0,-11.258,-2.983,2.771,-1.208,0.357,0.015
1375.0,-10.639,-3.013,2.885,-0.929,0.238,0.031
1379.0,-10.639,-3.013,2.885,-0.929,0.238,0.031
1383.0,-10.639,-2.989,2.653,-0.929,0.238,0.031
1387.0,-10.18,-2.989,2.653,-0.609,0.073,0.042
1391.0,-10.18,-2.989,2.653,-0.609,0.073,0.042
1395.0,-10.114,-2.882,2.099,-0.277,-0.095,0.058
1399.0,-10.114,-2.882,2.099,-0.277,-0.095,0.058
1403.0,-10.689,-2.793,1.421,-0.277,-0.095,0.099
1407.0,-10.689,-2.793,1.421,0.034,-0.225,0.099
1411.0,-10.689,-2.793,1.421,0.034,-0.225,0.099
1415.0,-11.641,-2.693,0.837,0.301,-0.31,0.184
1419.0,-11.641,-2.693,0.837,0.301,-0.31,0.184
1423.0,-12.584,-2.565,0.534,0.301,-0.37,0.319
1427.0,-12.584,-2.565,0.534,0.508,-0.37,0.319
1431.0,-12.584,-2.565,0.534,0.508,-0.37,0.319
1435.0,-13.391,-2.553,0.561,0.651,-0.431,0.5
1439.0,-13.391,-2.553,0.561,0.651,-0.431,0.5
1443.0,-13.856,-2.619,0.699,0.743,-0.511,0.708
1447.0,-13.856,-2.619,0.699,0.743,-0.511,0.708
1451.0,-13.856,-2.619,0.699,0.743,-0.511,0.708
1455.0,-13.582,-2.614,0.774,0.792,-0.622,0.915
1459.0,-13.582,-2.614,0.774,0.792,-0.622,0.915
1463.0,-12.803,-2.558,0.811,0.798,-0.748,1.093
1467.0,-12.803,-2.558,0.811,0.798,-0.748,1.093
1471.0,-12.803,-2.558,0.811,0.798,-0.748,1.093
1475.0,-11.968,-2.425,0.712,0.766,-0.854,1.225
1479.0,-11.968,-2.425,0.712,0.766,-0.854,1.225
1483.0,-11.234,-2.219,0.579,0.707,-0.917,1.315
1487.0,-11.234,-2.219,0.579,0.707,-0.917,1.315
1491.0,-11.234,-2.219,0.579,0.707,-0.917,1.315
1495.0,-10.617,-1.946,0.437,0.623,-0.937,1.379
1499.0,-10.617,-1.946,0.437,0.623,-0.937,1.379
1503.0,-10.248,-1.69,0.359,0.506,-0.922,1.422
1507.0,-10.248,-1.69,0.359,0.506,-0.922,1.422
1511.0,-10.248,-1.69,0.359,0.506,-0.922,1.422
1515.0,-10.039,-1.497,0.327,0.367,-0.876,1.46
1519.0,-10.039,-1.497,0.327,0.367,-0.876,1.46
1523.0,-9.977,-1.367,0.347,0.211,-0.806,1.504
1527.0,-9.977,-1.367,0.347,0.211,-0.806,1.504
1531.0,-9.977,-1.367,0.347,0.211,-0.806,1.504
1535.0,-10.072,-1.326,0.4,0.045,-0.72,1.554
1539.0,-10.072,-1.326,0.4,0.045,-0.72,1.554
1543.0,-10.198,-1.388,0.486,-0.125,-0.63,1.61
1547.0,-10.198,-1.388,0.486,-0.125,-0.63,1.61
1551.0,-10.198,-1.554,0.547,-0.125,-0.63,1.61
1555.0,-10.149,-1.554,0.547,-0.286,-0.544,1.666
1559.0,-10.149,-1.554,0.547,-0.286,-0.544,1.666
1563.0,-9.963,-1.736,0.641,-0.429,-0.466,1.718
1567.0,-9.963,-1.736,0.641,-0.429,-0.466,1.718
1571.0,-9.761,-1.963,0.751,-0.429,-0.392,1.762
1575.0,-9.761,-1.963,0.751,-0.551,-0.392,1.762
1579.0,-9.761,-1.963,0.751,-0.551,-0.392,1.762
1583.0,-9.422,-2.185,0.86,-0.646,-0.326,1.796
1587.0,-9.422,-2.185,0.86,-0.646,-0.326,1.796
1591.0,-8.761,-2.39,0.982,-0.712,-0.279,1.82
1595.0,-8.761,-2.39,0.982,-0.712,-0.279,1.82
1599.0,-8.761,-2.39,0.982,-0.712,-0.279,1.82
1603.0,-8.05,-2.524,1.113,-0.75,-0.256,1.831
1607.0,-8.05,-2.524,1.113,-0.75,-0.256,1.831
1611.0,-7.539,-2.64,1.183,-0.76,-0.237,1.826
1615.0,-7.539,-2.64,1.183,-0.76,-0.237,1.826
1619.0,-7.539,-2.64,1.183,-0.76,-0.237,1.826
1623.0,-7.211,-2.771,1.221,-0.737,-0.206,1.812
1627.0,-7.211,-2.771,1.221,-0.737,-0.206,1.812
1631.0,-7.059,-2.917,1.269,-0.683,-0.166,1.806
1635.0,-7.059,-2.917,1.269,-0.683,-0.166,1.806
1639.0,-7.059,-2.917,1.269,-0.683,-0.166,1.806
1643.0,-7.097,-3.076,1.385,-0.602,-0.129,1.816
1647.0,-7.097,-3.076,1.385,-0.602,-0.129,1.816
1651.0,-7.338,-3.282,1.492,-0.491,-0.1,1.845
1655.0,-7.338,-3.282,1.492,-0.491,-0.1,1.845
1659.0,-7.338,-3.282,1.492,-0.491,-0.1,1.845
1663.0,-7.688,-3.537,1.628,-0.347,-0.08,1.882
1667.0,-7.688,-3.537,1.628,-0.347,-0.08,1.882
1671.0,-7.989,-3.784,1.81,-0.171,-0.082,1.92
1675.0,-7.989,-3.784,1.81,-0.171,-0.082,1.92
1679.0,-7.989,-3.784,1.947,-0.171,-0.082,1.92
1683.0,-8.222,-3.998,1.947,0.032,-0.114,1.952
1687.0,-8.222,-3.998,1.947,0.032,-0.114,1.952
1691.0,-8.395,-4.179,1.942,0.249,-0.162,1.972
1695.0,-8.395,-4.179,1.942,0.249,-0.162,1.972
1698.0,-8.395,-4.179,1.942,0.249,-0.162,1.972
1702.0,-8.48,-4.277,1.84,0.465,-0.208,1.976
1706.0,-8.48,-4.277,1.84,0.465,-0.208,1.976
1710.0,-8.436,-4.323,1.753,0.668,-0.243,1.97
1714.0,-8.436,-4.323,1.753,0.668,-0.243,1.97
1718.0,-8.436,-4.323,1.753,0.668,-0.243,1.97
1722.0,-8.282,-4.342,1.692,0.853,-0.269,1.955
1726.0,-8.282,-4.342,1.692,0.853,-0.269,1.955
1730.0,-8.073,-4.367,1.626,1.024,-0.29,1.929
1734.0,-8.073,-4.367,1.626,1.024,-0.29,1.929
1738.0,-8.073,-4.367,1.626,1.024,-0.29,1.929
1741.0,-7.809,-4.387,1.568,1.183,-0.306,1.885
1745.0,-7.809,-4.387,1.568,1.183,-0.306,1.885
1749.0,-7.527,-4.421,1.464,1.327,-0.32,1.818
1753.0,-7.527,-4.421,1.464,1.327,-0.32,1.818
1757.0,-7.527,-4.421,1.464,1.327,-0.32,1.818
1761.0,-7.32,-4.423,1.339,1.456,-0.325,1.726
1765.0,-7.32,-4.423,1.339,1.456,-0.325,1.726
1769.0,-7.217,-4.427,1.228,1.565,-0.318,1.606
1773.0,-7.217,-4.427,1.228,1.565,-0.318,1.606
1777.0,-7.217,-4.427,1.228,1.565,-0.318,1.606
1781.0,-7.36,-4.388,1.131,1.656,-0.305,1.459
1784.0,-7.36,-4.388,1.131,1.656,-0.305,1.459
1788.0,-7.742,-4.287,1.021,1.656,-0.292,1.289
1792.0,-7.742,-4.287,1.021,1.729,-0.292,1.289
1796.0,-7.742,-4.287,1.021,1.729,-0.292,1.289
1800.0,-8.166,-4.126,0.947,1.784,-0.287,1.107
1804.0,-8.166,-4.126,0.947,1.784,-0.287,1.107
1808.0,-8.476,-3.925,0.921,1.784,-0.287,0.925
1812.0,-8.476,-3.925,0.921,1.826,-0.302,0.925
1816.0,-8.476,-3.925,0.921,1.826,-0.302,0.925
1820.0,-8.658,-3.679,0.843,1.857,-0.332,0.753
1823.0,-8.658,-3.679,0.843,1.857,-0.332,0.753
1827.0,-8.742,-3.407,0.661,1.857,-0.332,0.753
1831.0,-8.742,-3.407,0.661,1.879,-0.363,0.598
1835.0,-8.742,-3.407,0.661,1.879,-0.363,0.598
1839.0,-8.693,-3.173,0.514,1.889,-0.382,0.461
1843.0,-8.693,-3.173,0.514,1.889,-0.382,0.461
1847.0,-8.693,-3.042,0.398,1.889,-0.382,0.461
1851.0,-8.535,-3.042,0.398,1.886,-0.395,0.343
1855.0,-8.535,-3.042,0.398,1.886,-0.395,0.343
1859.0,-8.408,-2.959,0.271,1.87,-0.402,0.234
1863.0,-8.408,-2.959,0.271,1.87,-0.402,0.234
1866.0,-8.408,-2.959,0.145,1.87,-0.402,0.234
1870.0,-8.286,-2.899,0.145,1.843,-0.399,0.126
1874.0,-8.286,-2.899,0.145,1.843,-0.399,0.126
1878.0,-8.073,-2.838,0.08,1.808,-0.392,0.021
1882.0,-8.073,-2.838,0.08,1.808,-0.392,0.021
1886.0,-8.073,-2.838,0.08,1.808,-0.392,0.021
1890.0,-7.848,-2.794,0.023,1.766,-0.387,-0.078
1894.0,-7.848,-2.794,0.023,1.766,-0.387,-0.078
1898.0,-7.709,-2.766,-0.023,1.722,-0.377,-0.17
1902.0,-7.709,-2.766,-0.023,1.722,-0.377,-0.17
1906.0,-7.709,-2.766,-0.05,1.722,-0.377,-0.17
1910.0,-7.737,-2.745,-0.05,1.68,-0.358,-0.259
1914.0,-7.737,-2.745,-0.05,1.68,-0.358,-0.259
1918.0,-7.752,-2.739,-0.048,1.643,-0.338,-0.344
1922.0,-7.752,-2.739,-0.048,1.643,-0.338,-0.344
1926.0,-7.716,-2.733,-0.032,1.643,-0.324,-0.425
1931.0,-7.716,-2.733,-0.032,1.613,-0.324,-0.425
1935.0,-7.716,-2.733,-0.032,1.613,-0.324,-0.425
1939.0,-7.665,-2.736,0.001,1.589,-0.317,-0.504
1943.0,-7.665,-2.736,0.001,1.589,-0.317,-0.504
1947.0,-7.805,-2.742,-0.028,1.573,-0.307,-0.58
1951.0,-7.805,-2.742,-0.028,1.573,-0.307,-0.58
1955.0,-7.805,-2.742,-0.028,1.573,-0.307,-0.58
1959.0,-8.155,-2.757,-0.111,1.564,-0.285,-0.648
1963.0,-8.155,-2.757,-0.111,1.564,-0.285,-0.648
1967.0,-8.669,-2.771,-0.2,1.561,-0.251,-0.7
1971.0,-8.669,-2.771,-0.2,1.561,-0.251,-0.7
1975.0,-8.669,-2.771,-0.212,1.561,-0.251,-0.7
1979.0,-9.24,-2.776,-0.212,1.561,-0.213,-0.735
1983.0,-9.24,-2.776,-0.212,1.561,-0.213,-0.735
1987.0,-9.919,-2.791,-0.196,1.567,-0.169,-0.753
1992.0,-9.919,-2.791,-0.196,1.567,-0.169,-0.753
1996.0,-10.69,-2.801,-0.126,1.567,-0.126,-0.757
2000.0,-10.69,-2.801,-0.126,1.577,-0.126,-0.757
2004.0,-10.69,-2.801,-0.126,1.577,-0.126,-0.757
2008.0,-11.538,-2.807,-0.016,1.59,-0.092,-0.746
2012.0,-11.538,-2.807,-0.016,1.59,-0.092,-0.746
2016.0,-12.368,-2.833,0.103,1.604,-0.072,-0.73
2021.0,-12.368,-2.833,0.103,1.604,-0.072,-0.73
2025.0,-12.368,-2.868,0.234,1.604,-0.072,-0.73
2029.0,-13.057,-2.868,0.234,1.621,-0.075,-0.712
2033.0,-13.057,-2.868,0.234,1.621,-0.075,-0.712
2037.0,-13.625,-2.877,0.33,1.642,-0.099,-0.709
2041.0,-13.625,-2.877,0.33,1.642,-0.099,-0.709
2045.0,-14.046,-2.81,0.308,1.642,-0.132,-0.727
2049.0,-14.046,-2.81,0.308,1.666,-0.132,-0.727
2053.0,-14.046,-2.81,0.308,1.666,-0.132,-0.727
2057.0,-14.284,-2.7,0.285,1.691,-0.163,-0.769
2061.0,-14.284,-2.7,0.285,1.691,-0.163,-0.769
2065.0,-14.527,-2.55,0.241,1.716,-0.19,-0.835
2069.0,-14.527,-2.55,0.241,1.716,-0.19,-0.835
2074.0,-14.527,-2.55,0.241,1.716,-0.19,-0.835
2078.0,-14.809,-2.346,0.169,1.741,-0.216,-0.921
2082.0,-14.809,-2.346,0.169,1.741,-0.216,-0.921
2086.0,-15.22,-2.087,0.1,1.768,-0.238,-1.026
2090.0,-15.22,-2.087,0.1,1.768,-0.238,-1.026
2094.0,-15.577,-1.804,0.009,1.768,-0.238,-1.026
2098.0,-15.577,-1.804,0.009,1.792,-0.257,-1.14
2102.0,-15.577,-1.804,0.009,1.792,-0.257,-1.14
2106.0,-15.732,-1.547,-0.056,1.81,-0.279,-1.249
2110.0,-15.732,-1.547,-0.056,1.81,-0.279,-1.249
2115.0,-15.94,-1.32,-0.047,1.82,-0.3,-1.349
2119.0,-15.94,-1.32,-0.047,1.82,-0.3,-1.349
2123.0,-15.94,-1.32,-0.047,1.82,-0.3,-1.349
2127.0,-16.228,-1.154,0.024,1.823,-0.312,-1.436
2131.0,-16.228,-1.154,0.024,1.823,-0.312,-1.436
2135.0,-16.374,-1.04,0.1,1.821,-0.321,-1.503
2139.0,-16.374,-1.04,0.1,1.821,-0.321,-1.503
2143.0,-16.215,-0.957,0.214,1.821,-0.321,-1.503
2147.0,-16.215,-0.957,0.214,1.804,-0.335,-1.543
2152.0,-16.215,-0.957,0.214,1.804,-0.335,-1.543
2156.0,-15.738,-0.907,0.319,1.77,-0.356,-1.56
2160.0,-15.738,-0.907,0.319,1.77,-0.356,-1.56
2164.0,-15.155,-0.857,0.404,1.715,-0.375,-1.564
2168.0,-15.155,-0.857,0.404,1.715,-0.375,-1.564
2172.0,-15.155,-0.857,0.404,1.715,-0.375,-1.564
2176.0,-14.527,-0.8,0.464,1.642,-0.383,-1.559
2180.0,-14.527,-0.8,0.464,1.642,-0.383,-1.559
2184.0,-14.013,-0.74,0.505,1.55,-0.373,-1.546
2188.0,-14.013,-0.74,0.505,1.55,-0.373,-1.546
2192.0,-14.013,-0.74,0.504,1.55,-0.373,-1.546
2196.0,-13.394,-0.686,0.504,1.44,-0.348,-1.52
2200.0,-13.394,-0.686,0.504,1.44,-0.348,-1.52
2205.0,-12.779,-0.644,0.494,1.312,-0.317,-1.479
2209.0,-12.779,-0.644,0.494,1.312,-0.317,-1.479
2213.0,-12.272,-0.597,0.492,1.312,-0.271,-1.426
2217.0,-12.272,-0.597,0.492,1.17,-0.271,-1.426
2221.0,-12.272,-0.597,0.492,1.17,-0.271,-1.426
2225.0,-11.664,-0.587,0.492,1.019,-0.212,-1.362
2229.0,-11.664,-0.587,0.492,1.019,-0.212,-1.362
2233.0,-11.099,-0.58,0.562,0.861,-0.148,-1.289
2237.0,-11.099,-0.58,0.562,0.861,-0.148,-1.289
2241.0,-11.099,-0.58,0.562,0.861,-0.148,-1.289
2245.0,-10.476,-0.589,0.605,0.704,-0.081,-1.216
2249.0,-10.476,-0.589,0.605,0.704,-0.081,-1.216
2254.0,-9.935,-0.595,0.677,0.553,-0.017,-1.148
2258.0,-9.935,-0.595,0.677,0.553,-0.017,-1.148
2262.0,-9.935,-0.597,0.693,0.553,-0.017,-1.148
2266.0,-9.545,-0.597,0.693,0.413,0.043,-1.089
2269.0,-9.545,-0.597,0.693,0.413,0.043,-1.089
2273.0,-9.221,-0.584,0.682,0.284,0.095,-1.038
2277.0,-9.221,-0.584,0.682,0.284,0.095,-1.038
2281.0,-9.221,-0.584,0.672,0.284,0.095,-1.038
2285.0,-8.933,-0.554,0.672,0.166,0.143,-0.988
2289.0,-8.933,-0.554,0.672,0.166,0.143,-0.988
2293.0,-8.796,-0.561,0.64,0.059,0.192,-0.934
2297.0,-8.796,-0.561,0.64,0.059,0.192,-0.934
2301.0,-8.796,-0.561,0.64,0.059,0.192,-0.934
2305.0,-8.657,-0.564,0.653,-0.034,0.242,-0.872
2309.0,-8.657,-0.564,0.653,-0.034,0.242,-0.872
2313.0,-8.527,-0.61,0.696,-0.113,0.283,-0.801
2317.0,-8.527,-0.61,0.696,-0.113,0.283,-0.801
2321.0,-8.527,-0.61,0.759,-0.113,0.283,-0.801
2325.0,-8.572,-0.647,0.759,-0.176,0.316,-0.728
2329.0,-8.572,-0.647,0.759,-0.176,0.316,-0.728
2333.0,-8.971,-0.669,0.811,-0.219,0.342,-0.658
2337.0,-8.971,-0.669,0.811,-0.219,0.342,-0.658
2340.0,-8.971,-0.692,0.772,-0.219,0.342,-0.658
2344.0,-9.788,-0.692,0.772,-0.245,0.357,-0.582
2348.0,-9.788,-0.692,0.772,-0.245,0.357,-0.582
2352.0,-10.669,-0.755,0.691,-0.257,0.356,-0.492
2357.0,-10.669,-0.755,0.691,-0.257,0.356,-0.492
2361.0,-11.353,-0.774,0.658,-0.257,0.356,-0.385
2365.0,-11.353,-0.774,0.658,-0.262,0.334,-0.385
2369.0,-11.353,-0.774,0.658,-0.262,0.334,-0.385
2373.0,-11.728,-0.785,0.623,-0.265,0.287,-0.271
2377.0,-11.728,-0.785,0.623,-0.265,0.287,-0.271
2381.0,-11.682,-0.785,0.657,-0.265,0.229,-0.163
2385.0,-11.682,-0.785,0.657,-0.265,0.229,-0.163
2389.0,-11.682,-0.785,0.657,-0.265,0.229,-0.163
2393.0,-11.332,-0.748,0.701,-0.258,0.167,-0.081
2397.0,-11.332,-0.748,0.701,-0.258,0.167,-0.081
2401.0,-10.912,-0.635,0.722,-0.243,0.107,-0.042
2406.0,-10.912,-0.635,0.722,-0.243,0.107,-0.042
2410.0,-10.912,-0.465,0.688,-0.243,0.107,-0.042
2414.0,-10.554,-0.465,0.688,-0.223,0.052,-0.045
2418.0,-10.554,-0.465,0.688,-0.223,0.052,-0.045
2422.0,-10.123,-0.277,0.693,-0.199,0.006,-0.077
2426.0,-10.123,-0.277,0.693,-0.199,0.006,-0.077
2430.0,-9.756,-0.086,0.69,-0.199,-0.027,-0.122
2434.0,-9.756,-0.086,0.69,-0.172,-0.027,-0.122
2438.0,-9.756,-0.086,0.69,-0.172,-0.027,-0.122
2442.0,-9.548,0.097,0.696,-0.143,-0.04,-0.162
2446.0,-9.548,0.097,0.696,-0.143,-0.04,-0.162
2450.0,-9.418,0.232,0.7,-0.119,-0.03,-0.184
2454.0,-9.418,0.232,0.7,-0.119,-0.03,-0.184
2458.0,-9.418,0.232,0.7,-0.119,-0.03,-0.184
2462.0,-9.237,0.285,0.779,-0.108,-0.005,-0.186
2466.0,-9.237,0.285,0.779,-0.108,-0.005,-0.186
2470.0,-9.128,0.297,0.864,-0.113,0.022,-0.177
2474.0,-9.128,0.297,0.864,-0.113,0.022,-0.177
2478.0,-9.128,0.297,0.864,-0.113,0.022,-0.177
2482.0,-9.061,0.257,0.918,-0.135,0.052,-0.171
2486.0,-9.061,0.257,0.918,-0.135,0.052,-0.171
2490.0,-8.891,0.224,1.01,-0.176,0.076,-0.171
2494.0,-8.891,0.224,1.01,-0.176,0.076,-0.171
2498.0,-8.891,0.224,1.01,-0.176,0.076,-0.171
2501.0,-8.757,0.229,1.095,-0.229,0.085,-0.175
2505.0,-8.757,0.229,1.095,-0.229,0.085,-0.175
2509.0,-8.674,0.225,1.105,-0.296,0.086,-0.179
2513.0,-8.674,0.225,1.105,-0.296,0.086,-0.179
2517.0,-8.674,0.225,1.105,-0.296,0.086,-0.179
2521.0,-8.485,0.208,1.108,-0.375,0.083,-0.173
2525.0,-8.485,0.208,1.108,-0.375,0.083,-0.173
2529.0,-8.122,0.223,1.159,-0.375,0.07,-0.159
2533.0,-8.122,0.223,1.159,-0.468,0.07,-0.159
2537.0,-8.122,0.223,1.159,-0.468,0.07,-0.159
2540.0,-7.752,0.223,1.193,-0.566,0.045,-0.142
2544.0,-7.752,0.223,1.193,-0.566,0.045,-0.142
2548.0,-7.491,0.2,1.146,-0.566,0.045,-0.127
2552.0,-7.491,0.2,1.146,-0.663,0.015,-0.127
2556.0,-7.491,0.2,1.146,-0.663,0.015,-0.127
2560.0,-7.268,0.202,1.077,-0.761,-0.023,-0.114
2564.0,-7.268,0.202,1.077,-0.761,-0.023,-0.114
2568.0,-7.04,0.198,0.99,-0.761,-0.023,-0.098
2572.0,-7.04,0.198,0.99,-0.858,-0.073,-0.098
2576.0,-7.04,0.198,0.99,-0.858,-0.073,-0.098
2580.0,-6.76,0.186,0.91,-0.957,-0.129,-0.078
2584.0,-6.76,0.186,0.91,-0.957,-0.129,-0.078
2588.0,-6.489,0.162,0.865,-0.957,-0.189,-0.055
2592.0,-6.489,0.162,0.865,-1.055,-0.189,-0.055
2596.0,-6.489,0.162,0.865,-1.055,-0.189,-0.055
2600.0,-6.246,0.1,0.791,-1.154,-0.245,-0.025
2604.0,-6.246,0.1,0.791,-1.154,-0.245,-0.025
2608.0,-5.952,0.006,0.743,-1.259,-0.294,0.004
2612.0,-5.952,0.006,0.743,-1.259,-0.294,0.004
2616.0,-5.952,0.006,0.743,-1.259,-0.294,0.004
2620.0,-5.77,-0.029,0.614,-1.375,-0.34,0.022
2624.0,-5.77,-0.029,0.614,-1.375,-0.34,0.022
2628.0,-5.682,-0.053,0.503,-1.499,-0.37,0.046
2632.0,-5.682,-0.053,0.503,-1.499,-0.37,0.046
2636.0,-5.682,-0.053,0.503,-1.499,-0.37,0.046
2640.0,-5.565,-0.144,0.468,-1.629,-0.388,0.082
2644.0,-5.565,-0.144,0.468,-1.629,-0.388,0.082
2648.0,-5.423,-0.24,0.482,-1.756,-0.4,0.128
2652.0,-5.423,-0.24,0.482,-1.756,-0.4,0.128
2656.0,-5.423,-0.24,0.482,-1.756,-0.4,0.128
2660.0,-5.326,-0.367,0.492,-1.872,-0.402,0.187
2664.0,-5.326,-0.367,0.492,-1.872,-0.402,0.187
2668.0,-5.216,-0.499,0.534,-1.969,-0.392,0.252
2672.0,-5.216,-0.499,0.534,-1.969,-0.392,0.252
2676.0,-5.216,-0.499,0.534,-1.969,-0.392,0.252
2680.0,-5.065,-0.58,0.608,-2.051,-0.377,0.314
2684.0,-5.065,-0.58,0.608,-2.051,-0.377,0.314
2688.0,-4.853,-0.671,0.733,-2.116,-0.367,0.364
2692.0,-4.853,-0.671,0.733,-2.116,-0.367,0.364
2696.0,-4.853,-0.671,0.733,-2.116,-0.367,0.364
2700.0,-4.746,-0.703,0.789,-2.166,-0.363,0.393
2704.0,-4.746,-0.703,0.789,-2.166,-0.363,0.393
2708.0,-4.796,-0.717,0.758,-2.207,-0.356,0.407
2712.0,-4.796,-0.717,0.758,-2.207,-0.356,0.407
2715.0,-4.796,-0.717,0.744,-2.207,-0.356,0.407
2719.0,-4.888,-0.726,0.744,-2.246,-0.337,0.422
2723.0,-4.888,-0.726,0.744,-2.246,-0.337,0.422
2727.0,-4.893,-0.722,0.829,-2.284,-0.312,0.44
2731.0,-4.893,-0.722,0.829,-2.284,-0.312,0.44
2735.0,-4.893,-0.752,1.015,-2.284,-0.312,0.44
2739.0,-4.814,-0.752,1.015,-2.315,-0.287,0.457
2743.0,-4.814,-0.752,1.015,-2.315,-0.287,0.457
2747.0,-4.687,-0.802,1.152,-2.327,-0.27,0.464
2751.0,-4.687,-0.802,1.152,-2.327,-0.27,0.464
2755.0,-4.595,-0.864,1.224,-2.327,-0.27,0.464
2759.0,-4.595,-0.864,1.224,-2.318,-0.254,0.449
2763.0,-4.595,-0.864,1.224,-2.318,-0.254,0.449
2767.0,-4.543,-0.895,1.305,-2.283,-0.236,0.406
2771.0,-4.543,-0.895,1.305,-2.283,-0.236,0.406
2775.0,-4.595,-0.864,1.37,-2.283,-0.236,0.338
2779.0,-4.595,-0.864,1.37,-2.224,-0.222,0.338
2783.0,-4.595,-0.864,1.37,-2.224,-0.222,0.338
2787.0,-4.734,-0.804,1.351,-2.147,-0.208,0.261
2791.0,-4.734,-0.804,1.351,-2.147,-0.208,0.261
2795.0,-5.039,-0.712,1.293,-2.061,-0.179,0.185
2799.0,-5.039,-0.712,1.293,-2.061,-0.179,0.185
2803.0,-5.039,-0.712,1.293,-2.061,-0.179,0.185
2807.0,-5.657,-0.596,1.254,-1.969,-0.118,0.125
2811.0,-5.657,-0.596,1.254,-1.969,-0.118,0.125
2815.0,-6.516,-0.567,1.225,-1.877,-0.018,0.099
2819.0,-6.516,-0.567,1.225,-1.877,-0.018,0.099
2823.0,-6.516,-0.567,1.225,-1.877,-0.018,0.099
2827.0,-7.604,-0.626,1.271,-1.788,0.121,0.118
2831.0,-7.604,-0.626,1.271,-1.788,0.121,0.118
2835.0,-9.032,-0.745,1.496,-1.694,0.307,0.179
2839.0,-9.032,-0.745,1.496,-1.694,0.307,0.179
2843.0,-9.032,-0.745,1.496,-1.694,0.307,0.179
2847.0,-10.831,-0.984,1.933,-1.583,0.532,0.281
2851.0,-10.831,-0.984,1.933,-1.583,0.532,0.281
2855.0,-12.904,-1.256,2.774,-1.442,0.764,0.418
2859.0,-12.904,-1.256,2.774,-1.442,0.764,0.418
2863.0,-12.904,-1.256,2.774,-1.442,0.764,0.418
2867.0,-14.697,-1.545,3.787,-1.26,0.948,0.588
2871.0,-14.697,-1.545,3.787,-1.26,0.948,0.588
2875.0,-15.738,-1.812,4.726,-1.037,1.052,0.781
2879.0,-15.738,-1.812,4.726,-1.037,1.052,0.781
2883.0,-15.738,-1.812,4.726,-1.037,1.052,0.781
2887.0,-16.107,-2.02,5.305,-0.775,1.087,0.96
2891.0,-16.107,-2.02,5.305,-0.775,1.087,0.96
2895.0,-16.287,-1.976,5.512,-0.492,1.101,1.092
2899.0,-16.287,-1.976,5.512,-0.492,1.101,1.092
2903.0,-16.287,-1.976,5.512,-0.492,1.101,1.092
2907.0,-16.335,-1.705,5.482,-0.207,1.121,1.17
2911.0,-16.335,-1.705,5.482,-0.207,1.121,1.17
2915.0,-16.493,-1.316,5.266,0.06,1.156,1.209
2919.0,-16.493,-1.316,5.266,0.06,1.156,1.209
2923.0,-16.493,-1.316,5.266,0.06,1.156,1.209
2926.0,-16.703,-0.767,5.088,0.302,1.209,1.229
2930.0,-16.703,-0.767,5.088,0.302,1.209,1.229
2934.0,-16.599,-0.242,4.876,0.51,1.255,1.252
2938.0,-16.599,-0.242,4.876,0.51,1.255,1.252
2942.0,-16.599,-0.242,4.876,0.51,1.255,1.252
2946.0,-16.585,0.235,4.533,0.675,1.291,1.274
2950.0,-16.585,0.235,4.533,0.675,1.291,1.274
2954.0,-16.346,0.736,4.427,0.793,1.332,1.288
2957.0,-16.346,0.736,4.427,0.793,1.332,1.288
2961.0,-16.346,0.736,4.427,0.793,1.332,1.288
2965.0,-15.297,1.027,4.451,0.865,1.341,1.293
2969.0,-15.297,1.027,4.451,0.865,1.341,1.293
2973.0,-14.183,1.189,4.434,0.865,1.341,1.267
2977.0,-14.183,1.189,4.434,0.895,1.311,1.267
2980.0,-14.183,1.189,4.434,0.895,1.311,1.267
2984.0,-13.487,1.276,4.488,0.896,1.273,1.196
2988.0,-13.487,1.276,4.488,0.896,1.273,1.196
2992.0,-13.487,1.276,4.488,0.896,1.273,1.196
2996.0,-12.988,1.284,4.45,0.876,1.216,1.087
2999.0,-12.988,1.284,4.45,0.876,1.216,1.087
