deltaTime,Acc_X,Acc_Y,Acc_Z,Gyro_X,Gyro_Y,Gyro_Z
0.0,-12.745,-4.254,0.638,-0.489,0.516,0.83
3.0,-12.706,-4.413,0.9,-0.489,0.525,0.887
6.0,-12.706,-4.413,0.9,-0.609,0.525,0.887
9.0,-12.706,-4.413,0.9,-0.609,0.525,0.887
12.0,-12.706,-4.413,1.229,-0.609,0.525,0.887
15.0,-12.388,-4.789,1.229,-0.704,0.496,0.951
18.0,-12.388,-4.789,1.229,-0.704,0.496,0.951
21.0,-12.388,-4.789,1.229,-0.704,0.496,0.951
24.0,-11.655,-4.627,1.411,-0.765,0.437,0.974
27.0,-11.655,-4.627,1.411,-0.765,0.437,0.974
30.0,-11.655,-4.627,1.411,-0.765,0.437,0.974
33.0,-11.416,-4.797,1.421,-0.824,0.39,0.976
37.0,-11.416,-4.797,1.421,-0.824,0.39,0.976
41.0,-11.416,-4.797,1.421,-0.824,0.39,0.976
45.0,-11.324,-4.768,1.347,-0.847,0.352,0.982
49.0,-11.324,-4.768,1.347,-0.847,0.352,0.982
52.0,-11.276,-4.598,1.159,-0.847,0.312,0.981
56.0,-11.276,-4.598,1.159,-0.854,0.312,0.981
60.0,-11.276,-4.598,1.159,-0.854,0.312,0.981
64.0,-11.142,-4.397,1.044,-0.879,0.266,0.982
68.0,-11.142,-4.397,1.044,-0.879,0.266,0.982
72.0,-11.142,-4.366,1.064,-0.879,0.266,0.982
75.0,-11.07,-4.366,1.064,-0.929,0.224,0.997
79.0,-11.07,-4.366,1.064,-0.929,0.224,0.997
83.0,-10.969,-4.571,1.107,-0.984,0.171,1.017
87.0,-10.969,-4.571,1.107,-0.984,0.171,1.017
91.0,-10.969,-4.571,1.107,-0.984,0.171,1.017
94.0,-10.746,-4.816,1.238,-1.0,0.091,1.022
98.0,-10.746,-4.816,1.238,-1.0,0.091,1.022
102.0,-10.322,-4.927,1.414,-0.961,-0.012,1.001
106.0,-10.322,-4.927,1.414,-0.961,-0.012,1.001
110.0,-10.322,-4.927,1.414,-0.961,-0.012,1.001
114.0,-9.86,-4.921,1.618,-0.873,-0.121,0.959
118.0,-9.86,-4.921,1.618,-0.873,-0.121,0.959
122.0,-9.513,-4.721,1.826,-0.746,-0.227,0.9
126.0,-9.513,-4.721,1.826,-0.746,-0.227,0.9
130.0,-9.513,-4.721,1.826,-0.746,-0.227,0.9
134.0,-9.136,-4.452,1.984,-0.598,-0.315,0.817
137.0,-9.136,-4.452,1.984,-0.598,-0.315,0.817
141.0,-8.596,-3.976,1.965,-0.437,-0.377,0.71
145.0,-8.596,-3.976,1.965,-0.437,-0.377,0.71
149.0,-8.596,-3.976,1.965,-0.437,-0.377,0.71
153.0,-8.247,-3.631,1.947,-0.28,-0.4,0.582
157.0,-8.247,-3.631,1.947,-0.28,-0.4,0.582
161.0,-8.253,-3.379,1.781,-0.28,-0.406,0.449
165.0,-8.253,-3.379,1.781,-0.119,-0.406,0.449
169.0,-8.253,-3.379,1.781,-0.119,-0.406,0.449
173.0,-8.418,-3.169,1.649,0.05,-0.386,0.314
176.0,-8.418,-3.169,1.649,0.05,-0.386,0.314
180.0,-9.121,-3.114,1.351,0.05,-0.386,0.314
184.0,-9.121,-3.114,1.351,0.225,-0.32,0.167
188.0,-9.121,-3.114,1.351,0.225,-0.32,0.167
192.0,-10.295,-2.941,0.922,0.41,-0.285,0.024
196.0,-10.295,-2.941,0.922,0.41,-0.285,0.024
200.0,-10.295,-2.941,0.922,0.41,-0.285,0.024
203.0,-11.579,-2.697,0.445,0.562,-0.329,-0.081
207.0,-11.579,-2.697,0.445,0.562,-0.329,-0.081
211.0,-12.599,-2.401,0.365,0.661,-0.464,-0.124
215.0,-12.599,-2.401,0.365,0.661,-0.464,-0.124
219.0,-12.599,-2.401,0.438,0.661,-0.464,-0.124
223.0,-12.93,-2.085,0.438,0.707,-0.603,-0.167
227.0,-12.93,-2.085,0.438,0.707,-0.603,-0.167
231.0,-12.611,-1.823,0.485,0.7,-0.724,-0.237
235.0,-12.611,-1.823,0.485,0.7,-0.724,-0.237
239.0,-12.611,-1.682,0.401,0.7,-0.724,-0.237
243.0,-12.138,-1.682,0.401,0.649,-0.852,-0.32
247.0,-12.138,-1.682,0.401,0.649,-0.852,-0.32
251.0,-11.585,-1.551,0.371,0.584,-0.977,-0.388
255.0,-11.585,-1.551,0.371,0.584,-0.977,-0.388
259.0,-10.99,-1.326,0.303,0.584,-0.977,-0.388
263.0,-10.99,-1.326,0.303,0.52,-1.065,-0.423
267.0,-10.99,-1.326,0.303,0.52,-1.065,-0.423
271.0,-10.207,-0.98,0.205,0.442,-1.119,-0.439
275.0,-10.207,-0.98,0.205,0.442,-1.119,-0.439
279.0,-9.729,-0.662,0.136,0.442,-1.119,-0.451
283.0,-9.729,-0.662,0.136,0.338,-1.148,-0.451
287.0,-9.729,-0.662,0.136,0.338,-1.148,-0.451
291.0,-9.464,-0.32,0.083,0.218,-1.171,-0.449
295.0,-9.464,-0.32,0.083,0.218,-1.171,-0.449
299.0,-9.262,0.013,-0.023,0.218,-1.171,-0.449
303.0,-9.262,0.013,-0.023,0.103,-1.197,-0.414
307.0,-9.262,0.013,-0.023,0.103,-1.197,-0.414
311.0,-8.969,0.332,-0.258,0.002,-1.228,-0.325
314.0,-8.969,0.332,-0.258,0.002,-1.228,-0.325
318.0,-8.969,0.649,-0.561,0.002,-1.228,-0.325
322.0,-8.516,0.649,-0.561,-0.082,-1.25,-0.174
326.0,-8.516,0.649,-0.561,-0.082,-1.25,-0.174
330.0,-7.908,0.885,-0.793,-0.159,-1.248,0.027
334.0,-7.908,0.885,-0.793,-0.159,-1.248,0.027
338.0,-7.908,0.944,-0.94,-0.159,-1.248,0.027
342.0,-7.272,0.944,-0.94,-0.242,-1.217,0.249
346.0,-7.272,0.944,-0.94,-0.242,-1.217,0.249
350.0,-6.834,0.828,-1.012,-0.343,-1.165,0.459
354.0,-6.834,0.828,-1.012,-0.343,-1.165,0.459
358.0,-6.834,0.828,-1.046,-0.343,-1.165,0.459
362.0,-6.684,0.598,-1.046,-0.471,-1.096,0.631
365.0,-6.684,0.598,-1.046,-0.471,-1.096,0.631
369.0,-6.792,0.324,-1.045,-0.629,-1.022,0.753
373.0,-6.792,0.324,-1.045,-0.629,-1.022,0.753
377.0,-6.792,0.324,-1.045,-0.629,-1.022,0.753
381.0,-7.13,0.045,-1.028,-0.819,-0.957,0.82
385.0,-7.13,0.045,-1.028,-0.819,-0.957,0.82
389.0,-7.545,-0.192,-1.004,-1.038,-0.903,0.837
393.0,-7.545,-0.192,-1.004,-1.038,-0.903,0.837
397.0,-7.545,-0.192,-1.004,-1.038,-0.903,0.837
401.0,-7.951,-0.321,-0.927,-1.277,-0.857,0.817
405.0,-7.951,-0.321,-0.927,-1.277,-0.857,0.817
409.0,-8.22,-0.383,-0.832,-1.524,-0.818,0.779
413.0,-8.22,-0.383,-0.832,-1.524,-0.818,0.779
417.0,-8.22,-0.383,-0.742,-1.524,-0.818,0.779
421.0,-8.407,-0.412,-0.742,-1.761,-0.779,0.738
425.0,-8.407,-0.412,-0.742,-1.761,-0.779,0.738
429.0,-8.554,-0.411,-0.676,-1.975,-0.736,0.7
433.0,-8.554,-0.411,-0.676,-1.975,-0.736,0.7
437.0,-8.554,-0.386,-0.621,-1.975,-0.736,0.7
441.0,-8.778,-0.386,-0.621,-2.16,-0.686,0.668
445.0,-8.778,-0.386,-0.621,-2.16,-0.686,0.668
449.0,-9.043,-0.408,-0.561,-2.312,-0.631,0.649
453.0,-9.043,-0.408,-0.561,-2.312,-0.631,0.649
457.0,-9.302,-0.453,-0.516,-2.312,-0.631,0.649
461.0,-9.302,-0.453,-0.516,-2.427,-0.575,0.648
465.0,-9.302,-0.453,-0.516,-2.427,-0.575,0.648
469.0,-9.473,-0.52,-0.428,-2.504,-0.519,0.67
473.0,-9.473,-0.52,-0.428,-2.504,-0.519,0.67
477.0,-9.573,-0.641,-0.305,-2.504,-0.519,0.711
481.0,-9.573,-0.641,-0.305,-2.54,-0.466,0.711
485.0,-9.573,-0.641,-0.305,-2.54,-0.466,0.711
489.0,-9.601,-0.809,-0.218,-2.541,-0.42,0.762
493.0,-9.601,-0.809,-0.218,-2.541,-0.42,0.762
497.0,-9.549,-1.001,-0.147,-2.541,-0.383,0.814
501.0,-9.549,-1.001,-0.147,-2.509,-0.383,0.814
505.0,-9.549,-1.001,-0.147,-2.509,-0.383,0.814
509.0,-9.47,-1.203,-0.107,-2.451,-0.354,0.861
513.0,-9.47,-1.203,-0.107,-2.451,-0.354,0.861
517.0,-9.4,-1.391,-0.098,-2.374,-0.326,0.898
521.0,-9.4,-1.391,-0.098,-2.374,-0.326,0.898
525.0,-9.4,-1.391,-0.098,-2.374,-0.326,0.898
529.0,-9.367,-1.574,-0.103,-2.29,-0.299,0.925
533.0,-9.367,-1.574,-0.103,-2.29,-0.299,0.925
537.0,-9.308,-1.723,-0.066,-2.205,-0.274,0.943
541.0,-9.308,-1.723,-0.066,-2.205,-0.274,0.943
545.0,-9.308,-1.723,-0.066,-2.205,-0.274,0.943
549.0,-9.22,-1.831,0.0,-2.125,-0.252,0.952
553.0,-9.22,-1.831,0.0,-2.125,-0.252,0.952
556.0,-9.178,-1.891,0.08,-2.048,-0.234,0.957
560.0,-9.178,-1.891,0.08,-2.048,-0.234,0.957
564.0,-9.178,-1.891,0.08,-2.048,-0.234,0.957
568.0,-9.181,-1.909,0.16,-1.972,-0.22,0.956
572.0,-9.181,-1.909,0.16,-1.972,-0.22,0.956
576.0,-9.234,-1.862,0.258,-1.899,-0.21,0.952
580.0,-9.234,-1.862,0.258,-1.899,-0.21,0.952
584.0,-9.234,-1.862,0.258,-1.899,-0.21,0.952
588.0,-9.266,-1.776,0.385,-1.832,-0.204,0.95
592.0,-9.266,-1.776,0.385,-1.832,-0.204,0.95
595.0,-9.232,-1.671,0.514,-1.774,-0.203,0.951
599.0,-9.232,-1.671,0.514,-1.774,-0.203,0.951
603.0,-9.232,-1.671,0.514,-1.774,-0.203,0.951
607.0,-9.082,-1.532,0.669,-1.726,-0.207,0.959
611.0,-9.082,-1.532,0.669,-1.726,-0.207,0.959
615.0,-8.885,-1.396,0.791,-1.726,-0.207,0.97
619.0,-8.885,-1.396,0.791,-1.692,-0.21,0.97
623.0,-8.885,-1.396,0.791,-1.692,-0.21,0.97
627.0,-8.658,-1.288,0.836,-1.674,-0.205,0.984
631.0,-8.658,-1.288,0.836,-1.674,-0.205,0.984
635.0,-8.384,-1.194,0.836,-1.674,-0.205,0.984
638.0,-8.384,-1.194,0.836,-1.674,-0.183,0.996
642.0,-8.384,-1.194,0.836,-1.674,-0.183,0.996
646.0,-8.03,-1.121,0.835,-1.698,-0.139,1.005
650.0,-8.03,-1.121,0.835,-1.698,-0.139,1.005
654.0,-8.03,-1.065,0.873,-1.698,-0.139,1.005
658.0,-7.677,-1.065,0.873,-1.742,-0.07,1.007
662.0,-7.677,-1.065,0.873,-1.742,-0.07,1.007
666.0,-7.368,-1.026,1.015,-1.803,0.02,0.999
670.0,-7.368,-1.026,1.015,-1.803,0.02,0.999
673.0,-7.368,-1.026,1.015,-1.803,0.02,0.999
677.0,-7.163,-0.993,1.252,-1.871,0.126,0.983
681.0,-7.163,-0.993,1.252,-1.871,0.126,0.983
685.0,-7.04,-0.975,1.49,-1.937,0.232,0.963
689.0,-7.04,-0.975,1.49,-1.937,0.232,0.963
693.0,-7.04,-0.975,1.49,-1.937,0.232,0.963
696.0,-7.04,-1.001,1.688,-2.0,0.338,0.946
700.0,-7.04,-1.001,1.688,-2.0,0.338,0.946
704.0,-7.183,-1.072,1.907,-2.0,0.449,0.934
708.0,-7.183,-1.072,1.907,-2.056,0.449,0.934
712.0,-7.183,-1.072,1.907,-2.056,0.449,0.934
715.0,-7.45,-1.157,2.116,-2.101,0.557,0.935
719.0,-7.45,-1.157,2.116,-2.101,0.557,0.935
723.0,-7.45,-1.293,2.273,-2.101,0.557,0.935
727.0,-7.818,-1.293,2.273,-2.133,0.657,0.955
731.0,-7.818,-1.293,2.273,-2.133,0.657,0.955
735.0,-8.215,-1.46,2.408,-2.148,0.749,0.994
738.0,-8.215,-1.46,2.408,-2.148,0.749,0.994
742.0,-8.215,-1.46,2.408,-2.148,0.749,0.994
746.0,-8.605,-1.674,2.541,-2.141,0.833,1.046
750.0,-8.605,-1.674,2.541,-2.141,0.833,1.046
754.0,-9.011,-1.871,2.697,-2.108,0.907,1.107
757.0,-9.011,-1.871,2.697,-2.108,0.907,1.107
761.0,-9.011,-1.871,2.697,-2.108,0.907,1.107
765.0,-9.406,-2.058,2.856,-2.046,0.969,1.168
769.0,-9.406,-2.058,2.856,-2.046,0.969,1.168
773.0,-9.738,-2.218,3.022,-2.046,0.969,1.168
777.0,-9.738,-2.218,3.022,-1.955,1.016,1.225
780.0,-9.738,-2.218,3.022,-1.955,1.016,1.225
784.0,-9.995,-2.349,3.2,-1.837,1.048,1.273
788.0,-9.995,-2.349,3.2,-1.837,1.048,1.273
792.0,-9.995,-2.349,3.2,-1.837,1.048,1.273
796.0,-10.152,-2.416,3.346,-1.695,1.065,1.305
800.0,-10.152,-2.416,3.346,-1.695,1.065,1.305
803.0,-10.13,-2.398,3.461,-1.538,1.067,1.32
807.0,-10.13,-2.398,3.461,-1.538,1.067,1.32
811.0,-10.13,-2.398,3.461,-1.538,1.067,1.32
815.0,-9.916,-2.361,3.53,-1.37,1.056,1.309
819.0,-9.916,-2.361,3.53,-1.37,1.056,1.309
823.0,-9.657,-2.261,3.544,-1.196,1.045,1.272
827.0,-9.657,-2.261,3.544,-1.196,1.045,1.272
830.0,-9.657,-2.261,3.544,-1.196,1.045,1.272
834.0,-9.455,-2.132,3.526,-1.024,1.041,1.205
838.0,-9.455,-2.132,3.526,-1.024,1.041,1.205
842.0,-9.348,-1.988,3.508,-1.024,1.041,1.12
846.0,-9.348,-1.988,3.508,-0.855,1.04,1.12
850.0,-9.348,-1.988,3.508,-0.855,1.04,1.12
853.0,-9.435,-1.826,3.465,-0.696,1.04,1.021
857.0,-9.435,-1.826,3.465,-0.696,1.04,1.021
861.0,-9.435,-1.826,3.465,-0.696,1.04,1.021
865.0,-9.638,-1.659,3.382,-0.557,1.038,0.918
869.0,-9.638,-1.659,3.382,-0.557,1.038,0.918
872.0,-9.854,-1.527,3.303,-0.44,1.032,0.817
876.0,-9.854,-1.527,3.303,-0.44,1.032,0.817
880.0,-9.854,-1.527,3.303,-0.44,1.032,0.817
884.0,-9.998,-1.409,3.293,-0.351,1.02,0.717
888.0,-9.998,-1.409,3.293,-0.351,1.02,0.717
892.0,-10.113,-1.303,3.288,-0.351,1.0,0.61
895.0,-10.113,-1.303,3.288,-0.292,1.0,0.61
899.0,-10.113,-1.303,3.288,-0.292,1.0,0.61
903.0,-10.296,-1.177,3.228,-0.265,0.977,0.492
907.0,-10.296,-1.177,3.228,-0.265,0.977,0.492
911.0,-10.659,-0.853,3.273,-0.265,0.977,0.361
915.0,-10.659,-0.853,3.273,-0.291,0.972,0.361
919.0,-10.659,-0.853,3.273,-0.291,0.972,0.361
923.0,-11.304,-0.536,3.335,-0.4,0.989,0.216
927.0,-11.304,-0.536,3.335,-0.4,0.989,0.216
931.0,-12.245,-0.398,3.343,-0.4,0.989,0.216
935.0,-12.245,-0.398,3.343,-0.577,1.019,0.07
938.0,-12.245,-0.398,3.343,-0.577,1.019,0.07
942.0,-13.392,-0.31,3.431,-0.791,1.044,-0.056
946.0,-13.392,-0.31,3.431,-0.791,1.044,-0.056
950.0,-14.696,-0.543,3.513,-0.791,1.044,-0.056
954.0,-14.696,-0.543,3.513,-1.021,1.045,-0.149
958.0,-14.696,-0.543,3.513,-1.021,1.045,-0.149
962.0,-15.787,-1.058,3.631,-1.212,0.993,-0.199
966.0,-15.787,-1.058,3.631,-1.212,0.993,-0.199
970.0,-16.287,-1.599,3.797,-1.212,0.993,-0.205
974.0,-16.287,-1.599,3.797,-1.318,0.892,-0.205
978.0,-16.287,-1.599,3.797,-1.318,0.892,-0.205
982.0,-16.089,-2.291,3.883,-1.33,0.771,-0.175
986.0,-16.089,-2.291,3.883,-1.33,0.771,-0.175
990.0,-15.438,-3.035,3.833,-1.33,0.646,-0.122
994.0,-15.438,-3.035,3.833,-1.22,0.646,-0.122
998.0,-15.438,-3.035,3.833,-1.22,0.646,-0.122
1002.0,-14.708,-3.581,3.73,-0.983,0.532,-0.064
1006.0,-14.708,-3.581,3.73,-0.983,0.532,-0.064
1010.0,-13.971,-3.952,3.491,-0.666,0.435,-0.015
1014.0,-13.971,-3.952,3.491,-0.666,0.435,-0.015
1019.0,-13.971,-3.952,3.491,-0.666,0.435,-0.015
1023.0,-13.201,-4.113,3.315,-0.309,0.346,0.006
1027.0,-13.201,-4.113,3.315,-0.309,0.346,0.006
1031.0,-12.327,-4.097,3.186,0.064,0.257,-0.018
1035.0,-12.327,-4.097,3.186,0.064,0.257,-0.018
1039.0,-12.327,-4.097,3.186,0.064,0.257,-0.018
1043.0,-11.402,-3.949,3.081,0.436,0.152,-0.087
1047.0,-11.402,-3.949,3.081,0.436,0.152,-0.087
1051.0,-10.488,-3.725,2.949,0.801,0.034,-0.189
1055.0,-10.488,-3.725,2.949,0.801,0.034,-0.189
1059.0,-10.488,-3.725,2.726,0.801,0.034,-0.189
1063.0,-9.65,-3.452,2.726,1.154,-0.088,-0.318
1067.0,-9.65,-3.452,2.726,1.154,-0.088,-0.318
1071.0,-9.019,-3.162,2.398,1.49,-0.201,-0.453
1075.0,-9.019,-3.162,2.398,1.49,-0.201,-0.453
1079.0,-9.019,-2.895,1.979,1.49,-0.201,-0.453
1083.0,-8.697,-2.895,1.979,1.8,-0.293,-0.579
1087.0,-8.697,-2.895,1.979,1.8,-0.293,-0.579
1091.0,-8.809,-2.658,1.542,2.076,-0.353,-0.683
1095.0,-8.809,-2.658,1.542,2.076,-0.353,-0.683
1099.0,-9.392,-2.5,1.182,2.076,-0.353,-0.683
1102.0,-9.392,-2.5,1.182,2.311,-0.385,-0.754
1106.0,-9.392,-2.5,1.182,2.311,-0.385,-0.754
1110.0,-10.286,-2.425,0.974,2.505,-0.408,-0.791
1115.0,-10.286,-2.425,0.974,2.505,-0.408,-0.791
1119.0,-11.219,-2.432,0.89,2.505,-0.448,-0.799
1123.0,-11.219,-2.432,0.89,2.662,-0.448,-0.799
1127.0,-11.219,-2.432,0.89,2.662,-0.448,-0.799
1131.0,-12.062,-2.474,0.855,2.787,-0.516,-0.789
1135.0,-12.062,-2.474,0.855,2.787,-0.516,-0.789
1139.0,-12.692,-2.479,0.894,2.882,-0.612,-0.77
1143.0,-12.692,-2.479,0.894,2.882,-0.612,-0.77
1147.0,-12.692,-2.479,0.894,2.882,-0.612,-0.77
1151.0,-12.901,-2.423,0.918,2.947,-0.734,-0.742
1155.0,-12.901,-2.423,0.918,2.947,-0.734,-0.742
1159.0,-12.635,-2.294,0.906,2.977,-0.876,-0.715
1164.0,-12.635,-2.294,0.906,2.977,-0.876,-0.715
1168.0,-12.056,-2.121,0.845,2.977,-0.876,-0.715
1172.0,-12.056,-2.121,0.845,2.971,-1.019,-0.7
1176.0,-12.056,-2.121,0.845,2.971,-1.019,-0.7
1180.0,-11.378,-1.904,0.739,2.935,-1.151,-0.704
1184.0,-11.378,-1.904,0.739,2.935,-1.151,-0.704
1188.0,-10.754,-1.676,0.529,2.872,-1.263,-0.723
1192.0,-10.754,-1.676,0.529,2.872,-1.263,-0.723
1196.0,-10.754,-1.676,0.529,2.872,-1.263,-0.723
1200.0,-10.227,-1.406,0.333,2.78,-1.351,-0.751
1204.0,-10.227,-1.406,0.333,2.78,-1.351,-0.751
1208.0,-9.792,-1.192,0.178,2.662,-1.414,-0.778
1212.0,-9.792,-1.192,0.178,2.662,-1.414,-0.778
1216.0,-9.792,-1.192,0.178,2.662,-1.414,-0.778
1220.0,-9.427,-1.004,0.051,2.521,-1.461,-0.802
1224.0,-9.427,-1.004,0.051,2.521,-1.461,-0.802
1228.0,-9.147,-0.893,-0.06,2.362,-1.497,-0.822
1232.0,-9.147,-0.893,-0.06,2.362,-1.497,-0.822
1237.0,-9.01,-0.868,-0.113,2.362,-1.497,-0.822
1241.0,-9.01,-0.868,-0.113,2.191,-1.52,-0.836
1245.0,-9.01,-0.868,-0.113,2.191,-1.52,-0.836
1249.0,-9.042,-0.876,-0.164,2.016,-1.528,-0.843
1253.0,-9.042,-0.876,-0.164,2.016,-1.528,-0.843
1257.0,-9.189,-0.908,-0.136,1.833,-1.526,-0.842
1261.0,-9.189,-0.908,-0.136,1.833,-1.526,-0.842
1265.0,-9.189,-0.908,-0.136,1.833,-1.526,-0.842
1269.0,-9.346,-0.987,-0.111,1.65,-1.521,-0.828
1273.0,-9.346,-0.987,-0.111,1.65,-1.521,-0.828
1277.0,-9.47,-1.115,-0.068,1.47,-1.518,-0.802
1281.0,-9.47,-1.115,-0.068,1.47,-1.518,-0.802
1285.0,-9.47,-1.115,-0.068,1.47,-1.518,-0.802
1290.0,-9.62,-1.259,-0.008,1.3,-1.518,-0.768
1294.0,-9.62,-1.259,-0.008,1.3,-1.518,-0.768
1298.0,-9.767,-1.381,0.027,1.146,-1.516,-0.73
1302.0,-9.767,-1.381,0.027,1.146,-1.516,-0.73
1306.0,-9.865,-1.569,0.079,1.146,-1.516,-0.73
1310.0,-9.865,-1.569,0.079,1.008,-1.513,-0.685
1314.0,-9.865,-1.569,0.079,1.008,-1.513,-0.685
1318.0,-9.904,-1.638,0.069,0.886,-1.512,-0.634
1322.0,-9.904,-1.638,0.069,0.886,-1.512,-0.634
1326.0,-10.095,-1.701,0.051,0.886,-1.512,-0.584
1330.0,-10.095,-1.701,0.051,0.758,-1.509,-0.584
1334.0,-10.095,-1.701,0.051,0.758,-1.509,-0.584
1338.0,-10.422,-1.765,0.053,0.626,-1.49,-0.529
1342.0,-10.422,-1.765,0.053,0.626,-1.49,-0.529
1346.0,-10.641,-1.841,0.06,0.496,-1.469,-0.463
1350.0,-10.641,-1.841,0.06,0.496,-1.469,-0.463
1354.0,-10.641,-1.841,0.06,0.496,-1.469,-0.463
1358.0,-10.592,-1.911,0.039,0.368,-1.459,-0.393
1362.0,-10.592,-1.911,0.039,0.368,-1.459,-0.393
1366.0,-10.405,-1.964,-0.005,0.246,-1.457,-0.328
1371.0,-10.405,-1.964,-0.005,0.246,-1.457,-0.328
1375.0,-10.211,-1.988,-0.132,0.246,-1.457,-0.328
1379.0,-10.211,-1.988,-0.132,0.133,-1.45,-0.281
1383.0,-10.211,-1.988,-0.132,0.133,-1.45,-0.281
1387.0,-10.067,-1.978,-0.29,0.025,-1.427,-0.251
1391.0,-10.067,-1.978,-0.29,0.025,-1.427,-0.251
1396.0,-10.015,-1.948,-0.419,-0.082,-1.386,-0.231
1400.0,-10.015,-1.948,-0.419,-0.082,-1.386,-0.231
1404.0,-10.015,-1.948,-0.514,-0.082,-1.386,-0.231
1408.0,-10.012,-1.927,-0.514,-0.19,-1.33,-0.217
1413.0,-10.012,-1.927,-0.514,-0.19,-1.33,-0.217
1417.0,-10.053,-1.93,-0.584,-0.3,-1.263,-0.209
1421.0,-10.053,-1.93,-0.584,-0.3,-1.263,-0.209
1425.0,-10.156,-1.944,-0.635,-0.407,-1.186,-0.209
1430.0,-10.156,-1.944,-0.635,-0.407,-1.186,-0.209
1434.0,-10.156,-1.984,-0.596,-0.407,-1.186,-0.209
1438.0,-10.171,-1.984,-0.596,-0.51,-1.103,-0.216
1442.0,-10.171,-1.984,-0.596,-0.51,-1.103,-0.216
1447.0,-10.016,-2.009,-0.522,-0.604,-1.022,-0.23
1451.0,-10.016,-2.009,-0.522,-0.604,-1.022,-0.23
1455.0,-9.741,-2.058,-0.45,-0.685,-0.946,-0.253
1459.0,-9.741,-2.058,-0.45,-0.685,-0.946,-0.253
1464.0,-9.741,-2.09,-0.422,-0.685,-0.946,-0.253
1468.0,-9.384,-2.09,-0.422,-0.749,-0.873,-0.289
1472.0,-9.384,-2.09,-0.422,-0.749,-0.873,-0.289
1476.0,-9.065,-2.085,-0.451,-0.797,-0.797,-0.335
1480.0,-9.065,-2.085,-0.451,-0.797,-0.797,-0.335
1484.0,-8.821,-2.07,-0.467,-0.83,-0.709,-0.387
1489.0,-8.821,-2.07,-0.467,-0.83,-0.709,-0.387
1493.0,-8.821,-2.07,-0.467,-0.83,-0.709,-0.387
1497.0,-8.638,-2.073,-0.45,-0.848,-0.611,-0.438
1501.0,-8.638,-2.073,-0.45,-0.848,-0.611,-0.438
1505.0,-8.489,-2.097,-0.431,-0.853,-0.507,-0.483
1509.0,-8.489,-2.097,-0.431,-0.853,-0.507,-0.483
1514.0,-8.333,-2.158,-0.372,-0.853,-0.402,-0.516
1518.0,-8.333,-2.158,-0.372,-0.84,-0.402,-0.516
1522.0,-8.333,-2.158,-0.372,-0.84,-0.402,-0.516
1526.0,-8.153,-2.246,-0.306,-0.807,-0.305,-0.539
1530.0,-8.153,-2.246,-0.306,-0.807,-0.305,-0.539
1534.0,-7.952,-2.35,-0.243,-0.752,-0.214,-0.558
1539.0,-7.952,-2.35,-0.243,-0.752,-0.214,-0.558
1543.0,-7.719,-2.461,-0.206,-0.752,-0.214,-0.558
1547.0,-7.719,-2.461,-0.206,-0.673,-0.129,-0.569
1551.0,-7.719,-2.461,-0.206,-0.673,-0.129,-0.569
1555.0,-7.548,-2.547,-0.208,-0.573,-0.046,-0.574
1559.0,-7.548,-2.547,-0.208,-0.573,-0.046,-0.574
1564.0,-7.525,-2.63,-0.215,-0.453,0.043,-0.571
1568.0,-7.525,-2.63,-0.215,-0.453,0.043,-0.571
1572.0,-7.525,-2.63,-0.215,-0.453,0.043,-0.571
1576.0,-7.612,-2.71,-0.229,-0.317,0.136,-0.554
1580.0,-7.612,-2.71,-0.229,-0.317,0.136,-0.554
1584.0,-7.75,-2.796,-0.227,-0.166,0.23,-0.521
1588.0,-7.75,-2.796,-0.227,-0.166,0.23,-0.521
1592.0,-7.914,-2.871,-0.217,-0.166,0.23,-0.521
1596.0,-7.914,-2.871,-0.217,-0.003,0.319,-0.469
1600.0,-7.914,-2.871,-0.217,-0.003,0.319,-0.469
1604.0,-8.104,-2.938,-0.167,0.169,0.405,-0.399
1608.0,-8.104,-2.938,-0.167,0.169,0.405,-0.399
1612.0,-8.252,-3.009,-0.121,0.351,0.485,-0.312
1616.0,-8.252,-3.009,-0.121,0.351,0.485,-0.312
1620.0,-8.252,-3.009,-0.121,0.351,0.485,-0.312
1624.0,-8.314,-3.067,-0.072,0.541,0.556,-0.211
1628.0,-8.314,-3.067,-0.072,0.541,0.556,-0.211
1632.0,-8.301,-3.135,-0.011,0.735,0.617,-0.101
1636.0,-8.301,-3.135,-0.011,0.735,0.617,-0.101
1640.0,-8.301,-3.135,-0.011,0.735,0.617,-0.101
1644.0,-8.261,-3.144,0.005,0.93,0.672,0.014
1648.0,-8.261,-3.144,0.005,0.93,0.672,0.014
1652.0,-8.273,-3.119,-0.041,1.12,0.727,0.131
1656.0,-8.273,-3.119,-0.041,1.12,0.727,0.131
1660.0,-8.273,-3.119,-0.041,1.12,0.727,0.131
1664.0,-8.365,-3.057,-0.097,1.293,0.787,0.253
1668.0,-8.365,-3.057,-0.097,1.293,0.787,0.253
1671.0,-8.467,-2.981,-0.119,1.293,0.854,0.377
1675.0,-8.467,-2.981,-0.119,1.442,0.854,0.377
1679.0,-8.467,-2.981,-0.119,1.442,0.854,0.377
1683.0,-8.58,-2.926,-0.125,1.568,0.923,0.505
1687.0,-8.58,-2.926,-0.125,1.568,0.923,0.505
1691.0,-8.732,-2.88,-0.076,1.568,0.923,0.629
1695.0,-8.732,-2.88,-0.076,1.672,0.991,0.629
1699.0,-8.732,-2.88,-0.076,1.672,0.991,0.629
1703.0,-8.953,-2.834,-0.048,1.759,1.055,0.744
1707.0,-8.953,-2.834,-0.048,1.759,1.055,0.744
1710.0,-9.257,-2.798,-0.014,1.759,1.055,0.744
1714.0,-9.257,-2.798,-0.014,1.834,1.121,0.846
1718.0,-9.257,-2.798,-0.014,1.834,1.121,0.846
1722.0,-9.618,-2.742,0.018,1.901,1.193,0.933
1726.0,-9.618,-2.742,0.018,1.901,1.193,0.933
1730.0,-9.618,-2.742,0.086,1.901,1.193,0.933
1734.0,-10.049,-2.696,0.086,1.964,1.272,1.002
1738.0,-10.049,-2.696,0.086,1.964,1.272,1.002
1741.0,-10.623,-2.653,0.227,2.028,1.354,1.058
1745.0,-10.623,-2.653,0.227,2.028,1.354,1.058
1749.0,-10.623,-2.653,0.227,2.028,1.354,1.058
1753.0,-11.246,-2.623,0.374,2.098,1.428,1.102
1757.0,-11.246,-2.623,0.374,2.098,1.428,1.102
1761.0,-11.746,-2.587,0.528,2.174,1.484,1.132
1765.0,-11.746,-2.587,0.528,2.174,1.484,1.132
1769.0,-11.746,-2.587,0.528,2.174,1.484,1.132
1773.0,-12.072,-2.533,0.657,2.253,1.518,1.147
1777.0,-12.072,-2.533,0.657,2.253,1.518,1.147
1781.0,-12.412,-2.458,0.7,2.333,1.533,1.141
1784.0,-12.412,-2.458,0.7,2.333,1.533,1.141
1788.0,-12.412,-2.458,0.7,2.333,1.533,1.141
1792.0,-12.843,-2.369,0.673,2.412,1.542,1.113
1796.0,-12.843,-2.369,0.673,2.412,1.542,1.113
1800.0,-13.028,-2.167,0.521,2.484,1.546,1.065
1804.0,-13.028,-2.167,0.521,2.484,1.546,1.065
1808.0,-13.028,-2.167,0.521,2.484,1.546,1.065
1812.0,-12.928,-1.9,0.342,2.538,1.545,1.006
1816.0,-12.928,-1.9,0.342,2.538,1.545,1.006
1820.0,-12.852,-1.621,0.197,2.566,1.554,0.938
1823.0,-12.852,-1.621,0.197,2.566,1.554,0.938
1827.0,-12.852,-1.621,0.197,2.566,1.554,0.938
1831.0,-13.095,-1.353,0.062,2.567,1.59,0.865
1835.0,-13.095,-1.353,0.062,2.567,1.59,0.865
1839.0,-13.63,-1.117,0.03,2.567,1.59,0.799
1843.0,-13.63,-1.117,0.03,2.539,1.648,0.799
1847.0,-13.63,-1.117,0.03,2.539,1.648,0.799
1851.0,-14.17,-0.967,0.191,2.482,1.709,0.759
1855.0,-14.17,-0.967,0.191,2.482,1.709,0.759
1859.0,-14.557,-0.87,0.472,2.482,1.709,0.759
1863.0,-14.557,-0.87,0.472,2.397,1.75,0.749
1866.0,-14.557,-0.87,0.472,2.397,1.75,0.749
1870.0,-14.608,-0.832,0.752,2.289,1.758,0.761
1874.0,-14.608,-0.832,0.752,2.289,1.758,0.761
1878.0,-14.217,-0.778,1.038,2.289,1.758,0.761
1882.0,-14.217,-0.778,1.038,2.159,1.739,0.777
1886.0,-14.217,-0.778,1.038,2.159,1.739,0.777
1890.0,-13.507,-0.73,1.274,2.012,1.697,0.775
1894.0,-13.507,-0.73,1.274,2.012,1.697,0.775
1898.0,-13.507,-0.73,1.432,2.012,1.697,0.775
1902.0,-12.741,-0.61,1.432,1.852,1.638,0.742
1906.0,-12.741,-0.61,1.432,1.852,1.638,0.742
1909.0,-12.045,-0.429,1.519,1.685,1.576,0.681
1913.0,-12.045,-0.429,1.519,1.685,1.576,0.681
1917.0,-12.045,-0.429,1.519,1.685,1.576,0.681
1921.0,-11.515,-0.249,1.562,1.514,1.51,0.6
1925.0,-11.515,-0.249,1.562,1.514,1.51,0.6
1929.0,-11.157,-0.082,1.594,1.344,1.44,0.509
1933.0,-11.157,-0.082,1.594,1.344,1.44,0.509
1937.0,-11.157,-0.082,1.594,1.344,1.44,0.509
1941.0,-11.0,0.005,1.731,1.184,1.366,0.417
1945.0,-11.0,0.005,1.731,1.184,1.366,0.417
1948.0,-11.014,-0.042,1.998,1.052,1.28,0.332
1952.0,-11.014,-0.042,1.998,1.052,1.28,0.332
1956.0,-11.014,-0.042,1.998,1.052,1.28,0.332
1960.0,-11.066,-0.338,2.252,0.979,1.162,0.258
1964.0,-11.066,-0.338,2.252,0.979,1.162,0.258
1968.0,-11.055,-0.656,2.451,0.983,1.009,0.192
1972.0,-11.055,-0.656,2.451,0.983,1.009,0.192
1976.0,-11.055,-0.656,2.451,0.983,1.009,0.192
1980.0,-10.9,-0.785,2.47,1.049,0.824,0.131
1983.0,-10.9,-0.785,2.47,1.049,0.824,0.131
1987.0,-10.777,-0.685,2.262,1.049,0.635,0.066
1991.0,-10.777,-0.685,2.262,1.144,0.635,0.066
1995.0,-10.777,-0.685,2.262,1.144,0.635,0.066
1999.0,-10.765,-0.217,1.068,1.251,0.481,0.008
2003.0,-10.765,-0.217,1.068,1.251,0.481,0.008
2007.0,-10.889,-0.642,1.42,1.251,0.481,-0.059
2011.0,-10.889,-0.642,1.42,1.376,0.429,-0.059
2015.0,-10.889,-0.642,1.42,1.376,0.429,-0.059
2019.0,-12.087,1.988,3.699,1.389,0.226,-0.124
2023.0,-12.087,1.988,3.699,1.389,0.226,-0.124
2027.0,-14.243,4.217,5.18,1.389,-0.204,-0.017
2031.0,-14.243,4.217,5.18,1.221,-0.204,-0.017
2035.0,-14.243,4.217,5.18,1.221,-0.204,-0.017
2039.0,-15.251,4.841,5.581,0.893,-0.654,0.119
2043.0,-15.251,4.841,5.581,0.893,-0.654,0.119
2047.0,-14.168,4.804,5.881,0.893,-1.032,0.175
2050.0,-14.168,4.804,5.881,0.467,-1.032,0.175
2054.0,-14.168,4.804,5.881,0.467,-1.032,0.175
2058.0,-11.917,4.208,5.604,-0.019,-1.323,0.152
2062.0,-11.917,4.208,5.604,-0.019,-1.323,0.152
2066.0,-10.091,3.735,5.228,-0.019,-1.476,0.058
2070.0,-10.091,3.735,5.228,-0.496,-1.476,0.058
2074.0,-10.091,3.735,5.228,-0.496,-1.476,0.058
2078.0,-8.934,3.268,4.81,-0.908,-1.505,-0.079
2082.0,-8.934,3.268,4.81,-0.908,-1.505,-0.079
2086.0,-8.156,2.623,4.199,-1.242,-1.433,-0.26
2090.0,-8.156,2.623,4.199,-1.242,-1.433,-0.26
2094.0,-8.156,2.623,4.199,-1.242,-1.433,-0.26
2098.0,-7.624,1.926,3.624,-1.478,-1.299,-0.478
2102.0,-7.624,1.926,3.624,-1.478,-1.299,-0.478
2106.0,-7.065,1.209,3.19,-1.578,-1.15,-0.701
2110.0,-7.065,1.209,3.19,-1.578,-1.15,-0.701
2114.0,-7.065,1.209,3.19,-1.578,-1.15,-0.701
2118.0,-6.743,0.589,2.669,-1.522,-0.997,-0.918
2122.0,-6.743,0.589,2.669,-1.522,-0.997,-0.918
2126.0,-6.697,0.367,2.227,-1.38,-0.845,-1.094
2130.0,-6.697,0.367,2.227,-1.38,-0.845,-1.094
2134.0,-6.697,0.367,2.227,-1.38,-0.845,-1.094
2138.0,-6.575,0.252,1.811,-1.256,-0.724,-1.197
2142.0,-6.575,0.252,1.811,-1.256,-0.724,-1.197
2146.0,-6.41,0.248,1.54,-1.196,-0.623,-1.265
2150.0,-6.41,0.248,1.54,-1.196,-0.623,-1.265
2154.0,-6.41,0.248,1.54,-1.196,-0.623,-1.265
2158.0,-6.217,0.174,1.304,-1.196,-0.527,-1.321
2162.0,-6.217,0.174,1.304,-1.196,-0.527,-1.321
2166.0,-6.118,0.003,1.173,-1.23,-0.431,-1.358
2170.0,-6.118,0.003,1.173,-1.23,-0.431,-1.358
2174.0,-6.118,0.003,1.188,-1.23,-0.431,-1.358
2178.0,-6.136,-0.203,1.188,-1.269,-0.347,-1.364
2182.0,-6.136,-0.203,1.188,-1.269,-0.347,-1.364
2186.0,-6.2,-0.492,1.216,-1.282,-0.286,-1.33
2190.0,-6.2,-0.492,1.216,-1.282,-0.286,-1.33
2194.0,-6.308,-0.834,1.202,-1.282,-0.286,-1.33
2198.0,-6.308,-0.834,1.202,-1.248,-0.246,-1.263
2202.0,-6.308,-0.834,1.202,-1.248,-0.246,-1.263
2207.0,-6.407,-1.171,1.245,-1.162,-0.22,-1.171
2211.0,-6.407,-1.171,1.245,-1.162,-0.22,-1.171
2215.0,-6.443,-1.45,1.308,-1.029,-0.211,-1.057
2219.0,-6.443,-1.45,1.308,-1.029,-0.211,-1.057
2223.0,-6.443,-1.45,1.308,-1.029,-0.211,-1.057
2227.0,-6.414,-1.694,1.356,-0.859,-0.218,-0.928
2231.0,-6.414,-1.694,1.356,-0.859,-0.218,-0.928
2235.0,-6.303,-1.863,1.406,-0.668,-0.233,-0.786
2239.0,-6.303,-1.863,1.406,-0.668,-0.233,-0.786
2243.0,-6.303,-1.863,1.454,-0.668,-0.233,-0.786
2247.0,-6.17,-1.987,1.454,-0.468,-0.248,-0.639
2251.0,-6.17,-1.987,1.454,-0.468,-0.248,-0.639
2256.0,-6.073,-2.075,1.509,-0.268,-0.266,-0.496
2260.0,-6.073,-2.075,1.509,-0.268,-0.266,-0.496
2264.0,-6.083,-2.156,1.56,-0.268,-0.291,-0.365
2268.0,-6.083,-2.156,1.56,-0.074,-0.291,-0.365
2272.0,-6.083,-2.156,1.56,-0.074,-0.291,-0.365
2276.0,-6.229,-2.185,1.574,0.11,-0.326,-0.257
2280.0,-6.229,-2.185,1.574,0.11,-0.326,-0.257
2284.0,-6.413,-2.127,1.507,0.281,-0.368,-0.186
2288.0,-6.413,-2.127,1.507,0.281,-0.368,-0.186
2292.0,-6.413,-2.127,1.507,0.281,-0.368,-0.186
2296.0,-6.555,-1.962,1.43,0.433,-0.412,-0.149
2300.0,-6.555,-1.962,1.43,0.433,-0.412,-0.149
2304.0,-6.739,-1.724,1.326,0.559,-0.461,-0.142
2308.0,-6.739,-1.724,1.326,0.559,-0.461,-0.142
2312.0,-6.739,-1.724,1.326,0.559,-0.461,-0.142
2316.0,-7.009,-1.498,1.222,0.661,-0.504,-0.155
2320.0,-7.009,-1.498,1.222,0.661,-0.504,-0.155
2324.0,-7.446,-1.283,1.1,0.743,-0.542,-0.18
2328.0,-7.446,-1.283,1.1,0.743,-0.542,-0.18
2332.0,-7.446,-1.283,1.1,0.743,-0.542,-0.18
2336.0,-8.094,-1.07,0.958,0.804,-0.575,-0.215
2340.0,-8.094,-1.07,0.958,0.804,-0.575,-0.215
2344.0,-8.825,-0.892,0.802,0.85,-0.603,-0.253
2348.0,-8.825,-0.892,0.802,0.85,-0.603,-0.253
2352.0,-8.825,-0.892,0.595,0.85,-0.603,-0.253
2356.0,-9.631,-0.706,0.595,0.88,-0.627,-0.293
2360.0,-9.631,-0.706,0.595,0.88,-0.627,-0.293
2364.0,-10.394,-0.43,0.38,0.89,-0.649,-0.336
2368.0,-10.394,-0.43,0.38,0.89,-0.649,-0.336
2372.0,-11.083,-0.243,0.274,0.89,-0.649,-0.336
2376.0,-11.083,-0.243,0.274,0.877,-0.664,-0.377
2380.0,-11.083,-0.243,0.274,0.877,-0.664,-0.377
2384.0,-11.431,-0.03,0.222,0.85,-0.671,-0.413
2388.0,-11.431,-0.03,0.222,0.85,-0.671,-0.413
2392.0,-11.594,0.199,0.232,0.797,-0.678,-0.464
2396.0,-11.594,0.199,0.232,0.797,-0.678,-0.464
2400.0,-11.594,0.199,0.232,0.797,-0.678,-0.464
2404.0,-11.633,0.37,0.288,0.72,-0.672,-0.526
2408.0,-11.633,0.37,0.288,0.72,-0.672,-0.526
2412.0,-11.531,0.495,0.367,0.629,-0.647,-0.587
2416.0,-11.531,0.495,0.367,0.629,-0.647,-0.587
2420.0,-11.531,0.495,0.367,0.629,-0.647,-0.587
2424.0,-11.349,0.583,0.449,0.527,-0.606,-0.641
2428.0,-11.349,0.583,0.449,0.527,-0.606,-0.641
2432.0,-11.088,0.67,0.51,0.414,-0.547,-0.689
2436.0,-11.088,0.67,0.51,0.414,-0.547,-0.689
2440.0,-11.088,0.67,0.51,0.414,-0.547,-0.689
2444.0,-10.781,0.745,0.578,0.295,-0.476,-0.731
2448.0,-10.781,0.745,0.578,0.295,-0.476,-0.731
2452.0,-10.473,0.806,0.661,0.172,-0.392,-0.769
2456.0,-10.473,0.806,0.661,0.172,-0.392,-0.769
2460.0,-10.473,0.806,0.661,0.172,-0.392,-0.769
2464.0,-10.223,0.879,0.7,0.048,-0.299,-0.799
2468.0,-10.223,0.879,0.7,0.048,-0.299,-0.799
2472.0,-10.087,0.978,0.729,-0.075,-0.189,-0.813
2476.0,-10.087,0.978,0.729,-0.075,-0.189,-0.813
2480.0,-10.087,1.022,0.817,-0.075,-0.189,-0.813
2484.0,-10.014,1.022,0.817,-0.197,-0.061,-0.804
2489.0,-10.014,1.022,0.817,-0.197,-0.061,-0.804
2493.0,-9.934,0.998,0.991,-0.316,0.072,-0.767
2496.0,-9.934,0.998,0.991,-0.316,0.072,-0.767
2500.0,-9.763,0.862,1.195,-0.316,0.072,-0.707
2504.0,-9.763,0.862,1.195,-0.429,0.195,-0.707
2508.0,-9.763,0.862,1.195,-0.429,0.195,-0.707
2512.0,-9.597,0.683,1.36,-0.531,0.304,-0.634
2516.0,-9.597,0.683,1.36,-0.531,0.304,-0.634
2520.0,-9.54,0.462,1.429,-0.531,0.304,-0.634
2524.0,-9.54,0.462,1.429,-0.624,0.402,-0.561
2528.0,-9.54,0.462,1.429,-0.624,0.402,-0.561
2532.0,-9.62,0.267,1.392,-0.709,0.495,-0.495
2536.0,-9.62,0.267,1.392,-0.709,0.495,-0.495
2539.0,-9.62,0.098,1.314,-0.709,0.495,-0.495
2543.0,-9.802,0.098,1.314,-0.789,0.589,-0.429
2547.0,-9.802,0.098,1.314,-0.789,0.589,-0.429
2551.0,-10.088,-0.044,1.217,-0.871,0.694,-0.352
2555.0,-10.088,-0.044,1.217,-0.871,0.694,-0.352
2559.0,-10.423,-0.176,1.176,-0.871,0.694,-0.352
2563.0,-10.423,-0.176,1.176,-0.957,0.815,-0.251
2568.0,-10.423,-0.176,1.176,-0.957,0.815,-0.251
2572.0,-10.737,-0.33,1.259,-1.046,0.953,-0.114
2576.0,-10.737,-0.33,1.259,-1.046,0.953,-0.114
2580.0,-10.989,-0.52,1.477,-1.132,1.091,0.064
2584.0,-10.989,-0.52,1.477,-1.132,1.091,0.064
2588.0,-10.989,-0.52,1.477,-1.132,1.091,0.064
2592.0,-11.195,-0.839,1.604,-1.203,1.216,0.273
2596.0,-11.195,-0.839,1.604,-1.203,1.216,0.273
2600.0,-11.477,-1.017,1.913,-1.252,1.319,0.495
2604.0,-11.477,-1.017,1.913,-1.252,1.319,0.495
2608.0,-11.477,-1.017,1.913,-1.252,1.319,0.495
2612.0,-11.78,-1.155,2.587,-1.272,1.357,0.724
2616.0,-11.78,-1.155,2.587,-1.272,1.357,0.724
2620.0,-11.863,-1.718,3.206,-1.25,1.303,0.934
2624.0,-11.863,-1.718,3.206,-1.25,1.303,0.934
2628.0,-11.863,-1.718,3.206,-1.25,1.303,0.934
2632.0,-11.565,-2.251,3.352,-1.162,1.195,1.081
2636.0,-11.565,-2.251,3.352,-1.162,1.195,1.081
2640.0,-11.04,-2.15,3.217,-1.024,1.093,1.186
2644.0,-11.04,-2.15,3.217,-1.024,1.093,1.186
2648.0,-11.04,-2.15,3.217,-1.024,1.093,1.186
2652.0,-10.534,-2.078,3.265,-0.873,0.988,1.286
2656.0,-10.534,-2.078,3.265,-0.873,0.988,1.286
2660.0,-10.054,-2.346,3.202,-0.733,0.866,1.354
2664.0,-10.054,-2.346,3.202,-0.733,0.866,1.354
2668.0,-10.054,-2.346,3.067,-0.733,0.866,1.354
2672.0,-9.68,-2.307,3.067,-0.6,0.736,1.36
2675.0,-9.68,-2.307,3.067,-0.6,0.736,1.36
2679.0,-9.247,-2.137,2.664,-0.477,0.62,1.324
2683.0,-9.247,-2.137,2.664,-0.477,0.62,1.324
2687.0,-9.247,-2.137,2.664,-0.477,0.62,1.324
2691.0,-8.916,-2.102,2.175,-0.365,0.545,1.278
2695.0,-8.916,-2.102,2.175,-0.365,0.545,1.278
2699.0,-8.946,-2.232,1.785,-0.253,0.512,1.235
2703.0,-8.946,-2.232,1.785,-0.253,0.512,1.235
2707.0,-8.946,-2.232,1.785,-0.253,0.512,1.235
2711.0,-9.361,-2.334,1.393,-0.142,0.514,1.209
2715.0,-9.361,-2.334,1.393,-0.142,0.514,1.209
2718.0,-10.058,-2.441,1.108,-0.03,0.542,1.225
2722.0,-10.058,-2.441,1.108,-0.03,0.542,1.225
2726.0,-10.058,-2.441,1.108,-0.03,0.542,1.225
2730.0,-10.936,-2.739,1.088,0.089,0.571,1.295
2734.0,-10.936,-2.739,1.088,0.089,0.571,1.295
2738.0,-11.859,-3.29,1.293,0.23,0.568,1.402
2742.0,-11.859,-3.29,1.293,0.23,0.568,1.402
2746.0,-11.859,-3.29,1.293,0.23,0.568,1.402
2750.0,-12.677,-3.916,1.627,0.401,0.499,1.512
2754.0,-12.677,-3.916,1.627,0.401,0.499,1.512
2758.0,-12.943,-4.389,1.765,0.602,0.355,1.592
2762.0,-12.943,-4.389,1.765,0.602,0.355,1.592
2766.0,-12.943,-4.389,1.765,0.602,0.355,1.592
2769.0,-12.578,-4.594,1.804,0.811,0.163,1.616
2773.0,-12.578,-4.594,1.804,0.811,0.163,1.616
2777.0,-11.805,-4.528,1.714,1.001,-0.033,1.575
2781.0,-11.805,-4.528,1.714,1.001,-0.033,1.575
2785.0,-11.805,-4.528,1.714,1.001,-0.033,1.575
2789.0,-10.782,-4.305,1.282,1.149,-0.196,1.478
2793.0,-10.782,-4.305,1.282,1.149,-0.196,1.478
2797.0,-9.721,-4.01,0.85,1.241,-0.3,1.332
2801.0,-9.721,-4.01,0.85,1.241,-0.3,1.332
2805.0,-9.721,-4.01,0.85,1.241,-0.3,1.332
2809.0,-8.778,-3.735,0.453,1.277,-0.341,1.149
2813.0,-8.778,-3.735,0.453,1.277,-0.341,1.149
2817.0,-8.049,-3.483,0.24,1.271,-0.332,0.936
2821.0,-8.049,-3.483,0.24,1.271,-0.332,0.936
2825.0,-8.049,-3.483,0.24,1.271,-0.332,0.936
2829.0,-7.664,-3.22,0.315,1.235,-0.296,0.705
2832.0,-7.664,-3.22,0.315,1.235,-0.296,0.705
2836.0,-7.592,-2.943,0.562,1.235,-0.269,0.48
2840.0,-7.592,-2.943,0.562,1.188,-0.269,0.48
2844.0,-7.592,-2.943,0.562,1.188,-0.269,0.48
2848.0,-7.758,-2.687,0.763,1.139,-0.272,0.285
2852.0,-7.758,-2.687,0.763,1.139,-0.272,0.285
2856.0,-8.049,-2.454,0.871,1.139,-0.272,0.134
2860.0,-8.049,-2.454,0.871,1.097,-0.304,0.134
2864.0,-8.049,-2.454,0.871,1.097,-0.304,0.134
2868.0,-8.359,-2.293,0.901,1.061,-0.35,0.031
2871.0,-8.359,-2.293,0.901,1.061,-0.35,0.031
2875.0,-8.644,-2.234,0.922,1.061,-0.35,0.031
2879.0,-8.644,-2.234,0.922,1.03,-0.395,-0.034
2883.0,-8.644,-2.234,0.922,1.03,-0.395,-0.034
2887.0,-8.921,-2.247,0.94,0.992,-0.431,-0.076
2891.0,-8.921,-2.247,0.94,0.992,-0.431,-0.076
2895.0,-9.226,-2.303,0.933,0.992,-0.431,-0.108
2899.0,-9.226,-2.303,0.933,0.941,-0.463,-0.108
2903.0,-9.226,-2.303,0.933,0.941,-0.463,-0.108
2907.0,-9.612,-2.386,0.93,0.872,-0.495,-0.14
2911.0,-9.612,-2.386,0.93,0.872,-0.495,-0.14
2915.0,-10.122,-2.48,0.924,0.872,-0.531,-0.179
2919.0,-10.122,-2.48,0.924,0.787,-0.531,-0.179
2923.0,-10.122,-2.48,0.924,0.787,-0.531,-0.179
2927.0,-10.799,-2.581,0.819,0.689,-0.574,-0.228
2932.0,-10.799,-2.581,0.819,0.689,-0.574,-0.228
2936.0,-11.542,-2.617,0.59,0.578,-0.611,-0.295
2940.0,-11.542,-2.617,0.59,0.578,-0.611,-0.295
2944.0,-11.542,-2.617,0.59,0.578,-0.611,-0.295
2948.0,-12.23,-2.579,0.375,0.454,-0.631,-0.379
2952.0,-12.23,-2.579,0.375,0.454,-0.631,-0.379
2956.0,-12.63,-2.482,0.357,0.318,-0.644,-0.475
2960.0,-12.63,-2.482,0.357,0.318,-0.644,-0.475
2964.0,-12.629,-2.36,0.498,0.318,-0.644,-0.475
2968.0,-12.629,-2.36,0.498,0.178,-0.668,-0.572
2972.0,-12.629,-2.36,0.498,0.178,-0.668,-0.572
2976.0,-12.414,-2.23,0.682,0.047,-0.712,-0.667
2981.0,-12.414,-2.23,0.682,0.047,-0.712,-0.667
2985.0,-12.176,-2.072,0.812,-0.061,-0.768,-0.759
2989.0,-12.176,-2.072,0.812,-0.061,-0.768,-0.759
2993.0,-12.176,-2.072,0.812,-0.061,-0.768,-0.759
2997.0,-11.881,-1.9,0.885,-0.14,-0.83,-0.84
