deltaTime,Acc_X,Acc_Y,Acc_Z,Gyro_X,Gyro_Y,Gyro_Z
0.0,-8.278,-4.11,2.838,1.208,-0.039,0.221
3.0,-8.278,-4.11,2.838,1.208,-0.039,0.221
6.0,-8.278,-4.11,2.838,1.208,-0.039,0.221
9.0,-7.844,-3.786,2.783,1.224,-0.025,0.198
12.0,-7.844,-3.786,2.783,1.224,-0.025,0.198
15.0,-7.844,-3.786,2.783,1.224,-0.025,0.198
18.0,-7.209,-3.686,2.581,1.224,-0.025,0.198
21.0,-7.209,-3.686,2.581,1.192,-0.008,0.163
24.0,-7.209,-3.686,2.581,1.192,-0.008,0.163
27.0,-7.209,-3.686,2.581,1.192,-0.008,0.163
30.0,-6.726,-3.815,2.476,1.159,0.027,0.134
33.0,-6.726,-3.815,2.476,1.159,0.027,0.134
36.0,-6.726,-3.815,2.476,1.159,0.027,0.134
40.0,-6.693,-3.89,2.479,1.161,0.096,0.104
43.0,-6.693,-3.89,2.479,1.161,0.096,0.104
47.0,-6.693,-3.89,2.479,1.161,0.096,0.104
51.0,-7.012,-3.66,2.573,1.169,0.175,0.065
54.0,-7.012,-3.66,2.573,1.169,0.175,0.065
58.0,-7.377,-3.196,2.667,1.169,0.175,0.015
62.0,-7.377,-3.196,2.667,1.124,0.235,0.015
65.0,-7.377,-3.196,2.667,1.124,0.235,0.015
69.0,-7.708,-3.011,2.76,0.999,0.271,-0.026
73.0,-7.708,-3.011,2.76,0.999,0.271,-0.026
76.0,-7.708,-3.011,2.76,0.999,0.271,-0.026
80.0,-7.892,-3.101,2.923,0.844,0.289,-0.039
84.0,-7.892,-3.101,2.923,0.844,0.289,-0.039
88.0,-7.849,-3.296,3.051,0.844,0.289,-0.045
91.0,-7.849,-3.296,3.051,0.701,0.298,-0.045
95.0,-7.849,-3.296,3.051,0.701,0.298,-0.045
99.0,-7.716,-3.519,3.081,0.583,0.302,-0.066
102.0,-7.716,-3.519,3.081,0.583,0.302,-0.066
106.0,-7.716,-3.519,3.081,0.583,0.302,-0.066
110.0,-7.704,-3.559,3.078,0.492,0.316,-0.092
114.0,-7.704,-3.559,3.078,0.492,0.316,-0.092
118.0,-7.828,-3.443,3.072,0.403,0.336,-0.115
122.0,-7.828,-3.443,3.072,0.403,0.336,-0.115
125.0,-7.828,-3.443,3.072,0.403,0.336,-0.115
129.0,-7.894,-3.336,3.061,0.304,0.35,-0.138
133.0,-7.894,-3.336,3.061,0.304,0.35,-0.138
137.0,-7.993,-3.173,3.132,0.304,0.35,-0.153
141.0,-7.993,-3.173,3.132,0.204,0.368,-0.153
145.0,-7.993,-3.173,3.132,0.204,0.368,-0.153
148.0,-8.088,-2.928,3.26,0.095,0.386,-0.163
152.0,-8.088,-2.928,3.26,0.095,0.386,-0.163
156.0,-8.088,-2.928,3.457,0.095,0.386,-0.163
160.0,-8.079,-2.624,3.457,-0.031,0.4,-0.177
164.0,-8.079,-2.624,3.457,-0.031,0.4,-0.177
168.0,-8.132,-2.383,3.725,-0.178,0.411,-0.196
172.0,-8.132,-2.383,3.725,-0.178,0.411,-0.196
175.0,-8.132,-2.383,3.725,-0.178,0.411,-0.196
179.0,-8.203,-2.137,4.028,-0.335,0.418,-0.216
183.0,-8.203,-2.137,4.028,-0.335,0.418,-0.216
187.0,-8.322,-2.252,4.491,-0.497,0.438,-0.229
191.0,-8.322,-2.252,4.491,-0.497,0.438,-0.229
195.0,-8.322,-2.252,4.491,-0.497,0.438,-0.229
199.0,-8.241,-2.399,4.926,-0.61,0.467,-0.233
203.0,-8.241,-2.399,4.926,-0.61,0.467,-0.233
207.0,-8.168,-2.623,5.106,-0.652,0.483,-0.221
211.0,-8.168,-2.623,5.106,-0.652,0.483,-0.221
214.0,-8.168,-2.623,5.106,-0.652,0.483,-0.221
218.0,-8.422,-2.983,4.959,-0.625,0.457,-0.188
222.0,-8.422,-2.983,4.959,-0.625,0.457,-0.188
226.0,-8.824,-3.322,4.786,-0.521,0.345,-0.117
230.0,-8.824,-3.322,4.786,-0.521,0.345,-0.117
234.0,-8.824,-3.322,4.786,-0.521,0.345,-0.117
238.0,-9.136,-3.522,4.526,-0.351,0.204,-0.044
242.0,-9.136,-3.522,4.526,-0.351,0.204,-0.044
246.0,-9.295,-3.481,4.03,-0.351,0.089,-0.004
250.0,-9.295,-3.481,4.03,-0.135,0.089,-0.004
254.0,-9.295,-3.481,4.03,-0.135,0.089,-0.004
257.0,-9.209,-3.193,3.335,0.083,-0.006,0.016
261.0,-9.209,-3.193,3.335,0.083,-0.006,0.016
265.0,-9.017,-2.761,2.643,0.083,-0.006,0.016
269.0,-9.017,-2.761,2.643,0.254,-0.072,0.032
273.0,-9.017,-2.761,2.643,0.254,-0.072,0.032
277.0,-8.883,-2.524,2.151,0.365,-0.085,0.061
280.0,-8.883,-2.524,2.151,0.365,-0.085,0.061
284.0,-8.883,-2.524,2.151,0.365,-0.085,0.061
288.0,-8.955,-2.357,1.939,0.442,-0.053,0.107
292.0,-8.955,-2.357,1.939,0.442,-0.053,0.107
296.0,-9.077,-2.204,1.841,0.499,-0.01,0.164
299.0,-9.077,-2.204,1.841,0.499,-0.01,0.164
303.0,-9.077,-2.204,1.841,0.499,-0.01,0.164
307.0,-9.191,-2.044,1.734,0.539,0.025,0.228
311.0,-9.191,-2.044,1.734,0.539,0.025,0.228
315.0,-9.401,-1.921,1.743,0.539,0.025,0.298
318.0,-9.401,-1.921,1.743,0.557,0.058,0.298
322.0,-9.401,-1.921,1.743,0.557,0.058,0.298
326.0,-9.656,-1.804,1.738,0.557,0.087,0.375
329.0,-9.656,-1.804,1.738,0.557,0.087,0.375
333.0,-9.656,-1.804,1.738,0.557,0.087,0.375
337.0,-9.885,-1.711,1.697,0.54,0.116,0.466
341.0,-9.885,-1.711,1.697,0.54,0.116,0.466
344.0,-10.197,-1.661,1.72,0.54,0.148,0.568
348.0,-10.197,-1.661,1.72,0.505,0.148,0.568
352.0,-10.197,-1.661,1.72,0.505,0.148,0.568
356.0,-10.497,-1.643,1.723,0.455,0.18,0.676
360.0,-10.497,-1.643,1.723,0.455,0.18,0.676
364.0,-10.497,-1.64,1.674,0.455,0.18,0.676
367.0,-10.67,-1.64,1.674,0.396,0.207,0.787
371.0,-10.67,-1.64,1.674,0.396,0.207,0.787
375.0,-10.763,-1.657,1.677,0.328,0.238,0.897
379.0,-10.763,-1.657,1.677,0.328,0.238,0.897
383.0,-10.763,-1.657,1.677,0.328,0.238,0.897
386.0,-10.885,-1.734,1.687,0.252,0.279,1.003
390.0,-10.885,-1.734,1.687,0.252,0.279,1.003
394.0,-10.963,-1.804,1.669,0.178,0.328,1.101
398.0,-10.963,-1.804,1.669,0.178,0.328,1.101
402.0,-10.963,-1.804,1.669,0.178,0.328,1.101
406.0,-10.851,-1.85,1.624,0.112,0.381,1.191
409.0,-10.851,-1.85,1.624,0.112,0.381,1.191
413.0,-10.722,-1.868,1.604,0.112,0.381,1.191
417.0,-10.722,-1.868,1.604,0.056,0.436,1.28
421.0,-10.722,-1.868,1.604,0.056,0.436,1.28
425.0,-10.832,-1.932,1.488,0.019,0.497,1.372
428.0,-10.832,-1.932,1.488,0.019,0.497,1.372
432.0,-10.832,-1.932,1.488,0.019,0.497,1.372
436.0,-11.031,-1.981,1.257,0.005,0.572,1.472
440.0,-11.031,-1.981,1.257,0.005,0.572,1.472
444.0,-11.237,-2.085,1.105,0.014,0.658,1.597
448.0,-11.237,-2.085,1.105,0.014,0.658,1.597
451.0,-11.237,-2.085,1.105,0.014,0.658,1.597
455.0,-11.486,-2.208,1.064,0.044,0.739,1.744
459.0,-11.486,-2.208,1.064,0.044,0.739,1.744
463.0,-11.763,-2.298,1.111,0.044,0.813,1.9
467.0,-11.763,-2.298,1.111,0.097,0.813,1.9
470.0,-11.763,-2.298,1.111,0.097,0.813,1.9
474.0,-11.887,-2.341,1.233,0.169,0.868,2.057
478.0,-11.887,-2.341,1.233,0.169,0.868,2.057
482.0,-11.887,-2.341,1.434,0.169,0.868,2.057
486.0,-11.951,-2.324,1.434,0.246,0.904,2.203
490.0,-11.951,-2.324,1.434,0.246,0.904,2.203
493.0,-12.244,-2.279,1.604,0.321,0.928,2.332
497.0,-12.244,-2.279,1.604,0.321,0.928,2.332
501.0,-12.244,-2.279,1.604,0.321,0.928,2.332
505.0,-12.744,-2.224,1.708,0.39,0.947,2.446
509.0,-12.744,-2.224,1.708,0.39,0.947,2.446
512.0,-13.143,-2.156,1.784,0.446,0.96,2.545
516.0,-13.143,-2.156,1.784,0.446,0.96,2.545
520.0,-13.143,-2.156,1.784,0.446,0.96,2.545
524.0,-13.147,-2.1,1.867,0.483,0.957,2.627
528.0,-13.147,-2.1,1.867,0.483,0.957,2.627
532.0,-12.94,-2.046,1.877,0.483,0.957,2.627
535.0,-12.94,-2.046,1.877,0.499,0.939,2.678
539.0,-12.94,-2.046,1.877,0.499,0.939,2.678
543.0,-12.621,-1.976,1.784,0.496,0.916,2.684
547.0,-12.621,-1.976,1.784,0.496,0.916,2.684
551.0,-12.621,-1.976,1.784,0.496,0.916,2.684
554.0,-12.281,-1.892,1.688,0.474,0.892,2.643
558.0,-12.281,-1.892,1.688,0.474,0.892,2.643
562.0,-12.034,-1.758,1.638,0.436,0.864,2.568
566.0,-12.034,-1.758,1.638,0.436,0.864,2.568
570.0,-12.034,-1.758,1.638,0.436,0.864,2.568
574.0,-11.794,-1.628,1.567,0.386,0.828,2.466
577.0,-11.794,-1.628,1.567,0.386,0.828,2.466
581.0,-11.494,-1.483,1.56,0.386,0.783,2.347
585.0,-11.494,-1.483,1.56,0.325,0.783,2.347
589.0,-11.494,-1.483,1.56,0.325,0.783,2.347
593.0,-11.163,-1.356,1.546,0.256,0.726,2.213
597.0,-11.163,-1.356,1.546,0.256,0.726,2.213
600.0,-11.163,-1.356,1.478,0.256,0.726,2.213
604.0,-10.854,-1.279,1.478,0.183,0.669,2.07
608.0,-10.854,-1.279,1.478,0.183,0.669,2.07
612.0,-10.668,-1.227,1.369,0.107,0.618,1.927
616.0,-10.668,-1.227,1.369,0.107,0.618,1.927
619.0,-10.668,-1.227,1.369,0.107,0.618,1.927
623.0,-10.736,-1.238,1.236,0.029,0.583,1.791
627.0,-10.736,-1.238,1.236,0.029,0.583,1.791
631.0,-11.036,-1.327,1.127,-0.05,0.562,1.671
635.0,-11.036,-1.327,1.127,-0.05,0.562,1.671
639.0,-11.036,-1.327,1.127,-0.05,0.562,1.671
643.0,-11.518,-1.49,1.039,-0.128,0.549,1.575
646.0,-11.518,-1.49,1.039,-0.128,0.549,1.575
650.0,-12.068,-1.717,1.006,-0.128,0.534,1.5
654.0,-12.068,-1.717,1.006,-0.204,0.534,1.5
658.0,-12.068,-1.717,1.006,-0.204,0.534,1.5
662.0,-12.625,-2.004,1.035,-0.278,0.512,1.443
666.0,-12.625,-2.004,1.035,-0.278,0.512,1.443
670.0,-13.173,-2.251,1.083,-0.278,0.512,1.4
674.0,-13.173,-2.251,1.083,-0.354,0.479,1.4
678.0,-13.173,-2.251,1.083,-0.354,0.479,1.4
682.0,-13.624,-2.569,1.253,-0.421,0.438,1.374
686.0,-13.624,-2.569,1.253,-0.421,0.438,1.374
689.0,-14.048,-2.878,1.437,-0.421,0.438,1.374
693.0,-14.048,-2.878,1.437,-0.479,0.379,1.347
697.0,-14.048,-2.878,1.437,-0.479,0.379,1.347
701.0,-14.224,-3.117,1.634,-0.529,0.302,1.323
705.0,-14.224,-3.117,1.634,-0.529,0.302,1.323
709.0,-14.224,-3.234,1.801,-0.529,0.302,1.323
713.0,-13.984,-3.234,1.801,-0.568,0.206,1.301
717.0,-13.984,-3.234,1.801,-0.568,0.206,1.301
721.0,-13.373,-3.242,1.969,-0.596,0.101,1.266
725.0,-13.373,-3.242,1.969,-0.596,0.101,1.266
729.0,-13.373,-3.242,1.895,-0.596,0.101,1.266
732.0,-12.817,-3.193,1.895,-0.608,0.002,1.206
736.0,-12.817,-3.193,1.895,-0.608,0.002,1.206
740.0,-12.374,-3.132,1.713,-0.61,-0.083,1.128
744.0,-12.374,-3.132,1.713,-0.61,-0.083,1.128
748.0,-12.374,-3.132,1.713,-0.61,-0.083,1.128
752.0,-11.965,-3.084,1.64,-0.602,-0.152,1.037
756.0,-11.965,-3.084,1.64,-0.602,-0.152,1.037
760.0,-11.643,-3.106,1.643,-0.576,-0.211,0.937
764.0,-11.643,-3.106,1.643,-0.576,-0.211,0.937
768.0,-11.643,-3.184,1.715,-0.576,-0.211,0.937
772.0,-11.399,-3.184,1.715,-0.522,-0.267,0.831
776.0,-11.399,-3.184,1.715,-0.522,-0.267,0.831
780.0,-11.134,-3.266,1.775,-0.439,-0.332,0.716
784.0,-11.134,-3.266,1.775,-0.439,-0.332,0.716
788.0,-10.867,-3.289,1.798,-0.439,-0.332,0.716
792.0,-10.867,-3.289,1.798,-0.331,-0.402,0.587
796.0,-10.867,-3.289,1.798,-0.331,-0.402,0.587
800.0,-10.693,-3.26,1.814,-0.208,-0.469,0.438
804.0,-10.693,-3.26,1.814,-0.208,-0.469,0.438
808.0,-10.717,-3.24,1.808,-0.208,-0.469,0.277
812.0,-10.717,-3.24,1.808,-0.077,-0.532,0.277
816.0,-10.717,-3.24,1.808,-0.077,-0.532,0.277
820.0,-10.925,-3.208,1.772,0.055,-0.592,0.112
824.0,-10.925,-3.208,1.772,0.055,-0.592,0.112
828.0,-11.34,-3.145,1.711,0.055,-0.592,-0.052
832.0,-11.34,-3.145,1.711,0.186,-0.653,-0.052
836.0,-11.34,-3.145,1.711,0.186,-0.653,-0.052
840.0,-11.862,-3.096,1.653,0.312,-0.717,-0.215
844.0,-11.862,-3.096,1.653,0.312,-0.717,-0.215
848.0,-12.403,-3.06,1.588,0.312,-0.788,-0.373
852.0,-12.403,-3.06,1.588,0.427,-0.788,-0.373
856.0,-12.403,-3.06,1.588,0.427,-0.788,-0.373
860.0,-12.893,-3.004,1.485,0.532,-0.866,-0.53
864.0,-12.893,-3.004,1.485,0.532,-0.866,-0.53
868.0,-13.137,-2.911,1.377,0.626,-0.953,-0.685
872.0,-13.137,-2.911,1.377,0.626,-0.953,-0.685
876.0,-13.137,-2.911,1.377,0.626,-0.953,-0.685
880.0,-13.059,-2.771,1.223,0.707,-1.045,-0.842
884.0,-13.059,-2.771,1.223,0.707,-1.045,-0.842
888.0,-12.788,-2.58,1.072,0.777,-1.128,-1.006
892.0,-12.788,-2.58,1.072,0.777,-1.128,-1.006
896.0,-12.788,-2.58,1.072,0.777,-1.128,-1.006
900.0,-12.471,-2.369,0.967,0.837,-1.19,-1.174
904.0,-12.471,-2.369,0.967,0.837,-1.19,-1.174
908.0,-12.16,-2.155,0.93,0.886,-1.234,-1.339
912.0,-12.16,-2.155,0.93,0.886,-1.234,-1.339
916.0,-12.16,-2.155,0.93,0.886,-1.234,-1.339
920.0,-11.943,-1.999,0.937,0.927,-1.267,-1.493
924.0,-11.943,-1.999,0.937,0.927,-1.267,-1.493
928.0,-11.865,-1.878,0.937,0.965,-1.296,-1.63
932.0,-11.865,-1.878,0.937,0.965,-1.296,-1.63
936.0,-11.865,-1.878,0.937,0.965,-1.296,-1.63
940.0,-11.861,-1.813,0.981,0.999,-1.323,-1.753
944.0,-11.861,-1.813,0.981,0.999,-1.323,-1.753
948.0,-11.98,-1.819,1.026,1.032,-1.353,-1.863
952.0,-11.98,-1.819,1.026,1.032,-1.353,-1.863
956.0,-11.98,-1.819,1.049,1.032,-1.353,-1.863
960.0,-12.198,-1.836,1.049,1.072,-1.389,-1.967
964.0,-12.198,-1.836,1.049,1.072,-1.389,-1.967
968.0,-12.541,-1.86,1.044,1.12,-1.431,-2.072
972.0,-12.541,-1.86,1.044,1.12,-1.431,-2.072
976.0,-12.951,-1.848,0.979,1.12,-1.431,-2.072
980.0,-12.951,-1.848,0.979,1.177,-1.483,-2.179
984.0,-12.951,-1.848,0.979,1.177,-1.483,-2.179
988.0,-13.399,-1.801,0.867,1.237,-1.541,-2.285
992.0,-13.399,-1.801,0.867,1.237,-1.541,-2.285
996.0,-13.784,-1.758,0.748,1.237,-1.541,-2.38
1000.0,-13.784,-1.758,0.748,1.3,-1.599,-2.38
1004.0,-13.784,-1.758,0.748,1.3,-1.599,-2.38
1008.0,-14.105,-1.683,0.67,1.362,-1.659,-2.46
1012.0,-14.105,-1.683,0.67,1.362,-1.659,-2.46
1016.0,-14.365,-1.611,0.591,1.422,-1.717,-2.519
1020.0,-14.365,-1.611,0.591,1.422,-1.717,-2.519
1024.0,-14.365,-1.611,0.591,1.422,-1.717,-2.519
1028.0,-14.629,-1.57,0.52,1.479,-1.768,-2.555
1032.0,-14.629,-1.57,0.52,1.479,-1.768,-2.555
1036.0,-14.852,-1.529,0.501,1.533,-1.813,-2.567
1040.0,-14.852,-1.529,0.501,1.533,-1.813,-2.567
1044.0,-14.852,-1.529,0.506,1.533,-1.813,-2.567
1049.0,-14.984,-1.477,0.506,1.582,-1.857,-2.556
1053.0,-14.984,-1.477,0.506,1.582,-1.857,-2.556
1057.0,-14.987,-1.434,0.534,1.624,-1.899,-2.525
1061.0,-14.987,-1.434,0.534,1.624,-1.899,-2.525
1065.0,-14.914,-1.387,0.539,1.624,-1.899,-2.477
1069.0,-14.914,-1.387,0.539,1.655,-1.938,-2.477
1073.0,-14.914,-1.387,0.539,1.655,-1.938,-2.477
1077.0,-14.713,-1.338,0.529,1.675,-1.97,-2.416
1081.0,-14.713,-1.338,0.529,1.675,-1.97,-2.416
1085.0,-14.323,-1.268,0.524,1.677,-1.997,-2.343
1089.0,-14.323,-1.268,0.524,1.677,-1.997,-2.343
1093.0,-14.323,-1.268,0.524,1.677,-1.997,-2.343
1098.0,-13.775,-1.192,0.504,1.658,-2.016,-2.258
1102.0,-13.775,-1.192,0.504,1.658,-2.016,-2.258
1106.0,-13.079,-1.12,0.584,1.614,-2.025,-2.163
1110.0,-13.079,-1.12,0.584,1.614,-2.025,-2.163
1114.0,-12.547,-1.056,0.703,1.614,-2.025,-2.163
1118.0,-12.547,-1.056,0.703,1.539,-2.017,-2.058
1122.0,-12.547,-1.056,0.703,1.539,-2.017,-2.058
1126.0,-12.451,-1.086,0.729,1.426,-1.987,-1.939
1130.0,-12.451,-1.086,0.729,1.426,-1.987,-1.939
1134.0,-12.477,-1.101,0.864,1.272,-1.94,-1.803
1138.0,-12.477,-1.101,0.864,1.272,-1.94,-1.803
1142.0,-12.477,-1.101,0.864,1.272,-1.94,-1.803
1146.0,-12.17,-1.095,0.94,1.072,-1.91,-1.656
1151.0,-12.17,-1.095,0.94,1.072,-1.91,-1.656
1155.0,-11.48,-1.084,0.877,0.827,-1.893,-1.519
1159.0,-11.48,-1.084,0.877,0.827,-1.893,-1.519
1163.0,-11.48,-1.084,0.877,0.827,-1.893,-1.519
1167.0,-10.425,-1.054,0.744,0.551,-1.862,-1.417
1171.0,-10.425,-1.054,0.744,0.551,-1.862,-1.417
1175.0,-9.44,-1.035,0.531,0.263,-1.785,-1.357
1179.0,-9.44,-1.035,0.531,0.263,-1.785,-1.357
1183.0,-8.905,-1.042,0.337,0.263,-1.785,-1.357
1187.0,-8.905,-1.042,0.337,-0.023,-1.635,-1.314
1191.0,-8.905,-1.042,0.337,-0.023,-1.635,-1.314
1195.0,-9.23,-1.137,0.203,-0.305,-1.401,-1.237
1199.0,-9.23,-1.137,0.203,-0.305,-1.401,-1.237
1203.0,-10.47,-1.359,0.239,-0.589,-1.104,-1.072
1208.0,-10.47,-1.359,0.239,-0.589,-1.104,-1.072
1212.0,-10.47,-1.359,0.239,-0.589,-1.104,-1.072
1216.0,-11.951,-1.801,0.575,-0.874,-0.803,-0.806
1220.0,-11.951,-1.801,0.575,-0.874,-0.803,-0.806
1224.0,-12.726,-2.373,1.387,-1.142,-0.598,-0.493
1228.0,-12.726,-2.373,1.387,-1.142,-0.598,-0.493
1233.0,-12.57,-2.971,2.203,-1.142,-0.598,-0.493
1237.0,-12.57,-2.971,2.203,-1.363,-0.551,-0.242
1241.0,-12.57,-2.971,2.203,-1.363,-0.551,-0.242
1245.0,-12.476,-3.494,2.442,-1.517,-0.608,-0.131
1249.0,-12.476,-3.494,2.442,-1.517,-0.608,-0.131
1253.0,-12.762,-3.794,2.121,-1.604,-0.667,-0.148
1258.0,-12.762,-3.794,2.121,-1.604,-0.667,-0.148
1262.0,-12.762,-3.794,1.686,-1.604,-0.667,-0.148
1266.0,-12.659,-3.739,1.686,-1.639,-0.684,-0.223
1270.0,-12.659,-3.739,1.686,-1.639,-0.684,-0.223
1274.0,-11.844,-3.578,1.631,-1.642,-0.67,-0.305
1278.0,-11.844,-3.578,1.631,-1.642,-0.67,-0.305
1283.0,-10.44,-3.41,1.669,-1.603,-0.663,-0.404
1287.0,-10.44,-3.41,1.669,-1.603,-0.663,-0.404
1291.0,-10.44,-3.41,1.669,-1.603,-0.663,-0.404
1295.0,-9.515,-3.281,1.452,-1.519,-0.648,-0.543
1299.0,-9.515,-3.281,1.452,-1.519,-0.648,-0.543
1303.0,-9.842,-3.169,0.98,-1.393,-0.575,-0.7
1307.0,-9.842,-3.169,0.98,-1.393,-0.575,-0.7
1311.0,-10.798,-3.173,0.794,-1.393,-0.575,-0.7
1316.0,-10.798,-3.173,0.794,-1.224,-0.45,-0.816
1320.0,-10.798,-3.173,0.794,-1.224,-0.45,-0.816
1324.0,-10.624,-3.276,1.065,-1.013,-0.364,-0.883
1328.0,-10.624,-3.276,1.065,-1.013,-0.364,-0.883
1332.0,-9.446,-3.331,1.446,-0.767,-0.364,-0.953
1336.0,-9.446,-3.331,1.446,-0.767,-0.364,-0.953
1340.0,-9.446,-3.331,1.446,-0.767,-0.364,-0.953
1344.0,-8.163,-3.303,1.43,-0.493,-0.398,-1.077
1348.0,-8.163,-3.303,1.43,-0.493,-0.398,-1.077
1353.0,-7.418,-3.137,0.942,-0.214,-0.4,-1.247
1357.0,-7.418,-3.137,0.942,-0.214,-0.4,-1.247
1361.0,-7.792,-2.904,0.323,-0.214,-0.4,-1.247
1365.0,-7.792,-2.904,0.323,0.034,-0.307,-1.403
1369.0,-7.792,-2.904,0.323,0.034,-0.307,-1.403
1373.0,-8.459,-2.732,0.126,0.236,-0.127,-1.513
1377.0,-8.459,-2.732,0.126,0.236,-0.127,-1.513
1381.0,-8.585,-2.576,0.4,0.236,-0.127,-1.585
1385.0,-8.585,-2.576,0.4,0.392,0.045,-1.585
1389.0,-8.585,-2.576,0.4,0.392,0.045,-1.585
1393.0,-8.342,-2.462,0.864,0.507,0.158,-1.646
1396.0,-8.342,-2.462,0.864,0.507,0.158,-1.646
1400.0,-8.219,-2.423,1.155,0.507,0.158,-1.721
1404.0,-8.219,-2.423,1.155,0.603,0.231,-1.721
1408.0,-8.219,-2.423,1.155,0.603,0.231,-1.721
1412.0,-8.244,-2.4,1.443,0.695,0.288,-1.808
1416.0,-8.244,-2.4,1.443,0.695,0.288,-1.808
1420.0,-8.051,-2.343,1.571,0.695,0.288,-1.808
1424.0,-8.051,-2.343,1.571,0.79,0.31,-1.89
1428.0,-8.051,-2.343,1.571,0.79,0.31,-1.89
1432.0,-7.907,-2.268,1.53,0.877,0.313,-1.95
1436.0,-7.907,-2.268,1.53,0.877,0.313,-1.95
1439.0,-7.907,-2.161,1.169,0.877,0.313,-1.95
1443.0,-8.064,-2.161,1.169,0.952,0.339,-1.991
1447.0,-8.064,-2.161,1.169,0.952,0.339,-1.991
1451.0,-8.664,-2.087,0.915,1.007,0.416,-2.004
1455.0,-8.664,-2.087,0.915,1.007,0.416,-2.004
1459.0,-8.664,-2.087,0.811,1.007,0.416,-2.004
1463.0,-9.13,-1.995,0.811,1.045,0.518,-1.986
1467.0,-9.13,-1.995,0.811,1.045,0.518,-1.986
1471.0,-9.468,-1.936,0.85,1.068,0.612,-1.936
1475.0,-9.468,-1.936,0.85,1.068,0.612,-1.936
1479.0,-9.468,-1.936,0.85,1.068,0.612,-1.936
1482.0,-9.907,-1.885,0.767,1.083,0.702,-1.864
1486.0,-9.907,-1.885,0.767,1.083,0.702,-1.864
1490.0,-10.611,-1.886,0.884,1.096,0.802,-1.769
1494.0,-10.611,-1.886,0.884,1.096,0.802,-1.769
1498.0,-10.611,-1.886,0.884,1.096,0.802,-1.769
1502.0,-11.23,-1.944,1.173,1.116,0.895,-1.648
1506.0,-11.23,-1.944,1.173,1.116,0.895,-1.648
1510.0,-11.584,-2.058,1.479,1.153,0.95,-1.498
1514.0,-11.584,-2.058,1.479,1.153,0.95,-1.498
1518.0,-11.584,-2.058,1.479,1.153,0.95,-1.498
1522.0,-11.562,-2.214,1.803,1.219,0.961,-1.344
1526.0,-11.562,-2.214,1.803,1.219,0.961,-1.344
1530.0,-11.31,-2.233,1.996,1.311,0.927,-1.214
1534.0,-11.31,-2.233,1.996,1.311,0.927,-1.214
1538.0,-11.31,-2.233,1.988,1.311,0.927,-1.214
1542.0,-11.202,-2.123,1.988,1.409,0.863,-1.131
1546.0,-11.202,-2.123,1.988,1.409,0.863,-1.131
1550.0,-11.197,-1.919,1.877,1.505,0.786,-1.082
1554.0,-11.197,-1.919,1.877,1.505,0.786,-1.082
1558.0,-11.081,-1.647,1.624,1.505,0.786,-1.082
1562.0,-11.081,-1.647,1.624,1.589,0.698,-1.043
1566.0,-11.081,-1.647,1.624,1.589,0.698,-1.043
1570.0,-10.994,-1.317,1.214,1.648,0.614,-1.0
1574.0,-10.994,-1.317,1.214,1.648,0.614,-1.0
1578.0,-11.252,-0.951,0.79,1.648,0.614,-0.944
1582.0,-11.252,-0.951,0.79,1.666,0.57,-0.944
1586.0,-11.252,-0.951,0.79,1.666,0.57,-0.944
1590.0,-11.69,-0.644,0.491,1.639,0.587,-0.86
1594.0,-11.69,-0.644,0.491,1.639,0.587,-0.86
1598.0,-12.002,-0.456,0.471,1.639,0.64,-0.731
1602.0,-12.002,-0.456,0.471,1.569,0.64,-0.731
1606.0,-12.002,-0.456,0.471,1.569,0.64,-0.731
1610.0,-12.102,-0.441,0.628,1.465,0.707,-0.563
1614.0,-12.102,-0.441,0.628,1.465,0.707,-0.563
1618.0,-12.049,-0.452,0.845,1.339,0.773,-0.383
1622.0,-12.049,-0.452,0.845,1.339,0.773,-0.383
1626.0,-12.049,-0.452,0.845,1.339,0.773,-0.383
1630.0,-11.935,-0.447,1.09,1.193,0.834,-0.215
1634.0,-11.935,-0.447,1.09,1.193,0.834,-0.215
1638.0,-11.634,-0.376,1.327,1.027,0.889,-0.072
1642.0,-11.634,-0.376,1.327,1.027,0.889,-0.072
1646.0,-11.634,-0.376,1.327,1.027,0.889,-0.072
1650.0,-11.164,-0.288,1.622,0.845,0.931,0.046
1654.0,-11.164,-0.288,1.622,0.845,0.931,0.046
1658.0,-10.584,-0.193,1.913,0.656,0.958,0.139
1662.0,-10.584,-0.193,1.913,0.656,0.958,0.139
1666.0,-10.584,-0.193,1.913,0.656,0.958,0.139
1669.0,-9.934,-0.116,2.058,0.471,0.978,0.215
1673.0,-9.934,-0.116,2.058,0.471,0.978,0.215
1677.0,-9.321,-0.031,2.065,0.289,1.006,0.275
1681.0,-9.321,-0.031,2.065,0.289,1.006,0.275
1685.0,-9.321,-0.031,2.065,0.289,1.006,0.275
1689.0,-8.842,0.036,2.029,0.11,1.059,0.332
1692.0,-8.842,0.036,2.029,0.11,1.059,0.332
1696.0,-8.842,0.036,1.973,0.11,1.059,0.332
1700.0,-8.451,0.015,1.973,-0.063,1.141,0.389
1704.0,-8.451,0.015,1.973,-0.063,1.141,0.389
1707.0,-8.032,-0.066,1.919,-0.22,1.241,0.454
1711.0,-8.032,-0.066,1.919,-0.22,1.241,0.454
1715.0,-8.032,-0.066,1.919,-0.22,1.241,0.454
1719.0,-7.74,-0.211,1.966,-0.36,1.351,0.527
1723.0,-7.74,-0.211,1.966,-0.36,1.351,0.527
1727.0,-7.705,-0.366,1.935,-0.481,1.465,0.602
1731.0,-7.705,-0.366,1.935,-0.481,1.465,0.602
1735.0,-7.705,-0.366,1.935,-0.481,1.465,0.602
1739.0,-8.072,-0.43,1.809,-0.588,1.587,0.686
1743.0,-8.072,-0.43,1.809,-0.588,1.587,0.686
1746.0,-8.603,-0.633,1.89,-0.676,1.709,0.799
1750.0,-8.603,-0.633,1.89,-0.676,1.709,0.799
1754.0,-8.603,-0.633,1.89,-0.676,1.709,0.799
1758.0,-8.821,-0.821,2.095,-0.739,1.8,0.942
1762.0,-8.821,-0.821,2.095,-0.739,1.8,0.942
1766.0,-8.745,-0.99,2.435,-0.777,1.834,1.093
1770.0,-8.745,-0.99,2.435,-0.777,1.834,1.093
1774.0,-8.745,-0.99,2.435,-0.777,1.834,1.093
1778.0,-8.593,-1.109,2.697,-0.785,1.811,1.226
1782.0,-8.593,-1.109,2.697,-0.785,1.811,1.226
1786.0,-8.572,-1.145,2.847,-0.785,1.743,1.328
1789.0,-8.572,-1.145,2.847,-0.767,1.743,1.328
1793.0,-8.572,-1.145,2.847,-0.767,1.743,1.328
1797.0,-8.549,-1.116,2.735,-0.736,1.648,1.41
1801.0,-8.549,-1.116,2.735,-0.736,1.648,1.41
1805.0,-8.467,-0.97,2.413,-0.736,1.648,1.41
1809.0,-8.467,-0.97,2.413,-0.717,1.555,1.485
1813.0,-8.467,-0.97,2.413,-0.717,1.555,1.485
1817.0,-8.39,-0.828,2.076,-0.726,1.502,1.564
1821.0,-8.39,-0.828,2.076,-0.726,1.502,1.564
1825.0,-8.429,-0.724,1.749,-0.726,1.502,1.564
1829.0,-8.429,-0.724,1.749,-0.768,1.507,1.648
1832.0,-8.429,-0.724,1.749,-0.768,1.507,1.648
1836.0,-8.698,-0.643,1.524,-0.834,1.573,1.744
1840.0,-8.698,-0.643,1.524,-0.834,1.573,1.744
1844.0,-8.698,-0.643,1.454,-0.834,1.573,1.744
1848.0,-9.371,-0.613,1.454,-0.922,1.685,1.848
1852.0,-9.371,-0.613,1.454,-0.922,1.685,1.848
1856.0,-10.363,-0.681,1.65,-1.029,1.815,1.962
1860.0,-10.363,-0.681,1.65,-1.029,1.815,1.962
1864.0,-10.363,-0.681,2.098,-1.029,1.815,1.962
1868.0,-11.321,-0.852,2.098,-1.133,1.916,2.078
1872.0,-11.321,-0.852,2.098,-1.133,1.916,2.078
1876.0,-11.999,-1.073,2.643,-1.219,1.947,2.183
1880.0,-11.999,-1.073,2.643,-1.219,1.947,2.183
1884.0,-12.254,-1.287,3.149,-1.219,1.947,2.183
1888.0,-12.254,-1.287,3.149,-1.279,1.898,2.262
1892.0,-12.254,-1.287,3.149,-1.279,1.898,2.262
1896.0,-12.054,-1.472,3.461,-1.309,1.779,2.296
1900.0,-12.054,-1.472,3.461,-1.309,1.779,2.296
1904.0,-11.46,-1.609,3.528,-1.309,1.779,2.296
1908.0,-11.46,-1.609,3.528,-1.31,1.615,2.272
1912.0,-11.46,-1.609,3.528,-1.31,1.615,2.272
1916.0,-10.74,-1.634,3.477,-1.298,1.431,2.182
1920.0,-10.74,-1.634,3.477,-1.298,1.431,2.182
1924.0,-10.017,-1.7,2.969,-1.298,1.246,2.011
1928.0,-10.017,-1.7,2.969,-1.328,1.246,2.011
1932.0,-10.017,-1.7,2.969,-1.328,1.246,2.011
1936.0,-9.738,-1.741,2.634,-1.341,1.129,1.782
1940.0,-9.738,-1.741,2.634,-1.341,1.129,1.782
1944.0,-9.678,-1.709,2.512,-1.341,1.042,1.53
1947.0,-9.678,-1.709,2.512,-1.324,1.042,1.53
1951.0,-9.678,-1.709,2.512,-1.324,1.042,1.53
1955.0,-9.516,-1.798,2.298,-1.276,0.939,1.276
1959.0,-9.516,-1.798,2.298,-1.276,0.939,1.276
1963.0,-9.264,-1.83,2.338,-1.276,0.939,1.013
1967.0,-9.264,-1.83,2.338,-1.181,0.812,1.013
1971.0,-9.264,-1.83,2.338,-1.181,0.812,1.013
1975.0,-8.956,-1.834,2.24,-1.045,0.659,0.737
1979.0,-8.956,-1.834,2.24,-1.045,0.659,0.737
1983.0,-8.713,-1.659,2.039,-1.045,0.659,0.737
1987.0,-8.713,-1.659,2.039,-0.881,0.507,0.452
1990.0,-8.713,-1.659,2.039,-0.881,0.507,0.452
1994.0,-8.343,-1.343,1.721,-0.717,0.366,0.183
1998.0,-8.343,-1.343,1.721,-0.717,0.366,0.183
2002.0,-8.343,-1.343,1.379,-0.717,0.366,0.183
2006.0,-7.89,-0.941,1.379,-0.582,0.249,-0.054
2010.0,-7.89,-0.941,1.379,-0.582,0.249,-0.054
2014.0,-7.539,-0.592,1.172,-0.495,0.17,-0.26
2018.0,-7.539,-0.592,1.172,-0.495,0.17,-0.26
2022.0,-7.539,-0.371,1.018,-0.495,0.17,-0.26
2026.0,-7.186,-0.371,1.018,-0.465,0.12,-0.441
2030.0,-7.186,-0.371,1.018,-0.465,0.12,-0.441
2034.0,-7.085,-0.191,1.013,-0.501,0.084,-0.608
2038.0,-7.085,-0.191,1.013,-0.501,0.084,-0.608
2042.0,-7.218,-0.062,1.049,-0.501,0.084,-0.608
2046.0,-7.218,-0.062,1.049,-0.595,0.055,-0.765
2050.0,-7.218,-0.062,1.049,-0.595,0.055,-0.765
2054.0,-7.511,0.028,1.159,-0.739,0.024,-0.909
2058.0,-7.511,0.028,1.159,-0.739,0.024,-0.909
2062.0,-7.894,0.069,1.306,-0.739,0.024,-1.042
2066.0,-7.894,0.069,1.306,-0.926,-0.019,-1.042
2070.0,-7.894,0.069,1.306,-0.926,-0.019,-1.042
2074.0,-8.247,0.049,1.452,-1.147,-0.075,-1.168
2078.0,-8.247,0.049,1.452,-1.147,-0.075,-1.168
2082.0,-8.558,-0.065,1.57,-1.147,-0.075,-1.286
2086.0,-8.558,-0.065,1.57,-1.389,-0.143,-1.286
2090.0,-8.558,-0.065,1.57,-1.389,-0.143,-1.286
2094.0,-8.718,-0.245,1.634,-1.632,-0.22,-1.396
2098.0,-8.718,-0.245,1.634,-1.632,-0.22,-1.396
2102.0,-8.688,-0.44,1.646,-1.859,-0.298,-1.499
2106.0,-8.688,-0.44,1.646,-1.859,-0.298,-1.499
2110.0,-8.688,-0.44,1.646,-1.859,-0.298,-1.499
2114.0,-8.53,-0.641,1.664,-2.057,-0.365,-1.6
2118.0,-8.53,-0.641,1.664,-2.057,-0.365,-1.6
2122.0,-8.348,-0.796,1.62,-2.216,-0.409,-1.692
2127.0,-8.348,-0.796,1.62,-2.216,-0.409,-1.692
2131.0,-8.348,-0.928,1.581,-2.216,-0.409,-1.692
2135.0,-8.248,-0.928,1.581,-2.337,-0.423,-1.769
2139.0,-8.248,-0.928,1.581,-2.337,-0.423,-1.769
2143.0,-8.213,-1.024,1.619,-2.419,-0.412,-1.825
2147.0,-8.213,-1.024,1.619,-2.419,-0.412,-1.825
2151.0,-8.252,-1.088,1.713,-2.458,-0.385,-1.854
2155.0,-8.252,-1.088,1.713,-2.458,-0.385,-1.854
2159.0,-8.252,-1.088,1.713,-2.458,-0.385,-1.854
2163.0,-8.347,-1.119,1.845,-2.452,-0.35,-1.857
2167.0,-8.347,-1.119,1.845,-2.452,-0.35,-1.857
2171.0,-8.482,-1.081,1.95,-2.403,-0.311,-1.828
2175.0,-8.482,-1.081,1.95,-2.403,-0.311,-1.828
2180.0,-8.482,-1.081,1.95,-2.403,-0.311,-1.828
2184.0,-9.023,-0.839,2.503,-2.31,-0.265,-1.76
2188.0,-9.023,-0.839,2.503,-2.31,-0.265,-1.76
2192.0,-10.57,0.371,4.184,-2.176,-0.259,-1.624
2196.0,-10.57,0.371,4.184,-2.176,-0.259,-1.624
2200.0,-13.671,2.895,7.238,-2.176,-0.259,-1.378
2204.0,-13.671,2.895,7.238,-2.077,-0.386,-1.378
2208.0,-13.671,2.895,7.238,-2.077,-0.386,-1.378
2212.0,-16.207,4.708,9.199,-2.139,-0.682,-1.04
2216.0,-16.207,4.708,9.199,-2.139,-0.682,-1.04
2220.0,-16.134,4.044,8.606,-2.325,-0.983,-0.709
2224.0,-16.134,4.044,8.606,-2.325,-0.983,-0.709
2229.0,-16.134,4.044,8.606,-2.325,-0.983,-0.709
2233.0,-14.551,2.769,7.087,-2.496,-1.128,-0.448
2237.0,-14.551,2.769,7.087,-2.496,-1.128,-0.448
2241.0,-11.702,1.542,4.034,-2.514,-1.056,-0.171
2245.0,-11.702,1.542,4.034,-2.514,-1.056,-0.171
2249.0,-11.702,1.542,1.376,-2.514,-1.056,-0.171
2253.0,-8.399,-0.188,1.376,-2.305,-0.721,0.144
2257.0,-8.399,-0.188,1.376,-2.305,-0.721,0.144
2261.0,-7.231,-0.924,0.284,-2.072,-0.301,0.35
2265.0,-7.231,-0.924,0.284,-2.072,-0.301,0.35
2269.0,-8.791,-1.32,-0.016,-2.072,-0.301,0.35
2273.0,-8.791,-1.32,-0.016,-1.983,0.08,0.406
2277.0,-8.791,-1.32,-0.016,-1.983,0.08,0.406
2281.0,-12.092,-1.96,0.194,-1.945,0.388,0.402
2285.0,-12.092,-1.96,0.194,-1.945,0.388,0.402
2289.0,-15.896,-2.779,1.037,-1.945,0.558,0.424
2293.0,-15.896,-2.779,1.037,-1.843,0.558,0.424
2297.0,-15.896,-2.779,1.037,-1.843,0.558,0.424
2301.0,-18.802,-3.398,2.245,-1.641,0.512,0.522
2305.0,-18.802,-3.398,2.245,-1.641,0.512,0.522
2309.0,-18.819,-3.827,3.521,-1.336,0.243,0.687
2313.0,-18.819,-3.827,3.521,-1.336,0.243,0.687
2317.0,-18.819,-3.827,3.521,-1.336,0.243,0.687
2321.0,-16.438,-4.291,3.979,-0.968,-0.148,0.829
2325.0,-16.438,-4.291,3.979,-0.968,-0.148,0.829
2329.0,-13.933,-4.207,3.689,-0.542,-0.486,0.88
2333.0,-13.933,-4.207,3.689,-0.542,-0.486,0.88
2337.0,-13.933,-4.207,3.689,-0.542,-0.486,0.88
2341.0,-12.344,-3.654,2.813,-0.105,-0.7,0.878
2345.0,-12.344,-3.654,2.813,-0.105,-0.7,0.878
2350.0,-11.671,-3.139,1.811,0.278,-0.773,0.885
2354.0,-11.671,-3.139,1.811,0.278,-0.773,0.885
2358.0,-11.671,-2.86,1.085,0.278,-0.773,0.885
2361.0,-11.605,-2.86,1.085,0.583,-0.742,0.916
2365.0,-11.605,-2.86,1.085,0.583,-0.742,0.916
2369.0,-11.895,-2.789,0.72,0.818,-0.664,0.958
2373.0,-11.895,-2.789,0.72,0.818,-0.664,0.958
2377.0,-12.339,-2.879,0.62,0.818,-0.664,0.958
2381.0,-12.339,-2.879,0.62,1.008,-0.595,0.996
2385.0,-12.339,-2.879,0.62,1.008,-0.595,0.996
2389.0,-12.737,-3.114,0.633,1.177,-0.566,1.014
2393.0,-12.737,-3.114,0.633,1.177,-0.566,1.014
2397.0,-13.007,-3.331,0.665,1.177,-0.566,1.0
2401.0,-13.007,-3.331,0.665,1.342,-0.59,1.0
2405.0,-13.007,-3.331,0.665,1.342,-0.59,1.0
2409.0,-13.119,-3.427,0.593,1.504,-0.66,0.957
2413.0,-13.119,-3.427,0.593,1.504,-0.66,0.957
2417.0,-13.016,-3.325,0.363,1.504,-0.76,0.898
2421.0,-13.016,-3.325,0.363,1.645,-0.76,0.898
2425.0,-13.016,-3.325,0.363,1.645,-0.76,0.898
2429.0,-12.704,-3.059,0.075,1.736,-0.86,0.838
2433.0,-12.704,-3.059,0.075,1.736,-0.86,0.838
2437.0,-12.082,-2.713,-0.273,1.755,-0.942,0.781
2441.0,-12.082,-2.713,-0.273,1.755,-0.942,0.781
2446.0,-12.082,-2.713,-0.273,1.755,-0.942,0.781
2450.0,-11.218,-2.337,-0.572,1.696,-0.983,0.721
2454.0,-11.218,-2.337,-0.572,1.696,-0.983,0.721
2458.0,-10.228,-2.032,-0.719,1.564,-0.979,0.651
2462.0,-10.228,-2.032,-0.719,1.564,-0.979,0.651
2466.0,-10.228,-2.032,-0.733,1.564,-0.979,0.651
2470.0,-9.276,-1.766,-0.733,1.37,-0.936,0.569
2474.0,-9.276,-1.766,-0.733,1.37,-0.936,0.569
2478.0,-8.482,-1.592,-0.657,1.129,-0.865,0.472
2482.0,-8.482,-1.592,-0.657,1.129,-0.865,0.472
2486.0,-7.945,-1.505,-0.536,1.129,-0.865,0.472
2490.0,-7.945,-1.505,-0.536,0.857,-0.78,0.363
2494.0,-7.945,-1.505,-0.536,0.857,-0.78,0.363
2498.0,-7.599,-1.5,-0.404,0.572,-0.697,0.251
2502.0,-7.599,-1.5,-0.404,0.572,-0.697,0.251
2506.0,-7.384,-1.61,-0.229,0.572,-0.697,0.251
2510.0,-7.384,-1.61,-0.229,0.294,-0.627,0.148
2514.0,-7.384,-1.61,-0.229,0.294,-0.627,0.148
2518.0,-7.252,-1.789,-0.054,0.035,-0.571,0.061
2522.0,-7.252,-1.789,-0.054,0.035,-0.571,0.061
2526.0,-7.143,-2.027,0.089,0.035,-0.528,-0.008
2530.0,-7.143,-2.027,0.089,-0.194,-0.528,-0.008
2534.0,-7.143,-2.027,0.089,-0.194,-0.528,-0.008
2538.0,-6.971,-2.279,0.169,-0.394,-0.488,-0.064
2542.0,-6.971,-2.279,0.169,-0.394,-0.488,-0.064
2546.0,-6.748,-2.538,0.224,-0.568,-0.447,-0.115
2550.0,-6.748,-2.538,0.224,-0.568,-0.447,-0.115
2554.0,-6.748,-2.538,0.224,-0.568,-0.447,-0.115
2558.0,-6.477,-2.795,0.316,-0.712,-0.404,-0.172
2563.0,-6.477,-2.795,0.316,-0.712,-0.404,-0.172
2567.0,-6.174,-3.007,0.408,-0.823,-0.362,-0.239
2571.0,-6.174,-3.007,0.408,-0.823,-0.362,-0.239
2575.0,-6.174,-3.169,0.471,-0.823,-0.362,-0.239
2579.0,-5.898,-3.169,0.471,-0.903,-0.324,-0.316
2583.0,-5.898,-3.169,0.471,-0.903,-0.324,-0.316
2587.0,-5.643,-3.333,0.519,-0.953,-0.286,-0.393
2591.0,-5.643,-3.333,0.519,-0.953,-0.286,-0.393
2595.0,-5.418,-3.519,0.593,-0.966,-0.246,-0.461
2599.0,-5.418,-3.519,0.593,-0.966,-0.246,-0.461
2603.0,-5.418,-3.519,0.593,-0.966,-0.246,-0.461
2607.0,-5.231,-3.729,0.669,-0.938,-0.205,-0.518
2611.0,-5.231,-3.729,0.669,-0.938,-0.205,-0.518
2616.0,-5.061,-3.943,0.76,-0.868,-0.165,-0.574
2620.0,-5.061,-3.943,0.76,-0.868,-0.165,-0.574
2624.0,-5.061,-3.943,0.76,-0.868,-0.165,-0.574
2628.0,-4.947,-4.101,0.811,-0.754,-0.13,-0.631
2632.0,-4.947,-4.101,0.811,-0.754,-0.13,-0.631
2636.0,-4.849,-4.213,0.896,-0.599,-0.099,-0.686
2640.0,-4.849,-4.213,0.896,-0.599,-0.099,-0.686
2644.0,-4.749,-4.266,0.983,-0.599,-0.099,-0.686
2648.0,-4.749,-4.266,0.983,-0.405,-0.073,-0.736
2652.0,-4.749,-4.266,0.983,-0.405,-0.073,-0.736
2656.0,-4.655,-4.269,1.021,-0.18,-0.053,-0.78
2660.0,-4.655,-4.269,1.021,-0.18,-0.053,-0.78
2665.0,-4.53,-4.212,0.982,0.062,-0.038,-0.823
2669.0,-4.53,-4.212,0.982,0.062,-0.038,-0.823
2673.0,-4.53,-4.212,0.982,0.062,-0.038,-0.823
2677.0,-4.429,-4.117,0.887,0.31,-0.019,-0.869
2681.0,-4.429,-4.117,0.887,0.31,-0.019,-0.869
2685.0,-4.413,-3.991,0.74,0.553,0.004,-0.915
2688.0,-4.413,-3.991,0.74,0.553,0.004,-0.915
2692.0,-4.413,-3.991,0.74,0.553,0.004,-0.915
2696.0,-4.545,-3.857,0.579,0.785,0.032,-0.957
2700.0,-4.545,-3.857,0.579,0.785,0.032,-0.957
2704.0,-4.875,-3.744,0.39,1.001,0.07,-0.989
2708.0,-4.875,-3.744,0.39,1.001,0.07,-0.989
2712.0,-4.875,-3.744,0.39,1.001,0.07,-0.989
2716.0,-5.426,-3.645,0.236,1.198,0.113,-1.009
2720.0,-5.426,-3.645,0.236,1.198,0.113,-1.009
2724.0,-6.163,-3.568,0.129,1.373,0.162,-1.014
2727.0,-6.163,-3.568,0.129,1.373,0.162,-1.014
2731.0,-6.163,-3.568,0.129,1.373,0.162,-1.014
2735.0,-6.988,-3.514,0.037,1.527,0.212,-1.001
2739.0,-6.988,-3.514,0.037,1.527,0.212,-1.001
2743.0,-7.91,-3.49,-0.038,1.527,0.263,-0.971
2747.0,-7.91,-3.49,-0.038,1.66,0.263,-0.971
2751.0,-7.91,-3.49,-0.038,1.66,0.263,-0.971
2755.0,-8.989,-3.505,-0.08,1.776,0.318,-0.922
2759.0,-8.989,-3.505,-0.08,1.776,0.318,-0.922
2763.0,-10.339,-3.569,-0.042,1.88,0.378,-0.851
2767.0,-10.339,-3.569,-0.042,1.88,0.378,-0.851
2771.0,-10.339,-3.569,-0.042,1.88,0.378,-0.851
2775.0,-12.084,-3.711,0.045,1.976,0.436,-0.757
2779.0,-12.084,-3.711,0.045,1.976,0.436,-0.757
2783.0,-14.23,-3.906,0.212,2.066,0.481,-0.644
2787.0,-14.23,-3.906,0.212,2.066,0.481,-0.644
2791.0,-14.23,-3.906,0.212,2.066,0.481,-0.644
2795.0,-16.487,-4.125,0.455,2.151,0.492,-0.518
2799.0,-16.487,-4.125,0.455,2.151,0.492,-0.518
2803.0,-18.117,-4.29,0.713,2.233,0.449,-0.397
2807.0,-18.117,-4.29,0.713,2.233,0.449,-0.397
2811.0,-18.117,-4.29,0.713,2.233,0.449,-0.397
2815.0,-18.445,-4.206,0.85,2.308,0.357,-0.303
2819.0,-18.445,-4.206,0.85,2.308,0.357,-0.303
2823.0,-17.793,-3.895,0.824,2.36,0.252,-0.249
2827.0,-17.793,-3.895,0.824,2.36,0.252,-0.249
2831.0,-17.793,-3.895,0.578,2.36,0.252,-0.249
2835.0,-17.212,-3.392,0.578,2.382,0.186,-0.244
2839.0,-17.212,-3.392,0.578,2.382,0.186,-0.244
2843.0,-17.055,-2.795,0.231,2.367,0.18,-0.267
2847.0,-17.055,-2.795,0.231,2.367,0.18,-0.267
2851.0,-17.055,-2.237,-0.092,2.367,0.18,-0.267
2855.0,-16.769,-2.237,-0.092,2.311,0.208,-0.291
2859.0,-16.769,-2.237,-0.092,2.311,0.208,-0.291
2863.0,-16.049,-1.736,-0.231,2.218,0.241,-0.307
2867.0,-16.049,-1.736,-0.231,2.218,0.241,-0.307
2872.0,-14.925,-1.357,-0.229,2.218,0.273,-0.32
2876.0,-14.925,-1.357,-0.229,2.098,0.273,-0.32
2880.0,-14.925,-1.357,-0.229,2.098,0.273,-0.32
2884.0,-13.716,-1.149,-0.087,1.967,0.306,-0.343
2888.0,-13.716,-1.149,-0.087,1.967,0.306,-0.343
2892.0,-12.57,-1.041,0.171,1.842,0.342,-0.383
2896.0,-12.57,-1.041,0.171,1.842,0.342,-0.383
2900.0,-12.57,-1.041,0.171,1.842,0.342,-0.383
2904.0,-11.658,-0.98,0.517,1.733,0.38,-0.453
2908.0,-11.658,-0.98,0.517,1.733,0.38,-0.453
2912.0,-10.991,-0.921,0.9,1.644,0.414,-0.557
2916.0,-10.991,-0.921,0.9,1.644,0.414,-0.557
2920.0,-10.991,-0.921,0.9,1.644,0.414,-0.557
2924.0,-10.54,-0.839,1.296,1.581,0.446,-0.694
2928.0,-10.54,-0.839,1.296,1.581,0.446,-0.694
2932.0,-10.32,-0.717,1.698,1.546,0.466,-0.853
2936.0,-10.32,-0.717,1.698,1.546,0.466,-0.853
2940.0,-10.32,-0.717,2.023,1.546,0.466,-0.853
2944.0,-10.399,-0.568,2.023,1.532,0.462,-1.012
2948.0,-10.399,-0.568,2.023,1.532,0.462,-1.012
2952.0,-10.767,-0.377,2.136,1.527,0.44,-1.152
2956.0,-10.767,-0.377,2.136,1.527,0.44,-1.152
2960.0,-11.122,-0.211,2.076,1.527,0.44,-1.152
2964.0,-11.122,-0.211,2.076,1.515,0.406,-1.252
2968.0,-11.122,-0.211,2.076,1.515,0.406,-1.252
2972.0,-11.256,-0.101,1.988,1.485,0.368,-1.302
2976.0,-11.256,-0.101,1.988,1.485,0.368,-1.302
2980.0,-11.252,-0.087,1.844,1.485,0.368,-1.309
2984.0,-11.252,-0.087,1.844,1.437,0.327,-1.309
2988.0,-11.252,-0.087,1.844,1.437,0.327,-1.309
2992.0,-11.316,-0.055,1.6,1.381,0.295,-1.286
2996.0,-11.316,-0.055,1.6,1.381,0.295,-1.286
3000.0,-11.509,-0.013,1.256,1.381,0.284,-1.227
