deltaTime,Acc_X,Acc_Y,Acc_Z,Gyro_X,Gyro_Y,Gyro_Z
0.0,-10.388,0.032,2.502,-0.693,-0.482,-0.263
3.0,-10.388,0.032,2.502,-0.662,-0.539,-0.263
6.0,-10.388,0.032,2.502,-0.662,-0.539,-0.263
9.0,-10.388,0.032,2.502,-0.662,-0.539,-0.263
12.0,-10.187,-0.336,1.967,-0.698,-0.543,-0.325
15.0,-10.187,-0.336,1.967,-0.698,-0.543,-0.325
18.0,-10.187,-0.336,1.967,-0.698,-0.543,-0.325
21.0,-10.393,-0.378,1.704,-0.693,-0.503,-0.351
24.0,-10.393,-0.378,1.704,-0.693,-0.503,-0.351
27.0,-10.393,-0.378,1.704,-0.693,-0.503,-0.351
31.0,-11.043,0.203,1.798,-0.692,-0.475,-0.355
34.0,-11.043,0.203,1.798,-0.692,-0.475,-0.355
38.0,-11.043,0.203,1.798,-0.692,-0.475,-0.355
42.0,-11.408,0.497,1.711,-0.787,-0.477,-0.339
46.0,-11.408,0.497,1.711,-0.787,-0.477,-0.339
50.0,-11.339,0.28,1.547,-0.93,-0.486,-0.305
54.0,-11.339,0.28,1.547,-0.93,-0.486,-0.305
58.0,-11.339,0.28,1.547,-0.93,-0.486,-0.305
62.0,-10.991,-0.057,1.42,-1.042,-0.488,-0.263
66.0,-10.991,-0.057,1.42,-1.042,-0.488,-0.263
70.0,-10.633,-0.135,1.299,-1.123,-0.481,-0.235
74.0,-10.633,-0.135,1.299,-1.123,-0.481,-0.235
78.0,-10.633,-0.135,1.299,-1.123,-0.481,-0.235
82.0,-10.569,-0.145,1.296,-1.199,-0.458,-0.213
86.0,-10.569,-0.145,1.296,-1.199,-0.458,-0.213
90.0,-10.472,-0.179,1.237,-1.266,-0.426,-0.186
94.0,-10.472,-0.179,1.237,-1.266,-0.426,-0.186
98.0,-10.472,-0.179,1.237,-1.266,-0.426,-0.186
102.0,-10.214,-0.319,1.335,-1.309,-0.385,-0.161
106.0,-10.214,-0.319,1.335,-1.309,-0.385,-0.161
110.0,-10.0,-0.46,1.326,-1.321,-0.346,-0.138
114.0,-10.0,-0.46,1.326,-1.321,-0.346,-0.138
118.0,-10.113,-0.388,1.627,-1.321,-0.346,-0.138
122.0,-10.113,-0.388,1.627,-1.309,-0.298,-0.118
126.0,-10.113,-0.388,1.627,-1.309,-0.298,-0.118
130.0,-10.323,-0.112,2.235,-1.298,-0.276,-0.092
134.0,-10.323,-0.112,2.235,-1.298,-0.276,-0.092
138.0,-10.155,-0.38,2.29,-1.301,-0.3,-0.054
143.0,-10.155,-0.38,2.29,-1.301,-0.3,-0.054
147.0,-10.155,-0.38,2.29,-1.301,-0.3,-0.054
151.0,-9.772,-0.747,2.318,-1.255,-0.313,-0.016
155.0,-9.772,-0.747,2.318,-1.255,-0.313,-0.016
159.0,-9.547,-0.84,2.434,-1.15,-0.309,0.005
163.0,-9.547,-0.84,2.434,-1.15,-0.309,0.005
167.0,-9.547,-0.84,2.434,-1.15,-0.309,0.005
170.0,-9.604,-0.9,2.576,-1.059,-0.318,0.005
174.0,-9.604,-0.9,2.576,-1.059,-0.318,0.005
178.0,-9.625,-0.935,2.518,-0.956,-0.338,0.015
182.0,-9.625,-0.935,2.518,-0.956,-0.338,0.015
186.0,-9.625,-0.935,2.518,-0.956,-0.338,0.015
190.0,-9.447,-0.845,2.542,-0.833,-0.348,0.01
194.0,-9.447,-0.845,2.542,-0.833,-0.348,0.01
198.0,-9.519,-0.602,2.686,-0.749,-0.366,-0.016
202.0,-9.519,-0.602,2.686,-0.749,-0.366,-0.016
206.0,-9.519,-0.602,2.686,-0.749,-0.366,-0.016
210.0,-9.811,-0.577,2.514,-0.72,-0.405,-0.038
214.0,-9.811,-0.577,2.514,-0.72,-0.405,-0.038
218.0,-10.009,-0.795,2.04,-0.664,-0.478,-0.033
222.0,-10.009,-0.795,2.04,-0.664,-0.478,-0.033
226.0,-10.009,-0.795,2.04,-0.664,-0.478,-0.033
230.0,-9.989,-0.478,1.9,-0.598,-0.544,-0.039
234.0,-9.989,-0.478,1.9,-0.598,-0.544,-0.039
238.0,-10.344,-0.334,1.761,-0.601,-0.593,-0.097
242.0,-10.344,-0.334,1.761,-0.601,-0.593,-0.097
246.0,-10.344,-0.334,1.499,-0.601,-0.593,-0.097
250.0,-10.615,-0.362,1.499,-0.624,-0.652,-0.104
254.0,-10.615,-0.362,1.499,-0.624,-0.652,-0.104
258.0,-11.19,-0.596,1.315,-0.654,-0.686,-0.083
262.0,-11.19,-0.596,1.315,-0.654,-0.686,-0.083
267.0,-11.624,-0.859,1.283,-0.654,-0.695,-0.046
271.0,-11.624,-0.859,1.283,-0.666,-0.695,-0.046
275.0,-11.624,-0.859,1.283,-0.666,-0.695,-0.046
279.0,-11.862,-0.87,1.283,-0.67,-0.7,-0.002
283.0,-11.862,-0.87,1.283,-0.67,-0.7,-0.002
287.0,-12.06,-0.82,1.204,-0.701,-0.707,0.028
291.0,-12.06,-0.82,1.204,-0.701,-0.707,0.028
295.0,-12.06,-0.82,1.204,-0.701,-0.707,0.028
299.0,-12.059,-0.781,1.158,-0.766,-0.706,0.044
303.0,-12.059,-0.781,1.158,-0.766,-0.706,0.044
307.0,-12.034,-0.728,1.165,-0.859,-0.686,0.075
311.0,-12.034,-0.728,1.165,-0.859,-0.686,0.075
315.0,-12.034,-0.728,1.165,-0.859,-0.686,0.075
319.0,-11.841,-0.722,1.131,-0.966,-0.663,0.114
323.0,-11.841,-0.722,1.131,-0.966,-0.663,0.114
327.0,-11.633,-0.684,1.061,-1.082,-0.641,0.145
331.0,-11.633,-0.684,1.061,-1.082,-0.641,0.145
335.0,-11.633,-0.684,1.039,-1.082,-0.641,0.145
339.0,-11.369,-0.624,1.039,-1.206,-0.618,0.16
343.0,-11.369,-0.624,1.039,-1.206,-0.618,0.16
347.0,-11.08,-0.564,1.073,-1.33,-0.596,0.163
351.0,-11.08,-0.564,1.073,-1.33,-0.596,0.163
355.0,-11.08,-0.541,1.05,-1.33,-0.596,0.163
359.0,-10.737,-0.541,1.05,-1.446,-0.579,0.158
363.0,-10.737,-0.541,1.05,-1.446,-0.579,0.158
367.0,-10.467,-0.562,0.971,-1.553,-0.559,0.141
371.0,-10.467,-0.562,0.971,-1.553,-0.559,0.141
375.0,-10.289,-0.592,0.918,-1.553,-0.559,0.141
379.0,-10.289,-0.592,0.918,-1.648,-0.532,0.114
383.0,-10.289,-0.592,0.918,-1.648,-0.532,0.114
387.0,-10.138,-0.656,0.972,-1.725,-0.499,0.084
391.0,-10.138,-0.656,0.972,-1.725,-0.499,0.084
395.0,-9.945,-0.779,1.074,-1.725,-0.499,0.059
399.0,-9.945,-0.779,1.074,-1.779,-0.473,0.059
403.0,-9.945,-0.779,1.074,-1.779,-0.473,0.059
406.0,-9.739,-0.907,1.16,-1.804,-0.458,0.039
410.0,-9.739,-0.907,1.16,-1.804,-0.458,0.039
414.0,-9.633,-1.022,1.235,-1.804,-0.458,0.039
418.0,-9.633,-1.022,1.235,-1.802,-0.447,0.021
422.0,-9.633,-1.022,1.235,-1.802,-0.447,0.021
426.0,-9.586,-1.138,1.344,-1.772,-0.439,0.006
430.0,-9.586,-1.138,1.344,-1.772,-0.439,0.006
434.0,-9.586,-1.246,1.425,-1.772,-0.439,0.006
438.0,-9.507,-1.246,1.425,-1.719,-0.443,-0.005
442.0,-9.507,-1.246,1.425,-1.719,-0.443,-0.005
446.0,-9.471,-1.34,1.394,-1.646,-0.458,-0.011
450.0,-9.471,-1.34,1.394,-1.646,-0.458,-0.011
454.0,-9.509,-1.389,1.35,-1.646,-0.458,-0.011
458.0,-9.509,-1.389,1.35,-1.559,-0.466,-0.018
462.0,-9.509,-1.389,1.35,-1.559,-0.466,-0.018
466.0,-9.583,-1.427,1.341,-1.463,-0.468,-0.018
470.0,-9.583,-1.427,1.341,-1.463,-0.468,-0.018
474.0,-9.608,-1.451,1.32,-1.463,-0.468,-0.008
478.0,-9.608,-1.451,1.32,-1.363,-0.47,-0.008
482.0,-9.608,-1.451,1.32,-1.363,-0.47,-0.008
486.0,-9.687,-1.494,1.274,-1.261,-0.47,0.012
490.0,-9.687,-1.494,1.274,-1.261,-0.47,0.012
493.0,-9.839,-1.53,1.29,-1.261,-0.47,0.037
497.0,-9.839,-1.53,1.29,-1.16,-0.46,0.037
501.0,-9.839,-1.53,1.29,-1.16,-0.46,0.037
505.0,-10.006,-1.529,1.323,-1.061,-0.447,0.066
509.0,-10.006,-1.529,1.323,-1.061,-0.447,0.066
513.0,-10.175,-1.522,1.329,-1.061,-0.447,0.1
517.0,-10.175,-1.522,1.329,-0.969,-0.435,0.1
521.0,-10.175,-1.522,1.329,-0.969,-0.435,0.1
525.0,-10.341,-1.477,1.353,-0.89,-0.417,0.138
529.0,-10.341,-1.477,1.353,-0.89,-0.417,0.138
533.0,-10.396,-1.419,1.44,-0.89,-0.399,0.177
537.0,-10.396,-1.419,1.44,-0.825,-0.399,0.177
541.0,-10.396,-1.419,1.44,-0.825,-0.399,0.177
545.0,-10.353,-1.379,1.455,-0.775,-0.386,0.219
549.0,-10.353,-1.379,1.455,-0.775,-0.386,0.219
553.0,-10.394,-1.347,1.42,-0.741,-0.367,0.256
557.0,-10.394,-1.347,1.42,-0.741,-0.367,0.256
561.0,-10.394,-1.347,1.42,-0.741,-0.367,0.256
565.0,-10.437,-1.306,1.432,-0.718,-0.34,0.287
569.0,-10.437,-1.306,1.432,-0.718,-0.34,0.287
573.0,-10.391,-1.272,1.452,-0.704,-0.319,0.315
577.0,-10.391,-1.272,1.452,-0.704,-0.319,0.315
581.0,-10.391,-1.272,1.452,-0.704,-0.319,0.315
585.0,-10.281,-1.226,1.402,-0.696,-0.308,0.333
589.0,-10.281,-1.226,1.402,-0.696,-0.308,0.333
593.0,-10.2,-1.171,1.369,-0.692,-0.298,0.338
597.0,-10.2,-1.171,1.369,-0.692,-0.298,0.338
601.0,-10.2,-1.171,1.369,-0.692,-0.298,0.338
605.0,-10.08,-1.131,1.357,-0.692,-0.291,0.331
609.0,-10.08,-1.131,1.357,-0.692,-0.291,0.331
613.0,-10.041,-1.083,1.306,-0.696,-0.29,0.316
617.0,-10.041,-1.083,1.306,-0.696,-0.29,0.316
621.0,-10.041,-1.083,1.306,-0.696,-0.29,0.316
625.0,-10.028,-1.035,1.276,-0.704,-0.287,0.291
629.0,-10.028,-1.035,1.276,-0.704,-0.287,0.291
633.0,-9.976,-1.0,1.313,-0.716,-0.286,0.261
637.0,-9.976,-1.0,1.313,-0.716,-0.286,0.261
641.0,-9.976,-1.0,1.313,-0.716,-0.286,0.261
645.0,-9.928,-0.991,1.33,-0.729,-0.292,0.227
649.0,-9.928,-0.991,1.33,-0.729,-0.292,0.227
652.0,-10.018,-0.97,1.293,-0.743,-0.299,0.188
656.0,-10.018,-0.97,1.293,-0.743,-0.299,0.188
660.0,-10.018,-0.97,1.293,-0.743,-0.299,0.188
664.0,-10.047,-0.946,1.316,-0.758,-0.305,0.147
668.0,-10.047,-0.946,1.316,-0.758,-0.305,0.147
672.0,-10.052,-0.963,1.323,-0.779,-0.316,0.111
676.0,-10.052,-0.963,1.323,-0.779,-0.316,0.111
680.0,-10.052,-0.963,1.286,-0.779,-0.316,0.111
684.0,-10.231,-0.963,1.286,-0.802,-0.325,0.076
688.0,-10.231,-0.963,1.286,-0.802,-0.325,0.076
692.0,-10.417,-0.985,1.294,-0.828,-0.325,0.045
696.0,-10.417,-0.985,1.294,-0.828,-0.325,0.045
700.0,-10.417,-1.004,1.378,-0.828,-0.325,0.045
704.0,-10.481,-1.004,1.378,-0.857,-0.329,0.024
708.0,-10.481,-1.004,1.378,-0.857,-0.329,0.024
712.0,-10.444,-1.033,1.438,-0.887,-0.345,0.009
716.0,-10.444,-1.033,1.438,-0.887,-0.345,0.009
720.0,-10.402,-1.061,1.423,-0.887,-0.345,0.009
724.0,-10.402,-1.061,1.423,-0.914,-0.365,-0.005
728.0,-10.402,-1.061,1.423,-0.914,-0.365,-0.005
732.0,-10.32,-1.07,1.398,-0.939,-0.383,-0.02
737.0,-10.32,-1.07,1.398,-0.939,-0.383,-0.02
741.0,-10.208,-1.079,1.312,-0.963,-0.399,-0.032
745.0,-10.208,-1.079,1.312,-0.963,-0.399,-0.032
749.0,-10.208,-1.079,1.312,-0.963,-0.399,-0.032
753.0,-10.286,-1.109,1.171,-0.989,-0.403,-0.042
757.0,-10.286,-1.109,1.171,-0.989,-0.403,-0.042
761.0,-10.534,-1.119,1.12,-1.016,-0.386,-0.046
765.0,-10.534,-1.119,1.12,-1.016,-0.386,-0.046
769.0,-10.534,-1.119,1.345,-1.016,-0.386,-0.046
773.0,-10.71,-1.097,1.345,-1.042,-0.369,-0.041
777.0,-10.71,-1.097,1.345,-1.042,-0.369,-0.041
781.0,-10.418,-1.147,1.561,-1.062,-0.389,-0.019
786.0,-10.418,-1.147,1.561,-1.062,-0.389,-0.019
790.0,-10.049,-1.208,1.542,-1.062,-0.389,-0.001
794.0,-10.049,-1.208,1.542,-1.076,-0.433,-0.001
798.0,-10.049,-1.208,1.542,-1.076,-0.433,-0.001
802.0,-9.849,-1.184,1.535,-1.084,-0.462,0.002
806.0,-9.849,-1.184,1.535,-1.084,-0.462,0.002
810.0,-9.557,-1.174,1.545,-1.09,-0.493,0.002
814.0,-9.557,-1.174,1.545,-1.09,-0.493,0.002
817.0,-9.557,-1.174,1.545,-1.09,-0.493,0.002
821.0,-9.266,-1.117,1.437,-1.098,-0.533,0.004
825.0,-9.266,-1.117,1.437,-1.098,-0.533,0.004
829.0,-9.191,-1.122,1.169,-1.098,-0.559,0.001
833.0,-9.191,-1.122,1.169,-1.11,-0.559,0.001
837.0,-9.191,-1.122,1.169,-1.11,-0.559,0.001
841.0,-9.493,-1.092,1.016,-1.129,-0.55,-0.009
845.0,-9.493,-1.092,1.016,-1.129,-0.55,-0.009
849.0,-9.888,-1.144,1.044,-1.129,-0.528,-0.006
853.0,-9.888,-1.144,1.044,-1.154,-0.528,-0.006
857.0,-9.888,-1.144,1.044,-1.154,-0.528,-0.006
861.0,-10.223,-1.21,1.174,-1.18,-0.521,0.014
865.0,-10.223,-1.21,1.174,-1.18,-0.521,0.014
869.0,-10.479,-1.287,1.303,-1.2,-0.526,0.042
873.0,-10.479,-1.287,1.303,-1.2,-0.526,0.042
877.0,-10.479,-1.287,1.303,-1.2,-0.526,0.042
881.0,-10.572,-1.363,1.359,-1.213,-0.538,0.071
885.0,-10.572,-1.363,1.359,-1.213,-0.538,0.071
889.0,-10.591,-1.419,1.34,-1.224,-0.554,0.099
893.0,-10.591,-1.419,1.34,-1.224,-0.554,0.099
897.0,-10.591,-1.419,1.34,-1.224,-0.554,0.099
901.0,-10.698,-1.443,1.275,-1.233,-0.556,0.121
905.0,-10.698,-1.443,1.275,-1.233,-0.556,0.121
909.0,-10.777,-1.422,1.278,-1.24,-0.544,0.144
913.0,-10.777,-1.422,1.278,-1.24,-0.544,0.144
917.0,-10.777,-1.422,1.278,-1.24,-0.544,0.144
921.0,-10.829,-1.425,1.281,-1.245,-0.533,0.172
925.0,-10.829,-1.425,1.281,-1.245,-0.533,0.172
929.0,-11.014,-1.412,1.276,-1.248,-0.52,0.197
933.0,-11.014,-1.412,1.276,-1.248,-0.52,0.197
937.0,-11.014,-1.412,1.276,-1.248,-0.52,0.197
941.0,-11.162,-1.421,1.291,-1.244,-0.507,0.221
945.0,-11.162,-1.421,1.291,-1.244,-0.507,0.221
949.0,-11.127,-1.444,1.278,-1.239,-0.504,0.245
953.0,-11.127,-1.444,1.278,-1.239,-0.504,0.245
957.0,-11.127,-1.444,1.269,-1.239,-0.504,0.245
961.0,-11.068,-1.449,1.269,-1.233,-0.505,0.263
965.0,-11.068,-1.449,1.269,-1.233,-0.505,0.263
969.0,-11.046,-1.44,1.3,-1.224,-0.503,0.278
973.0,-11.046,-1.44,1.3,-1.224,-0.503,0.278
977.0,-11.046,-1.44,1.287,-1.224,-0.503,0.278
981.0,-10.891,-1.44,1.287,-1.211,-0.504,0.291
985.0,-10.891,-1.44,1.287,-1.211,-0.504,0.291
989.0,-10.642,-1.399,1.308,-1.199,-0.51,0.299
993.0,-10.642,-1.399,1.308,-1.199,-0.51,0.299
997.0,-10.44,-1.363,1.284,-1.199,-0.51,0.299
1001.0,-10.44,-1.363,1.284,-1.188,-0.514,0.298
1005.0,-10.44,-1.363,1.284,-1.188,-0.514,0.298
1009.0,-10.507,-1.294,1.248,-1.178,-0.507,0.293
1013.0,-10.507,-1.294,1.248,-1.178,-0.507,0.293
1017.0,-10.628,-1.277,1.255,-1.171,-0.49,0.292
1021.0,-10.628,-1.277,1.255,-1.171,-0.49,0.292
1025.0,-10.628,-1.277,1.255,-1.171,-0.49,0.292
1029.0,-10.715,-1.301,1.333,-1.166,-0.473,0.305
1033.0,-10.715,-1.301,1.333,-1.166,-0.473,0.305
1037.0,-10.784,-1.376,1.457,-1.159,-0.46,0.329
1041.0,-10.784,-1.376,1.457,-1.159,-0.46,0.329
1046.0,-10.784,-1.376,1.457,-1.159,-0.46,0.329
1050.0,-10.753,-1.46,1.557,-1.143,-0.454,0.362
1054.0,-10.753,-1.46,1.557,-1.143,-0.454,0.362
1058.0,-10.525,-1.509,1.633,-1.117,-0.459,0.398
1062.0,-10.525,-1.509,1.633,-1.117,-0.459,0.398
1066.0,-10.098,-1.538,1.577,-1.117,-0.459,0.431
1070.0,-10.098,-1.538,1.577,-1.084,-0.473,0.431
1074.0,-10.098,-1.538,1.577,-1.084,-0.473,0.431
1078.0,-9.83,-1.492,1.477,-1.05,-0.478,0.455
1082.0,-9.83,-1.492,1.477,-1.05,-0.478,0.455
1086.0,-9.693,-1.432,1.446,-1.015,-0.468,0.475
1090.0,-9.693,-1.432,1.446,-1.015,-0.468,0.475
1094.0,-9.693,-1.432,1.446,-1.015,-0.468,0.475
1098.0,-9.44,-1.382,1.464,-0.98,-0.46,0.5
1102.0,-9.44,-1.382,1.464,-0.98,-0.46,0.5
1106.0,-9.122,-1.362,1.414,-0.946,-0.465,0.525
1110.0,-9.122,-1.362,1.414,-0.946,-0.465,0.525
1114.0,-9.122,-1.362,1.414,-0.946,-0.465,0.525
1118.0,-9.048,-1.318,1.382,-0.915,-0.461,0.541
1122.0,-9.048,-1.318,1.382,-0.915,-0.461,0.541
1126.0,-9.177,-1.283,1.371,-0.888,-0.443,0.558
1130.0,-9.177,-1.283,1.371,-0.888,-0.443,0.558
1134.0,-9.177,-1.283,1.371,-0.888,-0.443,0.558
1138.0,-9.211,-1.286,1.415,-0.871,-0.425,0.588
1142.0,-9.211,-1.286,1.415,-0.871,-0.425,0.588
1146.0,-9.005,-1.339,1.444,-0.861,-0.415,0.627
1150.0,-9.005,-1.339,1.444,-0.861,-0.415,0.627
1154.0,-9.005,-1.339,1.444,-0.861,-0.415,0.627
1158.0,-8.772,-1.381,1.395,-0.855,-0.404,0.659
1162.0,-8.772,-1.381,1.395,-0.855,-0.404,0.659
1166.0,-8.716,-1.412,1.411,-0.847,-0.377,0.682
1170.0,-8.716,-1.412,1.411,-0.847,-0.377,0.682
1174.0,-8.716,-1.412,1.443,-0.847,-0.377,0.682
1178.0,-8.744,-1.43,1.443,-0.835,-0.341,0.712
1182.0,-8.744,-1.43,1.443,-0.835,-0.341,0.712
1186.0,-8.634,-1.469,1.512,-0.817,-0.311,0.756
1190.0,-8.634,-1.469,1.512,-0.817,-0.311,0.756
1194.0,-8.634,-1.55,1.57,-0.817,-0.311,0.756
1198.0,-8.347,-1.55,1.57,-0.788,-0.295,0.802
1202.0,-8.347,-1.55,1.57,-0.788,-0.295,0.802
1206.0,-8.02,-1.623,1.527,-0.746,-0.286,0.843
1210.0,-8.02,-1.623,1.527,-0.746,-0.286,0.843
1214.0,-7.904,-1.701,1.507,-0.746,-0.286,0.843
1218.0,-7.904,-1.701,1.507,-0.692,-0.271,0.877
1222.0,-7.904,-1.701,1.507,-0.692,-0.271,0.877
1226.0,-7.862,-1.781,1.418,-0.628,-0.25,0.915
1230.0,-7.862,-1.781,1.418,-0.628,-0.25,0.915
1234.0,-7.924,-1.841,1.347,-0.628,-0.25,0.96
1238.0,-7.924,-1.841,1.347,-0.558,-0.22,0.96
1242.0,-7.924,-1.841,1.347,-0.558,-0.22,0.96
1246.0,-8.085,-1.899,1.393,-0.484,-0.185,1.014
1250.0,-8.085,-1.899,1.393,-0.484,-0.185,1.014
1254.0,-8.245,-2.02,1.388,-0.403,-0.158,1.074
1258.0,-8.245,-2.02,1.388,-0.403,-0.158,1.074
1262.0,-8.245,-2.02,1.388,-0.403,-0.158,1.074
1266.0,-8.469,-2.127,1.343,-0.315,-0.134,1.137
1270.0,-8.469,-2.127,1.343,-0.315,-0.134,1.137
1274.0,-8.791,-2.196,1.411,-0.22,-0.105,1.197
1278.0,-8.791,-2.196,1.411,-0.22,-0.105,1.197
1282.0,-8.791,-2.196,1.411,-0.22,-0.105,1.197
1286.0,-8.961,-2.262,1.485,-0.117,-0.086,1.258
1290.0,-8.961,-2.262,1.485,-0.117,-0.086,1.258
1294.0,-8.902,-2.313,1.521,-0.005,-0.083,1.316
1298.0,-8.902,-2.313,1.521,-0.005,-0.083,1.316
1302.0,-8.902,-2.313,1.521,-0.005,-0.083,1.316
1306.0,-8.695,-2.316,1.576,0.111,-0.088,1.36
1310.0,-8.695,-2.316,1.576,0.111,-0.088,1.36
1314.0,-8.428,-2.317,1.588,0.233,-0.097,1.385
1317.0,-8.428,-2.317,1.588,0.233,-0.097,1.385
1321.0,-8.428,-2.317,1.588,0.233,-0.097,1.385
1325.0,-8.109,-2.27,1.512,0.355,-0.113,1.391
1329.0,-8.109,-2.27,1.512,0.355,-0.113,1.391
1333.0,-7.801,-2.191,1.391,0.471,-0.125,1.38
1337.0,-7.801,-2.191,1.391,0.471,-0.125,1.38
1341.0,-7.801,-2.191,1.391,0.471,-0.125,1.38
1345.0,-7.544,-2.09,1.293,0.576,-0.128,1.355
1349.0,-7.544,-2.09,1.293,0.576,-0.128,1.355
1353.0,-7.365,-1.995,1.207,0.667,-0.123,1.322
1357.0,-7.365,-1.995,1.207,0.667,-0.123,1.322
1360.0,-7.365,-1.995,1.207,0.667,-0.123,1.322
1364.0,-7.222,-1.907,1.174,0.747,-0.113,1.286
1368.0,-7.222,-1.907,1.174,0.747,-0.113,1.286
1372.0,-7.135,-1.852,1.184,0.747,-0.101,1.25
1376.0,-7.135,-1.852,1.184,0.816,-0.101,1.25
1380.0,-7.135,-1.852,1.184,0.816,-0.101,1.25
1384.0,-7.062,-1.825,1.218,0.877,-0.09,1.217
1388.0,-7.062,-1.825,1.218,0.877,-0.09,1.217
1392.0,-7.009,-1.817,1.256,0.877,-0.09,1.184
1396.0,-7.009,-1.817,1.256,0.931,-0.086,1.184
1399.0,-7.009,-1.817,1.256,0.931,-0.086,1.184
1403.0,-6.928,-1.831,1.275,0.979,-0.085,1.15
1407.0,-6.928,-1.831,1.275,0.979,-0.085,1.15
1411.0,-6.896,-1.838,1.274,0.979,-0.085,1.15
1415.0,-6.896,-1.838,1.274,1.019,-0.084,1.112
1419.0,-6.896,-1.838,1.274,1.019,-0.084,1.112
1423.0,-6.907,-1.848,1.283,1.055,-0.08,1.072
1427.0,-6.907,-1.848,1.283,1.055,-0.08,1.072
1431.0,-6.907,-1.848,1.327,1.055,-0.08,1.072
1435.0,-6.996,-1.829,1.327,1.088,-0.077,1.035
1439.0,-6.996,-1.829,1.327,1.088,-0.077,1.035
1442.0,-7.202,-1.843,1.356,1.12,-0.077,1.005
1446.0,-7.202,-1.843,1.356,1.12,-0.077,1.005
1450.0,-7.202,-1.843,1.356,1.12,-0.077,1.005
1454.0,-7.589,-1.878,1.365,1.152,-0.081,0.982
1458.0,-7.589,-1.878,1.365,1.152,-0.081,0.982
1462.0,-8.149,-1.932,1.341,1.185,-0.089,0.971
1466.0,-8.149,-1.932,1.341,1.185,-0.089,0.971
1470.0,-8.149,-1.932,1.341,1.185,-0.089,0.971
1474.0,-8.9,-2.016,1.305,1.219,-0.098,0.969
1478.0,-8.9,-2.016,1.305,1.219,-0.098,0.969
1482.0,-9.819,-2.118,1.24,1.255,-0.11,0.973
1485.0,-9.819,-2.118,1.24,1.255,-0.11,0.973
1489.0,-9.819,-2.118,1.24,1.255,-0.11,0.973
1493.0,-10.917,-2.252,1.152,1.295,-0.123,0.98
1497.0,-10.917,-2.252,1.152,1.295,-0.123,0.98
1501.0,-12.141,-2.365,1.063,1.338,-0.141,0.988
1505.0,-12.141,-2.365,1.063,1.338,-0.141,0.988
1509.0,-12.141,-2.365,1.063,1.338,-0.141,0.988
1513.0,-13.257,-2.444,1.02,1.384,-0.174,1.001
1517.0,-13.257,-2.444,1.02,1.384,-0.174,1.001
1521.0,-14.046,-2.5,0.944,1.432,-0.227,1.017
1525.0,-14.046,-2.5,0.944,1.432,-0.227,1.017
1529.0,-14.046,-2.5,0.944,1.432,-0.227,1.017
1533.0,-14.48,-2.509,0.811,1.473,-0.29,1.027
1537.0,-14.48,-2.509,0.811,1.473,-0.29,1.027
1541.0,-14.734,-2.449,0.651,1.505,-0.347,1.017
1545.0,-14.734,-2.449,0.651,1.505,-0.347,1.017
1549.0,-14.734,-2.449,0.516,1.505,-0.347,1.017
1553.0,-14.929,-2.327,0.516,1.523,-0.391,0.985
1557.0,-14.929,-2.327,0.516,1.523,-0.391,0.985
1561.0,-15.032,-2.18,0.383,1.523,-0.429,0.937
1565.0,-15.032,-2.18,0.383,1.523,-0.429,0.937
1569.0,-14.963,-2.018,0.251,1.523,-0.429,0.937
1573.0,-14.963,-2.018,0.251,1.501,-0.464,0.877
1577.0,-14.963,-2.018,0.251,1.501,-0.464,0.877
1581.0,-14.69,-1.837,0.135,1.457,-0.495,0.811
1585.0,-14.69,-1.837,0.135,1.457,-0.495,0.811
1589.0,-14.136,-1.689,0.044,1.457,-0.495,0.811
1593.0,-14.136,-1.689,0.044,1.388,-0.523,0.744
1597.0,-14.136,-1.689,0.044,1.388,-0.523,0.744
1601.0,-13.359,-1.589,-0.034,1.3,-0.543,0.677
1605.0,-13.359,-1.589,-0.034,1.3,-0.543,0.677
1609.0,-12.541,-1.537,-0.066,1.194,-0.543,0.609
1613.0,-12.541,-1.537,-0.066,1.194,-0.543,0.609
1617.0,-12.541,-1.537,-0.066,1.194,-0.543,0.609
1621.0,-11.946,-1.541,-0.038,1.074,-0.52,0.539
1626.0,-11.946,-1.541,-0.038,1.074,-0.52,0.539
1630.0,-11.725,-1.597,0.005,0.945,-0.471,0.466
1634.0,-11.725,-1.597,0.005,0.945,-0.471,0.466
1638.0,-11.725,-1.597,0.005,0.945,-0.471,0.466
1642.0,-11.889,-1.649,0.147,0.811,-0.41,0.39
1646.0,-11.889,-1.649,0.147,0.811,-0.41,0.39
1650.0,-12.209,-1.679,0.409,0.671,-0.353,0.313
1654.0,-12.209,-1.679,0.409,0.671,-0.353,0.313
1658.0,-12.209,-1.679,0.409,0.671,-0.353,0.313
1662.0,-12.381,-1.831,0.739,0.535,-0.328,0.232
1666.0,-12.381,-1.831,0.739,0.535,-0.328,0.232
1670.0,-11.958,-1.86,1.077,0.438,-0.364,0.119
1674.0,-11.958,-1.86,1.077,0.438,-0.364,0.119
1678.0,-11.958,-1.86,1.134,0.438,-0.364,0.119
1682.0,-11.131,-1.909,1.134,0.368,-0.444,-0.014
1686.0,-11.131,-1.909,1.134,0.368,-0.444,-0.014
1690.0,-10.448,-1.929,0.884,0.322,-0.526,-0.188
1694.0,-10.448,-1.929,0.884,0.322,-0.526,-0.188
1698.0,-10.231,-1.851,0.463,0.322,-0.526,-0.415
1702.0,-10.231,-1.851,0.463,0.294,-0.566,-0.415
1706.0,-10.231,-1.851,0.463,0.294,-0.566,-0.415
1710.0,-10.66,-1.715,0.083,0.277,-0.546,-0.681
1714.0,-10.66,-1.715,0.083,0.277,-0.546,-0.681
1718.0,-11.508,-1.555,-0.008,0.27,-0.489,-0.958
1722.0,-11.508,-1.555,-0.008,0.27,-0.489,-0.958
1727.0,-11.508,-1.555,-0.008,0.27,-0.489,-0.958
1731.0,-12.258,-1.421,0.136,0.279,-0.435,-1.223
1735.0,-12.258,-1.421,0.136,0.279,-0.435,-1.223
1739.0,-12.544,-1.365,0.371,0.314,-0.413,-1.47
1743.0,-12.544,-1.365,0.371,0.314,-0.413,-1.47
1747.0,-12.379,-1.344,0.565,0.314,-0.413,-1.704
1751.0,-12.379,-1.344,0.565,0.381,-0.418,-1.704
1755.0,-12.379,-1.344,0.565,0.381,-0.418,-1.704
1759.0,-11.983,-1.363,0.66,0.478,-0.427,-1.933
1763.0,-11.983,-1.363,0.66,0.478,-0.427,-1.933
1767.0,-11.481,-1.375,0.706,0.597,-0.423,-2.156
1772.0,-11.481,-1.375,0.706,0.597,-0.423,-2.156
1776.0,-11.481,-1.375,0.706,0.597,-0.423,-2.156
1780.0,-11.057,-1.372,0.761,0.727,-0.399,-2.37
1784.0,-11.057,-1.372,0.761,0.727,-0.399,-2.37
1788.0,-10.754,-1.365,0.872,0.857,-0.36,-2.567
1792.0,-10.754,-1.365,0.872,0.857,-0.36,-2.567
1796.0,-10.754,-1.357,1.016,0.857,-0.36,-2.567
1800.0,-10.641,-1.357,1.016,0.984,-0.32,-2.741
1804.0,-10.641,-1.357,1.016,0.984,-0.32,-2.741
1808.0,-10.651,-1.382,1.133,1.111,-0.29,-2.889
1812.0,-10.651,-1.382,1.133,1.111,-0.29,-2.889
1816.0,-10.707,-1.464,1.186,1.111,-0.275,-3.01
1821.0,-10.707,-1.464,1.186,1.237,-0.275,-3.01
1825.0,-10.707,-1.464,1.186,1.237,-0.275,-3.01
1829.0,-10.684,-1.588,1.196,1.369,-0.277,-3.107
1833.0,-10.684,-1.588,1.196,1.369,-0.277,-3.107
1837.0,-10.572,-1.729,1.169,1.507,-0.292,-3.186
1841.0,-10.572,-1.729,1.169,1.507,-0.292,-3.186
1845.0,-10.572,-1.729,1.169,1.507,-0.292,-3.186
1849.0,-10.379,-1.802,1.14,1.651,-0.318,-3.253
1853.0,-10.379,-1.802,1.14,1.651,-0.318,-3.253
1857.0,-10.183,-1.802,1.124,1.797,-0.355,-3.308
1861.0,-10.183,-1.802,1.124,1.797,-0.355,-3.308
1865.0,-9.983,-1.702,1.089,1.797,-0.355,-3.308
1869.0,-9.983,-1.702,1.089,1.934,-0.404,-3.346
1873.0,-9.983,-1.702,1.089,1.934,-0.404,-3.346
1877.0,-9.762,-1.546,1.011,2.055,-0.464,-3.366
1881.0,-9.762,-1.546,1.011,2.055,-0.464,-3.366
1885.0,-9.517,-1.382,0.929,2.055,-0.464,-3.368
1889.0,-9.517,-1.382,0.929,2.155,-0.525,-3.368
1893.0,-9.517,-1.382,0.929,2.155,-0.525,-3.368
1897.0,-9.263,-1.199,0.857,2.232,-0.583,-3.353
1901.0,-9.263,-1.199,0.857,2.232,-0.583,-3.353
1905.0,-8.938,-1.029,0.831,2.232,-0.638,-3.323
1909.0,-8.938,-1.029,0.831,2.284,-0.638,-3.323
1913.0,-8.938,-1.029,0.831,2.284,-0.638,-3.323
1917.0,-8.617,-0.851,0.84,2.315,-0.689,-3.285
1921.0,-8.617,-0.851,0.84,2.315,-0.689,-3.285
1925.0,-8.313,-0.705,0.867,2.324,-0.731,-3.238
1929.0,-8.313,-0.705,0.867,2.324,-0.731,-3.238
1933.0,-8.313,-0.705,0.867,2.324,-0.731,-3.238
1937.0,-8.02,-0.541,0.91,2.313,-0.765,-3.185
1941.0,-8.02,-0.541,0.91,2.313,-0.765,-3.185
1945.0,-7.783,-0.404,0.963,2.283,-0.79,-3.124
1949.0,-7.783,-0.404,0.963,2.283,-0.79,-3.124
1953.0,-7.783,-0.404,0.963,2.283,-0.79,-3.124
1957.0,-7.58,-0.288,1.024,2.234,-0.81,-3.056
1961.0,-7.58,-0.288,1.024,2.234,-0.81,-3.056
1965.0,-7.449,-0.191,1.064,2.167,-0.822,-2.978
1969.0,-7.449,-0.191,1.064,2.167,-0.822,-2.978
1973.0,-7.449,-0.191,1.064,2.167,-0.822,-2.978
1977.0,-7.312,-0.124,1.098,2.083,-0.83,-2.893
1981.0,-7.312,-0.124,1.098,2.083,-0.83,-2.893
1985.0,-7.179,-0.072,1.095,1.983,-0.831,-2.802
1989.0,-7.179,-0.072,1.095,1.983,-0.831,-2.802
1993.0,-7.179,-0.072,1.095,1.983,-0.831,-2.802
1997.0,-7.083,-0.044,1.114,1.866,-0.821,-2.708
2001.0,-7.083,-0.044,1.114,1.866,-0.821,-2.708
2005.0,-7.029,-0.025,1.123,1.738,-0.803,-2.615
2009.0,-7.029,-0.025,1.123,1.738,-0.803,-2.615
2013.0,-7.029,-0.025,1.125,1.738,-0.803,-2.615
2017.0,-6.988,-0.002,1.125,1.6,-0.778,-2.52
2021.0,-6.988,-0.002,1.125,1.6,-0.778,-2.52
2025.0,-6.991,0.022,1.163,1.454,-0.748,-2.426
2029.0,-6.991,0.022,1.163,1.454,-0.748,-2.426
2033.0,-6.991,0.022,1.247,1.454,-0.748,-2.426
2037.0,-7.007,0.039,1.247,1.304,-0.716,-2.331
2041.0,-7.007,0.039,1.247,1.304,-0.716,-2.331
2045.0,-6.968,0.039,1.308,1.154,-0.691,-2.239
2049.0,-6.968,0.039,1.308,1.154,-0.691,-2.239
2052.0,-6.968,0.039,1.308,1.154,-0.691,-2.239
2056.0,-6.873,0.05,1.37,1.01,-0.673,-2.153
2060.0,-6.873,0.05,1.37,1.01,-0.673,-2.153
2064.0,-6.73,0.147,1.418,0.875,-0.664,-2.079
2068.0,-6.73,0.147,1.418,0.875,-0.664,-2.079
2072.0,-6.73,0.147,1.418,0.875,-0.664,-2.079
2076.0,-6.552,0.099,1.591,0.756,-0.661,-2.021
2080.0,-6.552,0.099,1.591,0.756,-0.661,-2.021
2084.0,-6.301,0.135,1.673,0.675,-0.661,-1.966
2088.0,-6.301,0.135,1.673,0.675,-0.661,-1.966
2092.0,-6.301,0.135,1.673,0.675,-0.661,-1.966
2095.0,-6.072,0.249,1.716,0.608,-0.673,-1.928
2099.0,-6.072,0.249,1.716,0.608,-0.673,-1.928
2103.0,-5.979,0.295,1.798,0.543,-0.681,-1.905
2107.0,-5.979,0.295,1.798,0.543,-0.681,-1.905
2111.0,-5.979,0.295,1.798,0.543,-0.681,-1.905
2115.0,-6.011,0.36,1.901,0.489,-0.674,-1.884
2119.0,-6.011,0.36,1.901,0.489,-0.674,-1.884
2123.0,-6.184,0.374,2.075,0.447,-0.652,-1.852
2127.0,-6.184,0.374,2.075,0.447,-0.652,-1.852
2131.0,-6.184,0.374,2.075,0.447,-0.652,-1.852
2134.0,-6.402,0.29,2.354,0.425,-0.608,-1.792
2138.0,-6.402,0.29,2.354,0.425,-0.608,-1.792
2142.0,-6.642,0.145,2.673,0.43,-0.54,-1.703
2146.0,-6.642,0.145,2.673,0.43,-0.54,-1.703
2150.0,-6.642,0.145,2.673,0.43,-0.54,-1.703
2154.0,-6.85,-0.089,3.221,0.461,-0.441,-1.593
2158.0,-6.85,-0.089,3.221,0.461,-0.441,-1.593
2162.0,-7.192,-0.366,3.997,0.461,-0.313,-1.472
2166.0,-7.192,-0.366,3.997,0.521,-0.313,-1.472
2170.0,-7.192,-0.366,3.997,0.521,-0.313,-1.472
2174.0,-7.869,-0.54,4.826,0.609,-0.175,-1.335
2178.0,-7.869,-0.54,4.826,0.609,-0.175,-1.335
2182.0,-8.999,-0.611,5.831,0.716,-0.034,-1.157
2186.0,-8.999,-0.611,5.831,0.716,-0.034,-1.157
2190.0,-8.999,-0.611,5.831,0.716,-0.034,-1.157
2194.0,-10.497,-0.775,6.776,0.828,0.082,-0.915
2198.0,-10.497,-0.775,6.776,0.828,0.082,-0.915
2202.0,-11.902,-1.001,7.347,0.919,0.156,-0.608
2206.0,-11.902,-1.001,7.347,0.919,0.156,-0.608
2210.0,-11.902,-1.001,7.347,0.919,0.156,-0.608
2214.0,-12.824,-1.128,7.655,0.954,0.189,-0.282
2218.0,-12.824,-1.128,7.655,0.954,0.189,-0.282
2222.0,-13.098,-1.152,7.825,0.916,0.206,0.002
2226.0,-13.098,-1.152,7.825,0.916,0.206,0.002
2230.0,-13.098,-1.152,7.825,0.916,0.206,0.002
2234.0,-12.899,-1.088,7.913,0.814,0.235,0.2
2238.0,-12.899,-1.088,7.913,0.814,0.235,0.2
2241.0,-12.71,-0.952,7.993,0.678,0.298,0.314
2245.0,-12.71,-0.952,7.993,0.678,0.298,0.314
2249.0,-12.71,-0.952,7.993,0.678,0.298,0.314
2253.0,-13.004,-0.867,8.111,0.525,0.389,0.365
2257.0,-13.004,-0.867,8.111,0.525,0.389,0.365
2261.0,-13.799,-0.77,8.235,0.367,0.479,0.38
2265.0,-13.799,-0.77,8.235,0.367,0.479,0.38
2269.0,-13.799,-0.77,8.235,0.367,0.479,0.38
2273.0,-14.947,-0.61,8.139,0.203,0.528,0.396
2277.0,-14.947,-0.61,8.139,0.203,0.528,0.396
2280.0,-16.354,-0.512,7.789,0.019,0.539,0.432
2284.0,-16.354,-0.512,7.789,0.019,0.539,0.432
2288.0,-16.354,-0.512,7.789,0.019,0.539,0.432
2292.0,-17.588,-0.475,7.424,-0.186,0.546,0.499
2296.0,-17.588,-0.475,7.424,-0.186,0.546,0.499
2300.0,-18.129,-0.573,7.217,-0.186,0.563,0.591
2304.0,-18.129,-0.573,7.217,-0.407,0.563,0.591
2308.0,-18.129,-0.573,7.217,-0.407,0.563,0.591
2312.0,-17.908,-0.771,7.29,-0.622,0.58,0.682
2316.0,-17.908,-0.771,7.29,-0.622,0.58,0.682
2320.0,-17.381,-0.981,7.397,-0.803,0.583,0.743
2324.0,-17.381,-0.981,7.397,-0.803,0.583,0.743
2328.0,-17.381,-0.981,7.397,-0.803,0.583,0.743
2332.0,-16.366,-1.11,7.44,-0.94,0.549,0.772
2336.0,-16.366,-1.11,7.44,-0.94,0.549,0.772
2340.0,-15.007,-1.157,7.245,-1.039,0.454,0.782
2344.0,-15.007,-1.157,7.245,-1.039,0.454,0.782
2348.0,-15.007,-1.157,7.245,-1.039,0.454,0.782
2352.0,-13.582,-1.135,6.807,-1.107,0.314,0.782
2356.0,-13.582,-1.135,6.807,-1.107,0.314,0.782
2360.0,-12.184,-1.125,6.203,-1.155,0.166,0.784
2364.0,-12.184,-1.125,6.203,-1.155,0.166,0.784
2368.0,-12.184,-1.125,6.203,-1.155,0.166,0.784
2372.0,-10.953,-1.156,5.651,-1.198,0.051,0.813
2376.0,-10.953,-1.156,5.651,-1.198,0.051,0.813
2380.0,-9.928,-1.242,5.232,-1.237,-0.023,0.89
2384.0,-9.928,-1.242,5.232,-1.237,-0.023,0.89
2388.0,-9.928,-1.242,5.232,-1.237,-0.023,0.89
2392.0,-9.177,-1.454,4.795,-1.268,-0.066,1.022
2396.0,-9.177,-1.454,4.795,-1.268,-0.066,1.022
2400.0,-8.792,-1.756,4.135,-1.299,-0.084,1.203
2404.0,-8.792,-1.756,4.135,-1.299,-0.084,1.203
2408.0,-8.792,-1.756,3.468,-1.299,-0.084,1.203
2412.0,-8.827,-2.097,3.468,-1.345,-0.064,1.422
2416.0,-8.827,-2.097,3.468,-1.345,-0.064,1.422
2420.0,-9.202,-2.439,2.95,-1.416,-0.003,1.676
2424.0,-9.202,-2.439,2.95,-1.416,-0.003,1.676
2428.0,-9.764,-2.765,2.614,-1.416,-0.003,1.676
2432.0,-9.764,-2.765,2.614,-1.515,0.081,1.959
2436.0,-9.764,-2.765,2.614,-1.515,0.081,1.959
2440.0,-10.366,-3.08,2.451,-1.632,0.168,2.257
2444.0,-10.366,-3.08,2.451,-1.632,0.168,2.257
2448.0,-10.965,-3.334,2.363,-1.632,0.168,2.257
2452.0,-10.965,-3.334,2.363,-1.758,0.236,2.556
2456.0,-10.965,-3.334,2.363,-1.758,0.236,2.556
2460.0,-11.524,-3.581,2.325,-1.882,0.277,2.845
2464.0,-11.524,-3.581,2.325,-1.882,0.277,2.845
2468.0,-12.045,-3.792,2.288,-1.882,0.277,3.127
2472.0,-12.045,-3.792,2.288,-1.997,0.284,3.127
2476.0,-12.045,-3.792,2.288,-1.997,0.284,3.127
2480.0,-12.501,-3.963,2.198,-2.097,0.258,3.398
2484.0,-12.501,-3.963,2.198,-2.097,0.258,3.398
2488.0,-12.88,-4.067,2.039,-2.097,0.208,3.657
2492.0,-12.88,-4.067,2.039,-2.18,0.208,3.657
2496.0,-12.88,-4.067,2.039,-2.18,0.208,3.657
2500.0,-13.185,-4.044,1.813,-2.245,0.147,3.905
2504.0,-13.185,-4.044,1.813,-2.245,0.147,3.905
2508.0,-13.466,-4.006,1.56,-2.297,0.087,4.141
2512.0,-13.466,-4.006,1.56,-2.297,0.087,4.141
2516.0,-13.466,-4.006,1.56,-2.297,0.087,4.141
2520.0,-13.791,-3.963,1.268,-2.343,0.035,4.364
2524.0,-13.791,-3.963,1.268,-2.343,0.035,4.364
2528.0,-14.099,-3.936,0.985,-2.385,-0.006,4.571
2532.0,-14.099,-3.936,0.985,-2.385,-0.006,4.571
2536.0,-14.099,-3.936,0.985,-2.385,-0.006,4.571
2540.0,-14.233,-3.881,0.684,-2.425,-0.041,4.748
2544.0,-14.233,-3.881,0.684,-2.425,-0.041,4.748
2548.0,-14.163,-3.851,0.44,-2.471,-0.073,4.888
2552.0,-14.163,-3.851,0.44,-2.471,-0.073,4.888
2556.0,-14.163,-3.797,0.247,-2.471,-0.073,4.888
2560.0,-13.929,-3.797,0.247,-2.522,-0.105,4.975
2564.0,-13.929,-3.797,0.247,-2.522,-0.105,4.975
2568.0,-13.607,-3.766,0.067,-2.58,-0.143,5.003
2572.0,-13.607,-3.766,0.067,-2.58,-0.143,5.003
2577.0,-13.221,-3.747,-0.138,-2.58,-0.188,4.987
2581.0,-13.221,-3.747,-0.138,-2.642,-0.188,4.987
2585.0,-13.221,-3.747,-0.138,-2.642,-0.188,4.987
2589.0,-12.757,-3.703,-0.314,-2.708,-0.235,4.908
2593.0,-12.757,-3.703,-0.314,-2.708,-0.235,4.908
2597.0,-12.213,-3.671,-0.477,-2.776,-0.285,4.758
2602.0,-12.213,-3.671,-0.477,-2.776,-0.285,4.758
2606.0,-11.575,-3.598,-0.583,-2.776,-0.285,4.758
2610.0,-11.575,-3.598,-0.583,-2.842,-0.334,4.546
2614.0,-11.575,-3.598,-0.583,-2.842,-0.334,4.546
2618.0,-10.899,-3.495,-0.611,-2.901,-0.378,4.28
2622.0,-10.899,-3.495,-0.611,-2.901,-0.378,4.28
2627.0,-10.23,-3.418,-0.564,-2.944,-0.424,3.974
2631.0,-10.23,-3.418,-0.564,-2.944,-0.424,3.974
2635.0,-10.23,-3.418,-0.444,-2.944,-0.424,3.974
2639.0,-9.721,-3.318,-0.444,-2.957,-0.47,3.645
2643.0,-9.721,-3.318,-0.444,-2.957,-0.47,3.645
2647.0,-9.354,-3.24,-0.313,-2.931,-0.524,3.317
2651.0,-9.354,-3.24,-0.313,-2.931,-0.524,3.317
2655.0,-9.053,-3.184,-0.262,-2.931,-0.524,3.015
2659.0,-9.053,-3.184,-0.262,-2.854,-0.588,3.015
2664.0,-9.053,-3.184,-0.262,-2.854,-0.588,3.015
2668.0,-8.763,-3.209,-0.254,-2.725,-0.65,2.754
2672.0,-8.763,-3.209,-0.254,-2.725,-0.65,2.754
2676.0,-8.488,-3.328,-0.266,-2.545,-0.699,2.541
2680.0,-8.488,-3.328,-0.266,-2.545,-0.699,2.541
2684.0,-8.488,-3.328,-0.266,-2.545,-0.699,2.541
2688.0,-8.261,-3.465,-0.284,-2.319,-0.732,2.37
2692.0,-8.261,-3.465,-0.284,-2.319,-0.732,2.37
2696.0,-8.112,-3.641,-0.299,-2.056,-0.75,2.235
2700.0,-8.112,-3.641,-0.299,-2.056,-0.75,2.235
2704.0,-8.065,-3.845,-0.349,-2.056,-0.75,2.235
2708.0,-8.065,-3.845,-0.349,-1.767,-0.755,2.128
2713.0,-8.065,-3.845,-0.349,-1.767,-0.755,2.128
2717.0,-8.083,-4.049,-0.407,-1.458,-0.751,2.046
2721.0,-8.083,-4.049,-0.407,-1.458,-0.751,2.046
2725.0,-8.252,-4.282,-0.48,-1.142,-0.738,1.982
2729.0,-8.252,-4.282,-0.48,-1.142,-0.738,1.982
2733.0,-8.252,-4.282,-0.48,-1.142,-0.738,1.982
2737.0,-8.648,-4.5,-0.539,-0.826,-0.716,1.938
2741.0,-8.648,-4.5,-0.539,-0.826,-0.716,1.938
2745.0,-9.363,-4.688,-0.592,-0.514,-0.684,1.921
2749.0,-9.363,-4.688,-0.592,-0.514,-0.684,1.921
2753.0,-9.363,-4.688,-0.592,-0.514,-0.684,1.921
2757.0,-10.53,-4.853,-0.668,-0.214,-0.646,1.939
2762.0,-10.53,-4.853,-0.668,-0.214,-0.646,1.939
2766.0,-12.178,-4.99,-0.827,0.06,-0.605,1.996
2770.0,-12.178,-4.99,-0.827,0.06,-0.605,1.996
2774.0,-14.324,-5.122,-1.031,0.06,-0.54,2.086
2778.0,-14.324,-5.122,-1.031,0.293,-0.54,2.086
2782.0,-14.324,-5.122,-1.031,0.293,-0.54,2.086
2786.0,-16.754,-5.246,-1.001,0.48,-0.43,2.2
2790.0,-16.754,-5.246,-1.001,0.48,-0.43,2.2
2794.0,-18.541,-5.368,-0.507,0.637,-0.31,2.319
2798.0,-18.541,-5.368,-0.507,0.637,-0.31,2.319
2802.0,-18.541,-5.368,-0.507,0.637,-0.31,2.319
2807.0,-18.791,-5.335,0.122,0.788,-0.255,2.412
2811.0,-18.791,-5.335,0.122,0.788,-0.255,2.412
2815.0,-18.1,-5.135,0.668,0.951,-0.242,2.436
2818.0,-18.1,-5.135,0.668,0.951,-0.242,2.436
2822.0,-18.1,-5.135,0.869,0.951,-0.242,2.436
2826.0,-17.465,-4.702,0.869,1.141,-0.225,2.384
2830.0,-17.465,-4.702,0.869,1.141,-0.225,2.384
2834.0,-17.11,-4.129,0.832,1.343,-0.185,2.28
2838.0,-17.11,-4.129,0.832,1.343,-0.185,2.28
2842.0,-17.11,-3.631,0.668,1.343,-0.185,2.28
2846.0,-16.645,-3.631,0.668,1.532,-0.13,2.152
2850.0,-16.645,-3.631,0.668,1.532,-0.13,2.152
2854.0,-16.44,-3.202,0.496,1.696,-0.065,1.994
2858.0,-16.44,-3.202,0.496,1.696,-0.065,1.994
2862.0,-16.672,-2.819,0.271,1.696,-0.065,1.994
2866.0,-16.672,-2.819,0.271,1.835,0.025,1.789
2870.0,-16.672,-2.819,0.271,1.835,0.025,1.789
2874.0,-16.857,-2.492,0.02,1.945,0.118,1.546
2878.0,-16.857,-2.492,0.02,1.945,0.118,1.546
2882.0,-16.515,-2.139,-0.098,1.945,0.118,1.546
2886.0,-16.515,-2.139,-0.098,2.008,0.192,1.283
2890.0,-16.515,-2.139,-0.098,2.008,0.192,1.283
2894.0,-15.479,-1.767,0.005,2.015,0.251,1.0
2898.0,-15.479,-1.767,0.005,2.015,0.251,1.0
2902.0,-13.856,-1.417,0.339,2.015,0.251,1.0
2906.0,-13.856,-1.417,0.339,1.977,0.299,0.687
2910.0,-13.856,-1.417,0.339,1.977,0.299,0.687
2914.0,-11.967,-1.085,0.846,1.914,0.31,0.336
2917.0,-11.967,-1.085,0.846,1.914,0.31,0.336
2921.0,-11.967,-1.085,1.4,1.914,0.31,0.336
2925.0,-10.19,-0.689,1.4,1.839,0.266,-0.057
2929.0,-10.19,-0.689,1.4,1.839,0.266,-0.057
2933.0,-8.703,-0.187,1.918,1.76,0.173,-0.481
2937.0,-8.703,-0.187,1.918,1.76,0.173,-0.481
2941.0,-8.703,-0.187,2.254,1.76,0.173,-0.481
2945.0,-7.536,0.455,2.254,1.678,0.046,-0.904
2949.0,-7.536,0.455,2.254,1.678,0.046,-0.904
2953.0,-6.689,1.375,2.381,1.595,-0.087,-1.28
2957.0,-6.689,1.375,2.381,1.595,-0.087,-1.28
2960.0,-6.689,1.375,2.381,1.595,-0.087,-1.28
2964.0,-5.9,2.484,2.35,1.515,-0.201,-1.539
2968.0,-5.9,2.484,2.35,1.515,-0.201,-1.539
2972.0,-4.893,3.501,1.929,1.447,-0.28,-1.63
2976.0,-4.893,3.501,1.929,1.447,-0.28,-1.63
2980.0,-4.893,3.501,1.929,1.447,-0.28,-1.63
2984.0,-3.681,4.164,1.492,1.394,-0.272,-1.589
2988.0,-3.681,4.164,1.492,1.394,-0.272,-1.589
2992.0,-2.772,4.426,1.219,1.369,-0.142,-1.503
2996.0,-2.772,4.426,1.219,1.369,-0.142,-1.503
2999.0,-2.772,4.426,1.219,1.369,-0.142,-1.503
