deltaTime,Acc_X,Acc_Y,Acc_Z,Gyro_X,Gyro_Y,Gyro_Z
0.0,-8.659,-1.683,3.943,1.169,-0.039,0.08
3.0,-8.659,-1.683,3.943,1.169,-0.039,0.08
6.0,-8.97,-1.09,3.963,1.16,-0.035,0.117
9.0,-8.97,-1.09,3.963,1.16,-0.035,0.117
12.0,-8.97,-1.09,3.963,1.16,-0.035,0.117
15.0,-9.167,-0.742,3.999,1.028,-0.056,0.152
18.0,-9.167,-0.742,3.999,1.028,-0.056,0.152
21.0,-9.167,-0.742,3.999,1.028,-0.056,0.152
24.0,-9.464,-0.748,3.626,1.028,-0.073,0.189
27.0,-9.464,-0.748,3.626,0.819,-0.073,0.189
30.0,-9.464,-0.748,3.626,0.819,-0.073,0.189
33.0,-9.464,-0.748,3.626,0.819,-0.073,0.189
36.0,-9.874,-0.974,3.388,0.575,-0.032,0.221
39.0,-9.874,-0.974,3.388,0.575,-0.032,0.221
43.0,-10.14,-1.272,3.641,0.575,-0.032,0.238
47.0,-10.14,-1.272,3.641,0.342,0.046,0.238
51.0,-10.14,-1.272,3.641,0.342,0.046,0.238
54.0,-10.212,-1.571,4.139,0.168,0.092,0.232
58.0,-10.212,-1.571,4.139,0.168,0.092,0.232
62.0,-10.212,-1.571,4.139,0.168,0.092,0.232
66.0,-9.993,-1.984,4.622,0.085,0.08,0.192
69.0,-9.993,-1.984,4.622,0.085,0.08,0.192
73.0,-9.221,-2.268,4.947,0.085,0.08,0.113
77.0,-9.221,-2.268,4.947,0.111,0.03,0.113
80.0,-9.221,-2.268,4.947,0.111,0.03,0.113
84.0,-8.334,-2.325,5.21,0.224,-0.024,0.006
88.0,-8.334,-2.325,5.21,0.224,-0.024,0.006
91.0,-8.334,-2.325,5.21,0.224,-0.024,0.006
95.0,-7.648,-2.32,5.102,0.392,-0.073,-0.1
99.0,-7.648,-2.32,5.102,0.392,-0.073,-0.1
103.0,-7.551,-2.153,4.747,0.392,-0.073,-0.161
107.0,-7.551,-2.153,4.747,0.581,-0.073,-0.161
110.0,-7.551,-2.153,4.747,0.581,-0.073,-0.161
114.0,-8.072,-1.883,4.294,0.723,-0.014,-0.145
118.0,-8.072,-1.883,4.294,0.723,-0.014,-0.145
122.0,-8.694,-1.586,4.241,0.723,-0.014,-0.082
126.0,-8.694,-1.586,4.241,0.782,0.071,-0.082
130.0,-8.694,-1.586,4.241,0.782,0.071,-0.082
134.0,-8.655,-1.531,4.345,0.761,0.12,-0.04
138.0,-8.655,-1.531,4.345,0.761,0.12,-0.04
141.0,-8.655,-1.531,4.494,0.761,0.12,-0.04
145.0,-8.434,-1.457,4.494,0.685,0.151,-0.047
149.0,-8.434,-1.457,4.494,0.685,0.151,-0.047
153.0,-8.618,-1.147,4.637,0.554,0.213,-0.065
157.0,-8.618,-1.147,4.637,0.554,0.213,-0.065
160.0,-8.618,-1.147,4.637,0.554,0.213,-0.065
164.0,-9.269,-0.788,5.019,0.354,0.295,-0.068
168.0,-9.269,-0.788,5.019,0.354,0.295,-0.068
172.0,-9.544,-0.718,5.407,0.13,0.331,-0.073
176.0,-9.544,-0.718,5.407,0.13,0.331,-0.073
180.0,-9.544,-0.718,5.407,0.13,0.331,-0.073
183.0,-9.739,-0.727,5.868,-0.054,0.324,-0.093
187.0,-9.739,-0.727,5.868,-0.054,0.324,-0.093
191.0,-9.634,-0.54,6.126,-0.054,0.324,-0.129
195.0,-9.634,-0.54,6.126,-0.195,0.291,-0.129
199.0,-9.634,-0.54,6.126,-0.195,0.291,-0.129
203.0,-9.381,-0.17,5.92,-0.339,0.264,-0.193
207.0,-9.381,-0.17,5.92,-0.339,0.264,-0.193
211.0,-9.383,-0.275,5.914,-0.339,0.264,-0.193
215.0,-9.383,-0.275,5.914,-0.517,0.255,-0.253
219.0,-9.383,-0.275,5.914,-0.517,0.255,-0.253
222.0,-9.155,-0.464,5.986,-0.654,0.259,-0.246
226.0,-9.155,-0.464,5.986,-0.654,0.259,-0.246
230.0,-9.155,-0.464,5.78,-0.654,0.259,-0.246
234.0,-8.744,-0.471,5.78,-0.747,0.244,-0.218
238.0,-8.744,-0.471,5.78,-0.747,0.244,-0.218
242.0,-8.331,-0.115,5.377,-0.855,0.209,-0.213
246.0,-8.331,-0.115,5.377,-0.855,0.209,-0.213
250.0,-8.331,-0.115,5.377,-0.855,0.209,-0.213
254.0,-9.018,0.059,4.837,-1.036,0.149,-0.243
258.0,-9.018,0.059,4.837,-1.036,0.149,-0.243
261.0,-9.83,-0.22,4.296,-1.251,0.038,-0.26
265.0,-9.83,-0.22,4.296,-1.251,0.038,-0.26
269.0,-9.83,-0.22,4.296,-1.251,0.038,-0.26
273.0,-10.121,-0.508,3.939,-1.429,-0.076,-0.245
277.0,-10.121,-0.508,3.939,-1.429,-0.076,-0.245
281.0,-9.739,-0.741,3.649,-1.553,-0.194,-0.218
285.0,-9.739,-0.741,3.649,-1.553,-0.194,-0.218
289.0,-9.739,-0.741,3.649,-1.553,-0.194,-0.218
293.0,-9.131,-0.913,3.421,-1.624,-0.316,-0.201
297.0,-9.131,-0.913,3.421,-1.624,-0.316,-0.201
301.0,-8.594,-1.043,2.982,-1.656,-0.428,-0.212
305.0,-8.594,-1.043,2.982,-1.656,-0.428,-0.212
309.0,-8.594,-1.043,2.387,-1.656,-0.428,-0.212
313.0,-8.477,-1.102,2.387,-1.672,-0.495,-0.238
317.0,-8.477,-1.102,2.387,-1.672,-0.495,-0.238
321.0,-8.791,-1.125,2.028,-1.699,-0.496,-0.247
325.0,-8.791,-1.125,2.028,-1.699,-0.496,-0.247
329.0,-9.158,-1.194,2.014,-1.699,-0.496,-0.247
333.0,-9.158,-1.194,2.014,-1.742,-0.464,-0.228
337.0,-9.158,-1.194,2.014,-1.742,-0.464,-0.228
341.0,-9.292,-1.281,2.032,-1.787,-0.449,-0.189
345.0,-9.292,-1.281,2.032,-1.787,-0.449,-0.189
349.0,-9.395,-1.361,1.747,-1.787,-0.449,-0.189
353.0,-9.395,-1.361,1.747,-1.831,-0.446,-0.138
357.0,-9.395,-1.361,1.747,-1.831,-0.446,-0.138
361.0,-10.05,-1.544,1.667,-1.886,-0.404,-0.077
365.0,-10.05,-1.544,1.667,-1.886,-0.404,-0.077
369.0,-10.786,-1.722,1.75,-1.945,-0.343,-0.005
373.0,-10.786,-1.722,1.75,-1.945,-0.343,-0.005
377.0,-10.786,-1.722,1.75,-1.945,-0.343,-0.005
382.0,-10.998,-1.819,1.831,-2.005,-0.308,0.082
385.0,-10.998,-1.819,1.831,-2.005,-0.308,0.082
389.0,-10.554,-1.904,1.806,-2.07,-0.295,0.167
393.0,-10.554,-1.904,1.806,-2.07,-0.295,0.167
397.0,-10.554,-1.904,1.806,-2.07,-0.295,0.167
401.0,-9.819,-2.009,1.917,-2.139,-0.258,0.214
405.0,-9.819,-2.009,1.917,-2.139,-0.258,0.214
409.0,-8.844,-2.12,2.126,-2.187,-0.185,0.21
413.0,-8.844,-2.12,2.126,-2.187,-0.185,0.21
417.0,-8.844,-2.12,2.126,-2.187,-0.185,0.21
421.0,-7.605,-2.216,2.329,-2.193,-0.087,0.165
425.0,-7.605,-2.216,2.329,-2.193,-0.087,0.165
429.0,-6.443,-2.237,2.614,-2.142,0.03,0.086
433.0,-6.443,-2.237,2.614,-2.142,0.03,0.086
436.0,-6.443,-2.237,2.614,-2.142,0.03,0.086
440.0,-5.825,-2.153,3.08,-2.034,0.156,-0.002
444.0,-5.825,-2.153,3.08,-2.034,0.156,-0.002
448.0,-5.861,-2.034,3.482,-2.034,0.267,-0.048
452.0,-5.861,-2.034,3.482,-1.872,0.267,-0.048
456.0,-5.861,-2.034,3.482,-1.872,0.267,-0.048
460.0,-6.501,-1.941,3.667,-1.672,0.36,-0.006
464.0,-6.501,-1.941,3.667,-1.672,0.36,-0.006
468.0,-7.544,-2.052,3.756,-1.672,0.36,0.147
471.0,-7.544,-2.052,3.756,-1.447,0.446,0.147
475.0,-7.544,-2.052,3.756,-1.447,0.446,0.147
479.0,-8.505,-2.377,3.89,-1.204,0.523,0.392
483.0,-8.505,-2.377,3.89,-1.204,0.523,0.392
487.0,-8.505,-2.377,3.89,-1.204,0.523,0.392
491.0,-9.016,-2.841,4.072,-0.945,0.565,0.694
494.0,-9.016,-2.841,4.072,-0.945,0.565,0.694
498.0,-9.078,-3.363,4.202,-0.666,0.56,1.004
502.0,-9.078,-3.363,4.202,-0.666,0.56,1.004
506.0,-9.078,-3.363,4.202,-0.666,0.56,1.004
510.0,-8.998,-3.861,4.207,-0.375,0.53,1.278
513.0,-8.998,-3.861,4.207,-0.375,0.53,1.278
517.0,-8.963,-4.208,4.024,-0.375,0.501,1.492
521.0,-8.963,-4.208,4.024,-0.086,0.501,1.492
525.0,-8.963,-4.208,4.024,-0.086,0.501,1.492
529.0,-8.88,-4.36,3.69,0.176,0.489,1.649
532.0,-8.88,-4.36,3.69,0.176,0.489,1.649
536.0,-8.88,-4.36,3.351,0.176,0.489,1.649
540.0,-8.865,-4.349,3.351,0.388,0.505,1.763
544.0,-8.865,-4.349,3.351,0.388,0.505,1.763
547.0,-9.059,-4.217,3.159,0.542,0.556,1.843
551.0,-9.059,-4.217,3.159,0.542,0.556,1.843
555.0,-9.059,-4.217,3.159,0.542,0.556,1.843
559.0,-9.415,-4.036,3.085,0.648,0.623,1.901
562.0,-9.415,-4.036,3.085,0.648,0.623,1.901
566.0,-9.415,-3.8,3.118,0.648,0.623,1.901
570.0,-9.708,-3.8,3.118,0.726,0.674,1.935
574.0,-9.708,-3.8,3.118,0.726,0.674,1.935
577.0,-9.828,-3.567,3.264,0.791,0.694,1.946
581.0,-9.828,-3.567,3.264,0.791,0.694,1.946
585.0,-9.828,-3.567,3.264,0.791,0.694,1.946
588.0,-9.809,-3.311,3.474,0.851,0.679,1.929
592.0,-9.809,-3.311,3.474,0.851,0.679,1.929
596.0,-9.833,-3.089,3.598,0.851,0.679,1.929
600.0,-9.833,-3.089,3.598,0.915,0.635,1.889
603.0,-9.833,-3.089,3.598,0.915,0.635,1.889
607.0,-9.872,-2.854,3.572,0.983,0.573,1.832
611.0,-9.872,-2.854,3.572,0.983,0.573,1.832
615.0,-9.872,-2.854,3.572,0.983,0.573,1.832
618.0,-9.925,-2.599,3.443,1.044,0.505,1.764
622.0,-9.925,-2.599,3.443,1.044,0.505,1.764
626.0,-10.043,-2.381,3.264,1.044,0.446,1.688
630.0,-10.043,-2.381,3.264,1.089,0.446,1.688
633.0,-10.043,-2.381,3.264,1.089,0.446,1.688
637.0,-10.177,-2.178,3.062,1.108,0.395,1.603
641.0,-10.177,-2.178,3.062,1.108,0.395,1.603
645.0,-10.177,-2.178,2.838,1.108,0.395,1.603
649.0,-10.409,-2.026,2.838,1.094,0.355,1.507
653.0,-10.409,-2.026,2.838,1.094,0.355,1.507
656.0,-10.876,-1.888,2.585,1.046,0.332,1.395
660.0,-10.876,-1.888,2.585,1.046,0.332,1.395
664.0,-10.876,-1.888,2.585,1.046,0.332,1.395
668.0,-11.514,-1.801,2.401,0.957,0.326,1.262
672.0,-11.514,-1.801,2.401,0.957,0.326,1.262
675.0,-12.004,-1.76,2.311,0.83,0.323,1.106
679.0,-12.004,-1.76,2.311,0.83,0.323,1.106
683.0,-12.004,-1.76,2.311,0.83,0.323,1.106
687.0,-12.359,-1.698,2.311,0.665,0.314,0.928
691.0,-12.359,-1.698,2.311,0.665,0.314,0.928
695.0,-12.876,-1.638,2.523,0.665,0.314,0.928
698.0,-12.876,-1.638,2.523,0.473,0.306,0.733
702.0,-12.876,-1.638,2.523,0.473,0.306,0.733
706.0,-12.946,-1.537,2.743,0.273,0.274,0.532
710.0,-12.946,-1.537,2.743,0.273,0.274,0.532
714.0,-12.946,-1.537,2.743,0.273,0.274,0.532
717.0,-12.226,-1.362,2.971,0.072,0.197,0.339
721.0,-12.226,-1.362,2.971,0.072,0.197,0.339
725.0,-10.836,-1.211,3.176,-0.122,0.083,0.157
729.0,-10.836,-1.211,3.176,-0.122,0.083,0.157
733.0,-10.836,-1.211,3.176,-0.122,0.083,0.157
737.0,-9.306,-1.115,3.178,-0.292,-0.048,-0.018
741.0,-9.306,-1.115,3.178,-0.292,-0.048,-0.018
745.0,-8.117,-1.05,3.026,-0.434,-0.157,-0.185
749.0,-8.117,-1.05,3.026,-0.434,-0.157,-0.185
753.0,-8.117,-1.05,3.026,-0.434,-0.157,-0.185
757.0,-7.397,-0.973,2.78,-0.548,-0.226,-0.335
761.0,-7.397,-0.973,2.78,-0.548,-0.226,-0.335
765.0,-7.199,-0.933,2.505,-0.647,-0.261,-0.449
769.0,-7.199,-0.933,2.505,-0.647,-0.261,-0.449
773.0,-7.199,-0.933,2.505,-0.647,-0.261,-0.449
777.0,-7.436,-0.939,2.273,-0.738,-0.274,-0.521
781.0,-7.436,-0.939,2.273,-0.738,-0.274,-0.521
785.0,-7.892,-1.06,2.074,-0.822,-0.284,-0.556
789.0,-7.892,-1.06,2.074,-0.822,-0.284,-0.556
793.0,-7.892,-1.06,2.074,-0.822,-0.284,-0.556
797.0,-8.472,-1.244,1.903,-0.898,-0.293,-0.563
801.0,-8.472,-1.244,1.903,-0.898,-0.293,-0.563
805.0,-9.074,-1.489,1.782,-0.96,-0.3,-0.552
809.0,-9.074,-1.489,1.782,-0.96,-0.3,-0.552
813.0,-9.074,-1.489,1.718,-0.96,-0.3,-0.552
817.0,-9.535,-1.731,1.718,-1.008,-0.31,-0.523
821.0,-9.535,-1.731,1.718,-1.008,-0.31,-0.523
825.0,-9.641,-1.923,1.675,-1.042,-0.329,-0.483
829.0,-9.641,-1.923,1.675,-1.042,-0.329,-0.483
833.0,-9.486,-2.04,1.694,-1.042,-0.329,-0.483
837.0,-9.486,-2.04,1.694,-1.064,-0.35,-0.441
841.0,-9.486,-2.04,1.694,-1.064,-0.35,-0.441
845.0,-9.218,-2.085,1.787,-1.077,-0.368,-0.407
849.0,-9.218,-2.085,1.787,-1.077,-0.368,-0.407
853.0,-8.888,-2.061,1.887,-1.077,-0.368,-0.384
857.0,-8.888,-2.061,1.887,-1.083,-0.385,-0.384
861.0,-8.888,-2.061,1.887,-1.083,-0.385,-0.384
865.0,-8.584,-1.999,1.96,-1.083,-0.402,-0.374
869.0,-8.584,-1.999,1.96,-1.083,-0.402,-0.374
873.0,-8.439,-1.886,1.985,-1.083,-0.412,-0.375
877.0,-8.439,-1.886,1.985,-1.079,-0.412,-0.375
881.0,-8.439,-1.886,1.985,-1.079,-0.412,-0.375
885.0,-8.492,-1.762,1.95,-1.072,-0.407,-0.381
889.0,-8.492,-1.762,1.95,-1.072,-0.407,-0.381
893.0,-8.711,-1.67,1.909,-1.064,-0.392,-0.383
897.0,-8.711,-1.67,1.909,-1.064,-0.392,-0.383
901.0,-8.711,-1.67,1.909,-1.064,-0.392,-0.383
904.0,-9.06,-1.597,1.816,-1.053,-0.363,-0.369
908.0,-9.06,-1.597,1.816,-1.053,-0.363,-0.369
912.0,-9.486,-1.572,1.75,-1.044,-0.326,-0.336
916.0,-9.486,-1.572,1.75,-1.044,-0.326,-0.336
920.0,-9.486,-1.572,1.75,-1.044,-0.326,-0.336
924.0,-9.972,-1.609,1.702,-1.037,-0.282,-0.284
928.0,-9.972,-1.609,1.702,-1.037,-0.282,-0.284
932.0,-10.461,-1.67,1.662,-1.03,-0.24,-0.216
937.0,-10.461,-1.67,1.662,-1.03,-0.24,-0.216
941.0,-10.461,-1.67,1.662,-1.03,-0.24,-0.216
945.0,-10.909,-1.763,1.656,-1.029,-0.201,-0.14
949.0,-10.909,-1.763,1.656,-1.029,-0.201,-0.14
953.0,-11.257,-1.836,1.649,-1.032,-0.17,-0.063
957.0,-11.257,-1.836,1.649,-1.032,-0.17,-0.063
961.0,-11.377,-1.875,1.668,-1.032,-0.17,-0.063
965.0,-11.377,-1.875,1.668,-1.044,-0.145,0.004
969.0,-11.377,-1.875,1.668,-1.044,-0.145,0.004
973.0,-11.207,-1.853,1.707,-1.065,-0.13,0.049
977.0,-11.207,-1.853,1.707,-1.065,-0.13,0.049
981.0,-10.87,-1.761,1.792,-1.065,-0.13,0.064
985.0,-10.87,-1.761,1.792,-1.089,-0.121,0.064
989.0,-10.87,-1.761,1.792,-1.089,-0.121,0.064
993.0,-10.293,-1.591,1.947,-1.109,-0.123,0.048
997.0,-10.293,-1.591,1.947,-1.109,-0.123,0.048
1001.0,-9.483,-1.408,2.097,-1.117,-0.147,0.006
1005.0,-9.483,-1.408,2.097,-1.117,-0.147,0.006
1009.0,-9.483,-1.408,2.097,-1.117,-0.147,0.006
1013.0,-8.633,-1.197,2.234,-1.113,-0.192,-0.058
1017.0,-8.633,-1.197,2.234,-1.113,-0.192,-0.058
1021.0,-7.996,-1.005,2.308,-1.098,-0.243,-0.137
1025.0,-7.996,-1.005,2.308,-1.098,-0.243,-0.137
1029.0,-7.996,-1.005,2.308,-1.098,-0.243,-0.137
1033.0,-7.643,-0.842,2.279,-1.073,-0.285,-0.213
1037.0,-7.643,-0.842,2.279,-1.073,-0.285,-0.213
1042.0,-7.674,-0.723,2.219,-1.046,-0.31,-0.27
1046.0,-7.674,-0.723,2.219,-1.046,-0.31,-0.27
1050.0,-7.674,-0.677,2.123,-1.046,-0.31,-0.27
1054.0,-8.006,-0.677,2.123,-1.023,-0.318,-0.29
1058.0,-8.006,-0.677,2.123,-1.023,-0.318,-0.29
1062.0,-8.619,-0.722,2.012,-1.005,-0.311,-0.271
1066.0,-8.619,-0.722,2.012,-1.005,-0.311,-0.271
1070.0,-9.51,-0.84,1.9,-0.998,-0.293,-0.22
1074.0,-9.51,-0.84,1.9,-0.998,-0.293,-0.22
1078.0,-9.51,-0.84,1.9,-0.998,-0.293,-0.22
1082.0,-10.56,-1.002,1.843,-1.0,-0.259,-0.142
1087.0,-10.56,-1.002,1.843,-1.0,-0.259,-0.142
1091.0,-11.484,-1.153,1.846,-1.016,-0.225,-0.038
1095.0,-11.484,-1.153,1.846,-1.016,-0.225,-0.038
1099.0,-11.484,-1.252,1.859,-1.016,-0.225,-0.038
1103.0,-12.211,-1.252,1.859,-1.052,-0.192,0.084
1107.0,-12.211,-1.252,1.859,-1.052,-0.192,0.084
1111.0,-12.921,-1.326,1.963,-1.109,-0.144,0.208
1115.0,-12.921,-1.326,1.963,-1.109,-0.144,0.208
1120.0,-13.528,-1.324,2.307,-1.181,-0.082,0.33
1124.0,-13.528,-1.324,2.307,-1.181,-0.082,0.33
1128.0,-13.528,-1.324,2.307,-1.181,-0.082,0.33
1132.0,-13.364,-1.254,2.84,-1.258,-0.056,0.45
1136.0,-13.364,-1.254,2.84,-1.258,-0.056,0.45
1140.0,-12.014,-1.124,3.212,-1.329,-0.108,0.559
1144.0,-12.014,-1.124,3.212,-1.329,-0.108,0.559
1148.0,-12.014,-1.124,3.212,-1.329,-0.108,0.559
1152.0,-10.152,-1.018,3.225,-1.392,-0.209,0.62
1156.0,-10.152,-1.018,3.225,-1.392,-0.209,0.62
1160.0,-8.725,-0.912,3.074,-1.445,-0.284,0.61
1164.0,-8.725,-0.912,3.074,-1.445,-0.284,0.61
1168.0,-7.855,-0.799,2.846,-1.445,-0.284,0.61
1172.0,-7.855,-0.799,2.846,-1.485,-0.3,0.541
1176.0,-7.855,-0.799,2.846,-1.485,-0.3,0.541
1180.0,-7.533,-0.674,2.605,-1.512,-0.266,0.455
1184.0,-7.533,-0.674,2.605,-1.512,-0.266,0.455
1188.0,-7.549,-0.6,2.387,-1.512,-0.266,0.387
1192.0,-7.549,-0.6,2.387,-1.527,-0.211,0.387
1196.0,-7.549,-0.6,2.387,-1.527,-0.211,0.387
1200.0,-7.72,-0.6,2.285,-1.529,-0.156,0.352
1204.0,-7.72,-0.6,2.285,-1.529,-0.156,0.352
1208.0,-7.906,-0.66,2.284,-1.529,-0.115,0.34
1212.0,-7.906,-0.66,2.284,-1.513,-0.115,0.34
1216.0,-7.906,-0.66,2.284,-1.513,-0.115,0.34
1220.0,-8.072,-0.792,2.335,-1.472,-0.092,0.339
1224.0,-8.072,-0.792,2.335,-1.472,-0.092,0.339
1228.0,-8.177,-0.94,2.384,-1.406,-0.088,0.337
1232.0,-8.177,-0.94,2.384,-1.406,-0.088,0.337
1236.0,-8.177,-0.94,2.384,-1.406,-0.088,0.337
1240.0,-8.301,-1.088,2.449,-1.32,-0.094,0.329
1244.0,-8.301,-1.088,2.449,-1.32,-0.094,0.329
1248.0,-8.533,-1.209,2.397,-1.224,-0.105,0.317
1252.0,-8.533,-1.209,2.397,-1.224,-0.105,0.317
1256.0,-8.533,-1.209,2.397,-1.224,-0.105,0.317
1260.0,-8.994,-1.287,2.295,-1.128,-0.103,0.311
1264.0,-8.994,-1.287,2.295,-1.128,-0.103,0.311
1268.0,-9.616,-1.357,2.212,-1.04,-0.078,0.317
1272.0,-9.616,-1.357,2.212,-1.04,-0.078,0.317
1276.0,-9.616,-1.357,2.212,-1.04,-0.078,0.317
1280.0,-10.172,-1.46,2.171,-0.958,-0.042,0.342
1284.0,-10.172,-1.46,2.171,-0.958,-0.042,0.342
1288.0,-10.527,-1.564,2.137,-0.881,-0.014,0.386
1292.0,-10.527,-1.564,2.137,-0.881,-0.014,0.386
1296.0,-10.527,-1.665,2.11,-0.881,-0.014,0.386
1301.0,-10.766,-1.665,2.11,-0.804,0.004,0.445
1304.0,-10.766,-1.665,2.11,-0.804,0.004,0.445
1308.0,-10.996,-1.766,2.079,-0.723,0.025,0.514
1312.0,-10.996,-1.766,2.079,-0.723,0.025,0.514
1316.0,-11.028,-1.807,2.07,-0.723,0.025,0.514
1320.0,-11.028,-1.807,2.07,-0.636,0.048,0.59
1324.0,-11.028,-1.807,2.07,-0.636,0.048,0.59
1328.0,-10.814,-1.824,2.103,-0.548,0.067,0.669
1332.0,-10.814,-1.824,2.103,-0.548,0.067,0.669
1336.0,-10.497,-1.808,2.09,-0.548,0.083,0.742
1340.0,-10.497,-1.808,2.09,-0.462,0.083,0.742
1344.0,-10.497,-1.808,2.09,-0.462,0.083,0.742
1348.0,-10.336,-1.725,2.037,-0.381,0.109,0.798
1352.0,-10.336,-1.725,2.037,-0.381,0.109,0.798
1356.0,-10.212,-1.604,2.008,-0.312,0.144,0.838
1360.0,-10.212,-1.604,2.008,-0.312,0.144,0.838
1364.0,-10.212,-1.604,2.008,-0.312,0.144,0.838
1368.0,-9.887,-1.482,2.024,-0.258,0.172,0.869
1372.0,-9.887,-1.482,2.024,-0.258,0.172,0.869
1376.0,-9.376,-1.39,2.023,-0.218,0.187,0.893
1380.0,-9.376,-1.39,2.023,-0.218,0.187,0.893
1384.0,-9.376,-1.39,2.023,-0.218,0.187,0.893
1388.0,-8.847,-1.333,1.991,-0.189,0.194,0.9
1392.0,-8.847,-1.333,1.991,-0.189,0.194,0.9
1396.0,-8.474,-1.279,1.889,-0.189,0.203,0.891
1400.0,-8.474,-1.279,1.889,-0.166,0.203,0.891
1404.0,-8.474,-1.279,1.889,-0.166,0.203,0.891
1407.0,-8.365,-1.228,1.752,-0.147,0.219,0.873
1411.0,-8.365,-1.228,1.752,-0.147,0.219,0.873
1415.0,-8.469,-1.164,1.666,-0.147,0.219,0.858
1419.0,-8.469,-1.164,1.666,-0.133,0.243,0.858
1423.0,-8.469,-1.164,1.666,-0.133,0.243,0.858
1427.0,-8.769,-1.132,1.618,-0.126,0.266,0.852
1431.0,-8.769,-1.132,1.618,-0.126,0.266,0.852
1435.0,-9.098,-1.128,1.603,-0.126,0.266,0.852
1439.0,-9.098,-1.128,1.603,-0.126,0.278,0.858
1443.0,-9.098,-1.128,1.603,-0.126,0.278,0.858
1447.0,-9.345,-1.159,1.564,-0.136,0.275,0.867
1450.0,-9.345,-1.159,1.564,-0.136,0.275,0.867
1454.0,-9.345,-1.159,1.499,-0.136,0.275,0.867
1458.0,-9.498,-1.18,1.499,-0.157,0.258,0.875
1462.0,-9.498,-1.18,1.499,-0.157,0.258,0.875
1466.0,-9.738,-1.181,1.307,-0.191,0.247,0.88
1470.0,-9.738,-1.181,1.307,-0.191,0.247,0.88
1474.0,-9.738,-1.181,1.307,-0.191,0.247,0.88
1478.0,-10.421,-1.147,1.104,-0.246,0.268,0.891
1482.0,-10.421,-1.147,1.104,-0.246,0.268,0.891
1486.0,-11.526,-1.137,1.141,-0.321,0.331,0.927
1490.0,-11.526,-1.137,1.141,-0.321,0.331,0.927
1494.0,-11.526,-1.137,1.492,-0.321,0.331,0.927
1498.0,-12.218,-1.175,1.492,-0.411,0.385,1.0
1502.0,-12.218,-1.175,1.492,-0.411,0.385,1.0
1506.0,-11.517,-1.292,1.985,-0.506,0.359,1.091
1510.0,-11.517,-1.292,1.985,-0.506,0.359,1.091
1514.0,-9.826,-1.386,2.226,-0.506,0.359,1.091
1518.0,-9.826,-1.386,2.226,-0.593,0.251,1.141
1522.0,-9.826,-1.386,2.226,-0.593,0.251,1.141
1525.0,-8.294,-1.397,2.11,-0.661,0.125,1.1
1529.0,-8.294,-1.397,2.11,-0.661,0.125,1.1
1533.0,-8.294,-1.397,1.665,-0.661,0.125,1.1
1537.0,-7.467,-1.214,1.665,-0.71,0.043,0.978
1541.0,-7.467,-1.214,1.665,-0.71,0.043,0.978
1545.0,-7.615,-0.89,1.013,-0.77,0.04,0.841
1549.0,-7.615,-0.89,1.013,-0.77,0.04,0.841
1553.0,-7.615,-0.89,1.013,-0.77,0.04,0.841
1557.0,-8.726,-0.545,0.582,-0.867,0.137,0.747
1561.0,-8.726,-0.545,0.582,-0.867,0.137,0.747
1564.0,-10.047,-0.421,0.623,-1.003,0.289,0.726
1568.0,-10.047,-0.421,0.623,-1.003,0.289,0.726
1572.0,-10.047,-0.421,0.623,-1.003,0.289,0.726
1576.0,-10.772,-0.575,1.128,-1.153,0.407,0.766
1580.0,-10.772,-0.575,1.128,-1.153,0.407,0.766
1584.0,-10.644,-0.934,1.711,-1.287,0.428,0.825
1588.0,-10.644,-0.934,1.711,-1.287,0.428,0.825
1592.0,-10.644,-0.934,2.119,-1.287,0.428,0.825
1596.0,-10.1,-1.332,2.119,-1.377,0.372,0.844
1600.0,-10.1,-1.332,2.119,-1.377,0.372,0.844
1604.0,-9.87,-1.546,2.193,-1.416,0.294,0.797
1608.0,-9.87,-1.546,2.193,-1.416,0.294,0.797
1612.0,-9.87,-1.546,2.082,-1.416,0.294,0.797
1616.0,-10.305,-1.515,2.082,-1.427,0.242,0.717
1620.0,-10.305,-1.515,2.082,-1.427,0.242,0.717
1624.0,-10.776,-1.389,2.011,-1.442,0.213,0.651
1628.0,-10.776,-1.389,2.011,-1.442,0.213,0.651
1632.0,-10.776,-1.282,2.038,-1.442,0.213,0.651
1636.0,-10.652,-1.282,2.038,-1.474,0.173,0.62
1640.0,-10.652,-1.282,2.038,-1.474,0.173,0.62
1644.0,-10.027,-1.281,1.979,-1.518,0.107,0.589
1648.0,-10.027,-1.281,1.979,-1.518,0.107,0.589
1652.0,-9.476,-1.35,1.795,-1.518,0.107,0.589
1656.0,-9.476,-1.35,1.795,-1.551,0.039,0.52
1660.0,-9.476,-1.35,1.795,-1.551,0.039,0.52
1664.0,-9.276,-1.363,1.625,-1.564,-0.001,0.411
1668.0,-9.276,-1.363,1.625,-1.564,-0.001,0.411
1672.0,-9.17,-1.348,1.571,-1.564,-0.001,0.411
1676.0,-9.17,-1.348,1.571,-1.551,-0.013,0.285
1680.0,-9.17,-1.348,1.571,-1.551,-0.013,0.285
1684.0,-8.896,-1.305,1.692,-1.52,-0.026,0.167
1688.0,-8.896,-1.305,1.692,-1.52,-0.026,0.167
1692.0,-8.532,-1.25,1.907,-1.52,-0.026,0.059
1696.0,-8.532,-1.25,1.907,-1.472,-0.055,0.059
1700.0,-8.532,-1.25,1.907,-1.472,-0.055,0.059
1704.0,-8.188,-1.267,1.962,-1.409,-0.099,-0.047
1708.0,-8.188,-1.267,1.962,-1.409,-0.099,-0.047
1712.0,-8.158,-1.241,1.93,-1.336,-0.134,-0.157
1716.0,-8.158,-1.241,1.93,-1.336,-0.134,-0.157
1720.0,-8.158,-1.241,1.93,-1.336,-0.134,-0.157
1724.0,-8.527,-1.258,1.835,-1.256,-0.145,-0.266
1728.0,-8.527,-1.258,1.835,-1.256,-0.145,-0.266
1732.0,-9.042,-1.279,1.768,-1.179,-0.142,-0.357
1736.0,-9.042,-1.279,1.768,-1.179,-0.142,-0.357
1740.0,-9.042,-1.279,1.73,-1.179,-0.142,-0.357
1745.0,-9.536,-1.29,1.73,-1.108,-0.137,-0.431
1749.0,-9.536,-1.29,1.73,-1.108,-0.137,-0.431
1753.0,-10.097,-1.32,1.722,-1.048,-0.128,-0.489
1757.0,-10.097,-1.32,1.722,-1.048,-0.128,-0.489
1761.0,-10.686,-1.385,1.768,-1.048,-0.11,-0.532
1765.0,-10.686,-1.385,1.768,-0.995,-0.11,-0.532
1769.0,-10.686,-1.385,1.768,-0.995,-0.11,-0.532
1774.0,-11.008,-1.461,1.909,-0.944,-0.098,-0.556
1778.0,-11.008,-1.461,1.909,-0.944,-0.098,-0.556
1782.0,-10.937,-1.509,2.103,-0.89,-0.107,-0.57
1786.0,-10.937,-1.509,2.103,-0.89,-0.107,-0.57
1790.0,-10.725,-1.534,2.179,-0.89,-0.107,-0.57
1794.0,-10.725,-1.534,2.179,-0.829,-0.127,-0.588
1799.0,-10.725,-1.534,2.179,-0.829,-0.127,-0.588
1803.0,-10.759,-1.454,2.214,-0.764,-0.13,-0.617
1807.0,-10.759,-1.454,2.214,-0.764,-0.13,-0.617
1811.0,-10.503,-1.368,2.317,-0.7,-0.122,-0.64
1815.0,-10.503,-1.368,2.317,-0.7,-0.122,-0.64
1819.0,-10.503,-1.368,2.317,-0.7,-0.122,-0.64
1824.0,-9.771,-1.294,2.443,-0.636,-0.137,-0.654
1828.0,-9.771,-1.294,2.443,-0.636,-0.137,-0.654
1832.0,-8.975,-1.231,2.347,-0.57,-0.162,-0.676
1836.0,-8.975,-1.231,2.347,-0.57,-0.162,-0.676
1840.0,-8.831,-1.074,2.168,-0.57,-0.162,-0.718
1844.0,-8.831,-1.074,2.168,-0.504,-0.155,-0.718
1848.0,-8.831,-1.074,2.168,-0.504,-0.155,-0.718
1852.0,-9.222,-0.964,2.018,-0.441,-0.109,-0.751
1856.0,-9.222,-0.964,2.018,-0.441,-0.109,-0.751
1860.0,-9.547,-0.953,2.125,-0.386,-0.057,-0.742
1864.0,-9.547,-0.953,2.125,-0.386,-0.057,-0.742
1868.0,-9.547,-0.953,2.125,-0.386,-0.057,-0.742
1872.0,-9.483,-1.004,2.373,-0.33,-0.032,-0.698
1877.0,-9.483,-1.004,2.373,-0.33,-0.032,-0.698
1881.0,-9.3,-1.04,2.532,-0.267,-0.035,-0.646
1885.0,-9.3,-1.04,2.532,-0.267,-0.035,-0.646
1889.0,-9.3,-1.032,2.573,-0.267,-0.035,-0.646
1893.0,-9.43,-1.032,2.573,-0.203,-0.04,-0.601
1897.0,-9.43,-1.032,2.573,-0.203,-0.04,-0.601
1901.0,-9.716,-1.034,2.579,-0.144,-0.038,-0.552
1905.0,-9.716,-1.034,2.579,-0.144,-0.038,-0.552
1909.0,-9.78,-1.004,2.71,-0.095,-0.042,-0.492
1913.0,-9.78,-1.004,2.71,-0.095,-0.042,-0.492
1917.0,-9.78,-1.004,2.71,-0.095,-0.042,-0.492
1921.0,-9.459,-0.971,2.777,-0.054,-0.069,-0.427
1925.0,-9.459,-0.971,2.777,-0.054,-0.069,-0.427
1930.0,-9.203,-0.901,2.755,-0.024,-0.103,-0.374
1934.0,-9.203,-0.901,2.755,-0.024,-0.103,-0.374
1938.0,-9.203,-0.901,2.755,-0.024,-0.103,-0.374
1942.0,-9.074,-0.829,2.605,-0.003,-0.119,-0.341
1946.0,-9.074,-0.829,2.605,-0.003,-0.119,-0.341
1950.0,-9.209,-0.723,2.45,0.004,-0.115,-0.316
1954.0,-9.209,-0.723,2.45,0.004,-0.115,-0.316
1958.0,-9.637,-0.626,2.454,0.004,-0.115,-0.316
1962.0,-9.637,-0.626,2.454,-0.001,-0.088,-0.288
1966.0,-9.637,-0.626,2.454,-0.001,-0.088,-0.288
1970.0,-9.989,-0.582,2.621,-0.01,-0.061,-0.244
1974.0,-9.989,-0.582,2.621,-0.01,-0.061,-0.244
1978.0,-10.022,-0.596,2.716,-0.019,-0.061,-0.189
1982.0,-10.022,-0.596,2.716,-0.019,-0.061,-0.189
1987.0,-10.022,-0.596,2.716,-0.019,-0.061,-0.189
1991.0,-10.162,-0.586,2.697,-0.028,-0.072,-0.145
1995.0,-10.162,-0.586,2.697,-0.028,-0.072,-0.145
1999.0,-10.638,-0.538,2.747,-0.039,-0.065,-0.119
2003.0,-10.638,-0.538,2.747,-0.039,-0.065,-0.119
2007.0,-11.017,-0.538,2.847,-0.039,-0.065,-0.119
2012.0,-11.017,-0.538,2.847,-0.049,-0.06,-0.094
2016.0,-11.017,-0.538,2.847,-0.049,-0.06,-0.094
2020.0,-10.987,-0.55,2.882,-0.059,-0.079,-0.064
2024.0,-10.987,-0.55,2.882,-0.059,-0.079,-0.064
2028.0,-10.619,-0.529,2.926,-0.071,-0.114,-0.045
2032.0,-10.619,-0.529,2.926,-0.071,-0.114,-0.045
2037.0,-10.619,-0.529,2.886,-0.071,-0.114,-0.045
2041.0,-10.126,-0.516,2.886,-0.08,-0.156,-0.051
2045.0,-10.126,-0.516,2.886,-0.08,-0.156,-0.051
2049.0,-9.776,-0.517,2.651,-0.084,-0.191,-0.08
2053.0,-9.776,-0.517,2.651,-0.084,-0.191,-0.08
2057.0,-9.86,-0.501,2.428,-0.091,-0.197,-0.118
2061.0,-9.86,-0.501,2.428,-0.091,-0.197,-0.118
2065.0,-9.86,-0.501,2.428,-0.091,-0.197,-0.118
2070.0,-10.219,-0.492,2.428,-0.094,-0.173,-0.147
2074.0,-10.219,-0.492,2.428,-0.094,-0.173,-0.147
2078.0,-10.321,-0.574,2.521,-0.088,-0.163,-0.147
2082.0,-10.321,-0.574,2.521,-0.088,-0.163,-0.147
2086.0,-10.321,-0.708,2.532,-0.088,-0.163,-0.147
2090.0,-10.301,-0.708,2.532,-0.071,-0.18,-0.129
2095.0,-10.301,-0.708,2.532,-0.071,-0.18,-0.129
2099.0,-10.539,-0.82,2.477,-0.044,-0.193,-0.119
2103.0,-10.539,-0.82,2.477,-0.044,-0.193,-0.119
2107.0,-10.874,-0.9,2.481,-0.009,-0.193,-0.116
2111.0,-10.874,-0.9,2.481,-0.009,-0.193,-0.116
2115.0,-10.874,-0.9,2.481,-0.009,-0.193,-0.116
2120.0,-10.954,-0.963,2.563,0.029,-0.202,-0.102
2124.0,-10.954,-0.963,2.563,0.029,-0.202,-0.102
2128.0,-10.698,-1.009,2.614,0.071,-0.232,-0.08
2132.0,-10.698,-1.009,2.614,0.071,-0.232,-0.08
2136.0,-10.324,-0.988,2.585,0.071,-0.232,-0.065
2140.0,-10.324,-0.988,2.585,0.117,-0.273,-0.065
2144.0,-10.324,-0.988,2.585,0.117,-0.273,-0.065
2148.0,-10.05,-0.925,2.47,0.162,-0.306,-0.06
2152.0,-10.05,-0.925,2.47,0.162,-0.306,-0.06
2156.0,-9.736,-0.854,2.381,0.201,-0.33,-0.058
2160.0,-9.736,-0.854,2.381,0.201,-0.33,-0.058
2164.0,-9.736,-0.854,2.381,0.201,-0.33,-0.058
2168.0,-9.339,-0.772,2.297,0.231,-0.358,-0.052
2172.0,-9.339,-0.772,2.297,0.231,-0.358,-0.052
2176.0,-9.068,-0.714,2.132,0.25,-0.377,-0.046
2180.0,-9.068,-0.714,2.132,0.25,-0.377,-0.046
2184.0,-9.068,-0.714,2.132,0.25,-0.377,-0.046
2188.0,-9.085,-0.678,1.988,0.255,-0.369,-0.036
2192.0,-9.085,-0.678,1.988,0.255,-0.369,-0.036
2196.0,-9.347,-0.704,1.957,0.246,-0.341,-0.009
2200.0,-9.347,-0.704,1.957,0.246,-0.341,-0.009
2204.0,-9.347,-0.704,1.957,0.246,-0.341,-0.009
2208.0,-9.686,-0.731,2.13,0.224,-0.315,0.041
2212.0,-9.686,-0.731,2.13,0.224,-0.315,0.041
2216.0,-9.972,-0.796,2.201,0.198,-0.313,0.107
2220.0,-9.972,-0.796,2.201,0.198,-0.313,0.107
2224.0,-9.972,-0.796,2.201,0.198,-0.313,0.107
2228.0,-10.366,-0.866,2.162,0.164,-0.31,0.18
2232.0,-10.366,-0.866,2.162,0.164,-0.31,0.18
2236.0,-10.786,-0.879,2.238,0.118,-0.293,0.252
2240.0,-10.786,-0.879,2.238,0.118,-0.293,0.252
2244.0,-10.786,-0.879,2.238,0.118,-0.293,0.252
2248.0,-10.754,-0.906,2.411,0.064,-0.293,0.332
2252.0,-10.754,-0.906,2.411,0.064,-0.293,0.332
2256.0,-10.332,-0.918,2.393,0.006,-0.324,0.41
2260.0,-10.332,-0.918,2.393,0.006,-0.324,0.41
2264.0,-10.332,-0.918,2.311,0.006,-0.324,0.41
2268.0,-9.965,-0.856,2.311,-0.057,-0.348,0.459
2272.0,-9.965,-0.856,2.311,-0.057,-0.348,0.459
2276.0,-9.573,-0.799,2.254,-0.119,-0.355,0.479
2280.0,-9.573,-0.799,2.254,-0.119,-0.355,0.479
2284.0,-9.573,-0.725,2.177,-0.119,-0.355,0.479
2288.0,-9.125,-0.725,2.177,-0.183,-0.36,0.477
2292.0,-9.125,-0.725,2.177,-0.183,-0.36,0.477
2296.0,-8.666,-0.656,2.126,-0.242,-0.367,0.454
2300.0,-8.666,-0.656,2.126,-0.242,-0.367,0.454
2304.0,-8.247,-0.605,1.999,-0.242,-0.367,0.454
2308.0,-8.247,-0.605,1.999,-0.296,-0.375,0.413
2312.0,-8.247,-0.605,1.999,-0.296,-0.375,0.413
2316.0,-8.093,-0.591,1.866,-0.349,-0.362,0.362
2320.0,-8.093,-0.591,1.866,-0.349,-0.362,0.362
2323.0,-8.307,-0.617,1.84,-0.349,-0.362,0.314
2327.0,-8.307,-0.617,1.84,-0.393,-0.317,0.314
2331.0,-8.307,-0.617,1.84,-0.393,-0.317,0.314
2335.0,-8.706,-0.686,1.968,-0.43,-0.261,0.289
2339.0,-8.706,-0.686,1.968,-0.43,-0.261,0.289
2343.0,-9.093,-0.855,2.078,-0.43,-0.221,0.289
2347.0,-9.093,-0.855,2.078,-0.455,-0.221,0.289
2351.0,-9.093,-0.855,2.078,-0.455,-0.221,0.289
2355.0,-9.449,-1.02,2.235,-0.472,-0.194,0.302
2359.0,-9.449,-1.02,2.235,-0.472,-0.194,0.302
2363.0,-9.697,-1.163,2.438,-0.48,-0.182,0.323
2367.0,-9.697,-1.163,2.438,-0.48,-0.182,0.323
2371.0,-9.697,-1.163,2.438,-0.48,-0.182,0.323
2375.0,-9.675,-1.318,2.576,-0.479,-0.192,0.351
2379.0,-9.675,-1.318,2.576,-0.479,-0.192,0.351
2383.0,-9.297,-1.424,2.554,-0.473,-0.219,0.377
2387.0,-9.297,-1.424,2.554,-0.473,-0.219,0.377
2391.0,-9.297,-1.424,2.554,-0.473,-0.219,0.377
2395.0,-8.894,-1.44,2.404,-0.467,-0.237,0.387
2399.0,-8.894,-1.44,2.404,-0.467,-0.237,0.387
2403.0,-8.823,-1.417,2.282,-0.465,-0.225,0.388
2407.0,-8.823,-1.417,2.282,-0.465,-0.225,0.388
2411.0,-8.823,-1.417,2.282,-0.465,-0.225,0.388
2415.0,-8.871,-1.399,2.308,-0.46,-0.193,0.397
2419.0,-8.871,-1.399,2.308,-0.46,-0.193,0.397
2423.0,-8.758,-1.399,2.385,-0.447,-0.174,0.422
2427.0,-8.758,-1.399,2.385,-0.447,-0.174,0.422
2431.0,-8.758,-1.399,2.385,-0.447,-0.174,0.422
2435.0,-8.538,-1.458,2.32,-0.425,-0.177,0.45
2439.0,-8.538,-1.458,2.32,-0.425,-0.177,0.45
2443.0,-8.753,-1.554,1.919,-0.402,-0.159,0.471
2447.0,-8.753,-1.554,1.919,-0.402,-0.159,0.471
2451.0,-8.753,-1.554,1.724,-0.402,-0.159,0.471
2455.0,-9.879,-1.652,1.724,-0.388,-0.057,0.491
2459.0,-9.879,-1.652,1.724,-0.388,-0.057,0.491
2463.0,-11.261,-1.765,2.057,-0.375,0.083,0.535
2467.0,-11.261,-1.765,2.057,-0.375,0.083,0.535
2471.0,-11.882,-1.885,2.715,-0.375,0.083,0.535
2475.0,-11.882,-1.885,2.715,-0.35,0.153,0.612
2479.0,-11.882,-1.885,2.715,-0.35,0.153,0.612
2483.0,-11.239,-2.009,3.123,-0.305,0.102,0.69
2487.0,-11.239,-2.009,3.123,-0.305,0.102,0.69
2491.0,-10.177,-2.033,3.115,-0.305,0.102,0.715
2495.0,-10.177,-2.033,3.115,-0.249,0.006,0.715
2499.0,-10.177,-2.033,3.115,-0.249,0.006,0.715
2503.0,-9.498,-2.012,2.905,-0.187,-0.049,0.673
2507.0,-9.498,-2.012,2.905,-0.187,-0.049,0.673
2511.0,-9.196,-1.956,2.617,-0.187,-0.052,0.6
2515.0,-9.196,-1.956,2.617,-0.127,-0.052,0.6
2519.0,-9.196,-1.956,2.617,-0.127,-0.052,0.6
2523.0,-9.234,-1.877,2.408,-0.069,-0.023,0.529
2527.0,-9.234,-1.877,2.408,-0.069,-0.023,0.529
2531.0,-9.651,-1.826,2.432,-0.009,0.018,0.471
2535.0,-9.651,-1.826,2.432,-0.009,0.018,0.471
2539.0,-9.651,-1.826,2.432,-0.009,0.018,0.471
2543.0,-10.239,-1.844,2.578,0.062,0.04,0.429
2547.0,-10.239,-1.844,2.578,0.062,0.04,0.429
2551.0,-10.644,-1.923,2.821,0.062,0.022,0.401
2555.0,-10.644,-1.923,2.821,0.15,0.022,0.401
2558.0,-10.644,-1.923,2.821,0.15,0.022,0.401
2562.0,-10.479,-1.99,2.987,0.251,-0.044,0.378
2566.0,-10.479,-1.99,2.987,0.251,-0.044,0.378
2570.0,-10.012,-2.009,2.888,0.251,-0.132,0.339
2574.0,-10.012,-2.009,2.888,0.348,-0.132,0.339
2578.0,-10.012,-2.009,2.888,0.348,-0.132,0.339
2582.0,-9.66,-1.948,2.773,0.432,-0.19,0.271
2586.0,-9.66,-1.948,2.773,0.432,-0.19,0.271
2590.0,-9.514,-1.836,2.909,0.432,-0.211,0.187
2594.0,-9.514,-1.836,2.909,0.501,-0.211,0.187
2598.0,-9.514,-1.836,2.909,0.501,-0.211,0.187
2602.0,-9.167,-1.741,3.038,0.561,-0.236,0.101
2606.0,-9.167,-1.741,3.038,0.561,-0.236,0.101
2610.0,-8.666,-1.661,2.984,0.561,-0.236,0.01
2614.0,-8.666,-1.661,2.984,0.617,-0.273,0.01
2618.0,-8.666,-1.661,2.984,0.617,-0.273,0.01
2621.0,-8.7,-1.628,3.135,0.673,-0.28,-0.088
2625.0,-8.7,-1.628,3.135,0.673,-0.28,-0.088
2629.0,-9.449,-1.775,3.467,0.673,-0.28,-0.17
2633.0,-9.449,-1.775,3.467,0.753,-0.26,-0.17
2637.0,-9.449,-1.775,3.467,0.753,-0.26,-0.17
2641.0,-10.101,-2.099,3.644,0.866,-0.249,-0.212
2645.0,-10.101,-2.099,3.644,0.866,-0.249,-0.212
2650.0,-10.308,-2.395,4.143,1.014,-0.24,-0.236
2654.0,-10.308,-2.395,4.143,1.014,-0.24,-0.236
2658.0,-10.308,-2.395,4.143,1.014,-0.24,-0.236
2662.0,-10.222,-2.781,4.947,1.207,-0.237,-0.264
2666.0,-10.222,-2.781,4.947,1.207,-0.237,-0.264
2670.0,-10.167,-3.068,6.039,1.471,-0.254,-0.313
2674.0,-10.167,-3.068,6.039,1.471,-0.254,-0.313
2678.0,-10.167,-3.068,6.039,1.471,-0.254,-0.313
2682.0,-10.388,-3.217,6.95,1.82,-0.315,-0.368
2686.0,-10.388,-3.217,6.95,1.82,-0.315,-0.368
2690.0,-10.946,-3.077,7.901,2.237,-0.409,-0.41
2694.0,-10.946,-3.077,7.901,2.237,-0.409,-0.41
2698.0,-11.046,-2.947,8.821,2.237,-0.409,-0.425
2703.0,-11.046,-2.947,8.821,2.693,-0.529,-0.425
2707.0,-11.046,-2.947,8.821,2.693,-0.529,-0.425
2711.0,-10.361,-2.783,9.099,3.155,-0.672,-0.425
2715.0,-10.361,-2.783,9.099,3.155,-0.672,-0.425
2719.0,-9.616,-2.569,8.657,3.595,-0.789,-0.428
2723.0,-9.616,-2.569,8.657,3.595,-0.789,-0.428
2727.0,-9.616,-2.569,8.657,3.595,-0.789,-0.428
2731.0,-9.387,-2.331,7.592,3.982,-0.842,-0.443
2735.0,-9.387,-2.331,7.592,3.982,-0.842,-0.443
2739.0,-9.929,-2.031,6.666,4.294,-0.814,-0.463
2743.0,-9.929,-2.031,6.666,4.294,-0.814,-0.463
2747.0,-9.929,-2.031,6.666,4.294,-0.814,-0.463
2751.0,-10.467,-1.689,5.984,4.525,-0.771,-0.466
2755.0,-10.467,-1.689,5.984,4.525,-0.771,-0.466
2759.0,-10.511,-1.326,5.606,4.683,-0.769,-0.448
2763.0,-10.511,-1.326,5.606,4.683,-0.769,-0.448
2767.0,-10.511,-1.326,5.3,4.683,-0.769,-0.448
2771.0,-10.305,-1.067,5.3,4.783,-0.828,-0.429
2775.0,-10.305,-1.067,5.3,4.783,-0.828,-0.429
2779.0,-10.105,-0.88,4.494,4.833,-0.93,-0.423
2783.0,-10.105,-0.88,4.494,4.833,-0.93,-0.423
2788.0,-10.33,-0.58,3.75,4.833,-1.009,-0.426
2792.0,-10.33,-0.58,3.75,4.822,-1.009,-0.426
2796.0,-10.33,-0.58,3.75,4.822,-1.009,-0.426
2800.0,-10.506,-0.176,3.629,4.746,-1.058,-0.425
2804.0,-10.506,-0.176,3.629,4.746,-1.058,-0.425
2808.0,-9.891,0.045,3.764,4.625,-1.145,-0.42
2812.0,-9.891,0.045,3.764,4.625,-1.145,-0.42
2816.0,-9.891,0.045,3.764,4.625,-1.145,-0.42
2820.0,-9.018,0.171,3.067,4.474,-1.288,-0.448
2824.0,-9.018,0.171,3.067,4.474,-1.288,-0.448
2827.0,-9.445,0.443,2.101,4.271,-1.37,-0.494
2831.0,-9.445,0.443,2.101,4.271,-1.37,-0.494
2835.0,-9.445,0.443,2.101,4.271,-1.37,-0.494
2839.0,-10.411,0.7,1.785,3.996,-1.346,-0.507
2843.0,-10.411,0.7,1.785,3.996,-1.346,-0.507
2847.0,-10.618,0.857,2.031,3.664,-1.306,-0.471
2851.0,-10.618,0.857,2.031,3.664,-1.306,-0.471
2855.0,-10.618,0.857,2.031,3.664,-1.306,-0.471
2859.0,-9.905,0.833,2.304,3.307,-1.316,-0.429
2863.0,-9.905,0.833,2.304,3.307,-1.316,-0.429
2867.0,-9.092,0.737,2.201,2.958,-1.36,-0.431
2871.0,-9.092,0.737,2.201,2.958,-1.36,-0.431
2875.0,-9.092,0.737,2.201,2.958,-1.36,-0.431
2879.0,-9.2,0.668,1.942,2.61,-1.365,-0.458
2883.0,-9.2,0.668,1.942,2.61,-1.365,-0.458
2887.0,-10.002,0.563,1.841,2.242,-1.291,-0.455
2891.0,-10.002,0.563,1.841,2.242,-1.291,-0.455
2894.0,-10.002,0.563,1.841,2.242,-1.291,-0.455
2898.0,-10.597,0.43,1.951,1.857,-1.17,-0.409
2902.0,-10.597,0.43,1.951,1.857,-1.17,-0.409
2906.0,-10.591,0.227,2.177,1.466,-1.066,-0.342
2910.0,-10.591,0.227,2.177,1.466,-1.066,-0.342
2914.0,-10.591,0.227,2.177,1.466,-1.066,-0.342
2918.0,-10.391,-0.067,2.326,1.08,-1.01,-0.292
2923.0,-10.391,-0.067,2.326,1.08,-1.01,-0.292
2927.0,-10.458,-0.398,2.3,0.702,-0.986,-0.291
2931.0,-10.458,-0.398,2.3,0.702,-0.986,-0.291
2935.0,-10.458,-0.398,2.3,0.702,-0.986,-0.291
2939.0,-10.622,-0.719,2.101,0.345,-0.967,-0.34
2943.0,-10.622,-0.719,2.101,0.345,-0.967,-0.34
2947.0,-10.614,-0.951,1.891,0.013,-0.943,-0.421
2951.0,-10.614,-0.951,1.891,0.013,-0.943,-0.421
2955.0,-10.254,-1.106,1.609,0.013,-0.943,-0.52
2959.0,-10.254,-1.106,1.609,-0.285,-0.919,-0.52
2963.0,-10.254,-1.106,1.609,-0.285,-0.919,-0.52
2968.0,-9.678,-1.178,1.361,-0.542,-0.894,-0.633
2972.0,-9.678,-1.178,1.361,-0.542,-0.894,-0.633
2976.0,-9.103,-1.22,1.105,-0.75,-0.861,-0.757
2980.0,-9.103,-1.22,1.105,-0.75,-0.861,-0.757
2984.0,-9.103,-1.22,1.105,-0.75,-0.861,-0.757
2988.0,-8.53,-1.292,0.805,-0.901,-0.822,-0.879
2992.0,-8.53,-1.292,0.805,-0.901,-0.822,-0.879
2996.0,-7.95,-1.377,0.522,-0.996,-0.77,-0.992
3000.0,-7.95,-1.377,0.522,-0.996,-0.77,-0.992
