deltaTime,Acc_X,Acc_Y,Acc_Z,Gyro_X,Gyro_Y,Gyro_Z
0.0,-11.991,-1.032,4.165,0.248,0.279,-0.125
3.0,-12.017,-1.077,3.619,0.165,0.177,-0.15
6.0,-12.017,-1.077,3.619,0.165,0.177,-0.15
9.0,-12.017,-1.077,3.619,0.165,0.177,-0.15
12.0,-12.206,-1.344,3.101,0.085,0.104,-0.172
15.0,-12.206,-1.344,3.101,0.085,0.104,-0.172
18.0,-12.206,-1.344,3.101,0.085,0.104,-0.172
21.0,-12.153,-1.597,2.708,0.085,0.104,-0.186
24.0,-12.153,-1.597,2.708,0.037,0.046,-0.186
27.0,-12.153,-1.597,2.708,0.037,0.046,-0.186
30.0,-12.153,-1.597,2.708,0.037,0.046,-0.186
33.0,-12.084,-1.756,2.427,0.018,-0.005,-0.203
37.0,-12.084,-1.756,2.427,0.018,-0.005,-0.203
41.0,-12.09,-1.775,2.114,0.011,-0.053,-0.232
45.0,-12.09,-1.775,2.114,0.011,-0.053,-0.232
49.0,-12.09,-1.775,2.114,0.011,-0.053,-0.232
53.0,-12.15,-1.63,1.777,-0.015,-0.096,-0.272
57.0,-12.15,-1.63,1.777,-0.015,-0.096,-0.272
61.0,-12.106,-1.605,1.534,-0.072,-0.128,-0.312
65.0,-12.106,-1.605,1.534,-0.072,-0.128,-0.312
69.0,-12.106,-1.605,1.534,-0.072,-0.128,-0.312
73.0,-11.831,-1.672,1.432,-0.132,-0.149,-0.345
77.0,-11.831,-1.672,1.432,-0.132,-0.149,-0.345
81.0,-11.657,-1.665,1.388,-0.18,-0.164,-0.385
85.0,-11.657,-1.665,1.388,-0.18,-0.164,-0.385
89.0,-11.657,-1.665,1.388,-0.18,-0.164,-0.385
93.0,-11.64,-1.573,1.282,-0.232,-0.173,-0.439
97.0,-11.64,-1.573,1.282,-0.232,-0.173,-0.439
101.0,-11.644,-1.353,1.061,-0.31,-0.173,-0.499
105.0,-11.644,-1.353,1.061,-0.31,-0.173,-0.499
109.0,-11.644,-1.353,1.061,-0.31,-0.173,-0.499
113.0,-11.658,-1.069,0.951,-0.432,-0.158,-0.559
117.0,-11.658,-1.069,0.951,-0.432,-0.158,-0.559
121.0,-11.66,-0.833,1.025,-0.592,-0.125,-0.602
125.0,-11.66,-0.833,1.025,-0.592,-0.125,-0.602
129.0,-11.573,-0.639,1.219,-0.592,-0.125,-0.602
133.0,-11.573,-0.639,1.219,-0.775,-0.087,-0.619
138.0,-11.573,-0.639,1.219,-0.775,-0.087,-0.619
142.0,-11.256,-0.433,1.495,-0.972,-0.054,-0.619
146.0,-11.256,-0.433,1.495,-0.972,-0.054,-0.619
150.0,-10.725,-0.186,1.753,-1.192,-0.029,-0.612
154.0,-10.725,-0.186,1.753,-1.192,-0.029,-0.612
158.0,-10.725,-0.186,1.753,-1.192,-0.029,-0.612
162.0,-10.126,0.01,1.972,-1.442,-0.012,-0.605
166.0,-10.126,0.01,1.972,-1.442,-0.012,-0.605
170.0,-9.593,0.118,2.139,-1.715,0.004,-0.6
174.0,-9.593,0.118,2.139,-1.715,0.004,-0.6
178.0,-9.593,0.118,2.139,-1.715,0.004,-0.6
181.0,-9.176,0.225,2.227,-2.004,0.025,-0.594
185.0,-9.176,0.225,2.227,-2.004,0.025,-0.594
189.0,-8.833,0.042,2.438,-2.004,0.055,-0.589
193.0,-8.833,0.042,2.438,-2.302,0.055,-0.589
197.0,-8.833,0.042,2.438,-2.302,0.055,-0.589
201.0,-8.603,-0.334,2.626,-2.558,0.09,-0.566
204.0,-8.603,-0.334,2.626,-2.558,0.09,-0.566
208.0,-8.357,-0.731,2.712,-2.558,0.09,-0.566
212.0,-8.357,-0.731,2.712,-2.737,0.098,-0.527
216.0,-8.357,-0.731,2.712,-2.737,0.098,-0.527
220.0,-8.17,-1.078,2.703,-2.843,0.076,-0.487
224.0,-8.17,-1.078,2.703,-2.843,0.076,-0.487
228.0,-8.17,-1.078,2.71,-2.843,0.076,-0.487
232.0,-8.419,-1.597,2.71,-2.889,0.057,-0.438
236.0,-8.419,-1.597,2.71,-2.889,0.057,-0.438
240.0,-8.862,-1.984,2.725,-2.841,0.03,-0.372
244.0,-8.862,-1.984,2.725,-2.841,0.03,-0.372
247.0,-8.862,-1.984,2.725,-2.841,0.03,-0.372
251.0,-8.834,-2.276,2.673,-2.715,-0.017,-0.297
255.0,-8.834,-2.276,2.673,-2.715,-0.017,-0.297
259.0,-8.62,-2.581,2.643,-2.536,-0.056,-0.204
263.0,-8.62,-2.581,2.643,-2.536,-0.056,-0.204
267.0,-8.62,-2.581,2.661,-2.536,-0.056,-0.204
271.0,-8.461,-2.892,2.661,-2.31,-0.08,-0.088
275.0,-8.461,-2.892,2.661,-2.31,-0.08,-0.088
279.0,-8.374,-3.169,2.65,-2.048,-0.095,0.046
283.0,-8.374,-3.169,2.65,-2.048,-0.095,0.046
287.0,-8.374,-3.169,2.615,-2.048,-0.095,0.046
291.0,-8.432,-3.487,2.615,-1.762,-0.102,0.186
295.0,-8.432,-3.487,2.615,-1.762,-0.102,0.186
299.0,-8.648,-3.785,2.582,-1.469,-0.105,0.311
303.0,-8.648,-3.785,2.582,-1.469,-0.105,0.311
307.0,-8.648,-3.785,2.582,-1.469,-0.105,0.311
311.0,-8.889,-3.989,2.575,-1.182,-0.109,0.411
314.0,-8.889,-3.989,2.575,-1.182,-0.109,0.411
318.0,-9.025,-4.046,2.539,-0.912,-0.114,0.486
322.0,-9.025,-4.046,2.539,-0.912,-0.114,0.486
326.0,-9.025,-4.046,2.539,-0.912,-0.114,0.486
330.0,-9.139,-4.026,2.565,-0.668,-0.115,0.54
334.0,-9.139,-4.026,2.565,-0.668,-0.115,0.54
338.0,-9.181,-3.975,2.579,-0.448,-0.11,0.573
342.0,-9.181,-3.975,2.579,-0.448,-0.11,0.573
346.0,-9.181,-3.975,2.579,-0.448,-0.11,0.573
350.0,-9.166,-3.881,2.559,-0.25,-0.102,0.59
354.0,-9.166,-3.881,2.559,-0.25,-0.102,0.59
357.0,-9.145,-3.821,2.599,-0.075,-0.089,0.596
361.0,-9.145,-3.821,2.599,-0.075,-0.089,0.596
365.0,-9.145,-3.821,2.599,-0.075,-0.089,0.596
369.0,-9.185,-3.841,2.711,0.079,-0.078,0.587
373.0,-9.185,-3.841,2.711,0.079,-0.078,0.587
377.0,-9.2,-3.888,2.774,0.21,-0.081,0.56
381.0,-9.2,-3.888,2.774,0.21,-0.081,0.56
384.0,-9.2,-3.888,2.774,0.21,-0.081,0.56
388.0,-9.114,-3.891,2.733,0.318,-0.094,0.515
392.0,-9.114,-3.891,2.733,0.318,-0.094,0.515
396.0,-9.114,-3.875,2.627,0.318,-0.094,0.515
400.0,-8.938,-3.875,2.627,0.407,-0.108,0.455
404.0,-8.938,-3.875,2.627,0.407,-0.108,0.455
407.0,-8.846,-3.856,2.502,0.48,-0.112,0.382
411.0,-8.846,-3.856,2.502,0.48,-0.112,0.382
415.0,-8.846,-3.856,2.502,0.48,-0.112,0.382
419.0,-8.884,-3.907,2.41,0.533,-0.095,0.311
423.0,-8.884,-3.907,2.41,0.533,-0.095,0.311
426.0,-9.101,-4.13,2.341,0.566,-0.063,0.248
430.0,-9.101,-4.13,2.341,0.566,-0.063,0.248
434.0,-9.101,-4.13,2.341,0.566,-0.063,0.248
438.0,-9.304,-4.407,2.322,0.592,-0.034,0.197
442.0,-9.304,-4.407,2.322,0.592,-0.034,0.197
446.0,-9.383,-4.725,2.355,0.592,-0.034,0.151
449.0,-9.383,-4.725,2.355,0.624,-0.021,0.151
453.0,-9.383,-4.725,2.355,0.624,-0.021,0.151
457.0,-9.43,-5.035,2.367,0.662,-0.02,0.111
461.0,-9.43,-5.035,2.367,0.662,-0.02,0.111
465.0,-9.43,-5.035,2.367,0.662,-0.02,0.111
468.0,-9.479,-5.323,2.326,0.704,-0.026,0.08
472.0,-9.479,-5.323,2.326,0.704,-0.026,0.08
476.0,-9.52,-5.532,2.257,0.741,-0.037,0.057
480.0,-9.52,-5.532,2.257,0.741,-0.037,0.057
484.0,-9.52,-5.532,2.257,0.741,-0.037,0.057
488.0,-9.475,-5.686,2.152,0.771,-0.051,0.037
491.0,-9.475,-5.686,2.152,0.771,-0.051,0.037
495.0,-9.265,-5.794,2.106,0.771,-0.068,0.01
499.0,-9.265,-5.794,2.106,0.799,-0.068,0.01
503.0,-9.265,-5.794,2.106,0.799,-0.068,0.01
507.0,-8.975,-5.877,2.118,0.832,-0.084,-0.031
511.0,-8.975,-5.877,2.118,0.832,-0.084,-0.031
514.0,-8.714,-5.915,2.11,0.832,-0.084,-0.031
518.0,-8.714,-5.915,2.11,0.872,-0.102,-0.086
522.0,-8.714,-5.915,2.11,0.872,-0.102,-0.086
526.0,-8.563,-5.887,2.026,0.917,-0.118,-0.152
530.0,-8.563,-5.887,2.026,0.917,-0.118,-0.152
534.0,-8.563,-5.83,1.96,0.917,-0.118,-0.152
538.0,-8.503,-5.83,1.96,0.965,-0.131,-0.218
542.0,-8.503,-5.83,1.96,0.965,-0.131,-0.218
546.0,-8.462,-5.768,1.965,1.01,-0.144,-0.284
550.0,-8.462,-5.768,1.965,1.01,-0.144,-0.284
554.0,-8.462,-5.768,1.968,1.01,-0.144,-0.284
557.0,-8.28,-5.658,1.968,1.059,-0.172,-0.355
561.0,-8.28,-5.658,1.968,1.059,-0.172,-0.355
565.0,-7.967,-5.589,1.973,1.112,-0.215,-0.441
569.0,-7.967,-5.589,1.973,1.112,-0.215,-0.441
573.0,-7.967,-5.589,1.973,1.112,-0.215,-0.441
577.0,-7.523,-5.44,1.932,1.178,-0.264,-0.539
581.0,-7.523,-5.44,1.932,1.178,-0.264,-0.539
585.0,-7.058,-5.211,1.813,1.254,-0.319,-0.655
589.0,-7.058,-5.211,1.813,1.254,-0.319,-0.655
593.0,-7.058,-5.211,1.813,1.254,-0.319,-0.655
596.0,-6.622,-4.95,1.65,1.328,-0.368,-0.782
600.0,-6.622,-4.95,1.65,1.328,-0.368,-0.782
604.0,-6.242,-4.664,1.46,1.39,-0.406,-0.908
608.0,-6.242,-4.664,1.46,1.39,-0.406,-0.908
612.0,-6.242,-4.664,1.46,1.39,-0.406,-0.908
616.0,-5.965,-4.383,1.279,1.435,-0.431,-1.021
620.0,-5.965,-4.383,1.279,1.435,-0.431,-1.021
624.0,-5.815,-4.134,1.149,1.456,-0.439,-1.111
628.0,-5.815,-4.134,1.149,1.456,-0.439,-1.111
632.0,-5.815,-4.134,1.149,1.456,-0.439,-1.111
636.0,-5.761,-3.939,1.076,1.449,-0.433,-1.173
639.0,-5.761,-3.939,1.076,1.449,-0.433,-1.173
643.0,-5.826,-3.791,1.049,1.417,-0.416,-1.206
647.0,-5.826,-3.791,1.049,1.417,-0.416,-1.206
651.0,-5.826,-3.791,1.049,1.417,-0.416,-1.206
655.0,-5.977,-3.726,1.059,1.365,-0.395,-1.212
659.0,-5.977,-3.726,1.059,1.365,-0.395,-1.212
663.0,-6.242,-3.696,1.086,1.365,-0.369,-1.195
667.0,-6.242,-3.696,1.086,1.293,-0.369,-1.195
671.0,-6.242,-3.696,1.086,1.293,-0.369,-1.195
675.0,-6.577,-3.704,1.113,1.206,-0.336,-1.153
679.0,-6.577,-3.704,1.113,1.206,-0.336,-1.153
682.0,-7.004,-3.726,1.195,1.206,-0.336,-1.084
686.0,-7.004,-3.726,1.195,1.109,-0.298,-1.084
690.0,-7.004,-3.726,1.195,1.109,-0.298,-1.084
694.0,-7.521,-3.756,1.287,1.004,-0.26,-0.991
698.0,-7.521,-3.756,1.287,1.004,-0.26,-0.991
702.0,-8.136,-3.835,1.388,1.004,-0.26,-0.991
706.0,-8.136,-3.835,1.388,0.893,-0.226,-0.872
710.0,-8.136,-3.835,1.388,0.893,-0.226,-0.872
714.0,-8.774,-3.928,1.509,0.786,-0.202,-0.732
718.0,-8.774,-3.928,1.509,0.786,-0.202,-0.732
721.0,-8.774,-3.928,1.605,0.786,-0.202,-0.732
725.0,-9.337,-3.992,1.605,0.688,-0.2,-0.583
729.0,-9.337,-3.992,1.605,0.688,-0.2,-0.583
733.0,-9.757,-4.017,1.62,0.603,-0.226,-0.438
737.0,-9.757,-4.017,1.62,0.603,-0.226,-0.438
741.0,-9.757,-4.017,1.62,0.603,-0.226,-0.438
745.0,-10.011,-3.955,1.502,0.53,-0.274,-0.31
749.0,-10.011,-3.955,1.502,0.53,-0.274,-0.31
753.0,-10.142,-3.814,1.322,0.464,-0.32,-0.196
757.0,-10.142,-3.814,1.322,0.464,-0.32,-0.196
761.0,-10.142,-3.814,1.088,0.464,-0.32,-0.196
765.0,-10.373,-3.619,1.088,0.401,-0.353,-0.088
769.0,-10.373,-3.619,1.088,0.401,-0.353,-0.088
773.0,-10.799,-3.405,0.808,0.334,-0.362,0.026
777.0,-10.799,-3.405,0.808,0.334,-0.362,0.026
781.0,-10.799,-3.405,0.552,0.334,-0.362,0.026
785.0,-11.403,-3.192,0.552,0.26,-0.345,0.16
789.0,-11.403,-3.192,0.552,0.26,-0.345,0.16
792.0,-12.047,-3.02,0.367,0.175,-0.311,0.319
796.0,-12.047,-3.02,0.367,0.175,-0.311,0.319
800.0,-12.047,-3.02,0.367,0.175,-0.311,0.319
804.0,-12.504,-2.922,0.301,0.081,-0.271,0.501
808.0,-12.504,-2.922,0.301,0.081,-0.271,0.501
812.0,-12.647,-2.857,0.386,-0.017,-0.235,0.688
816.0,-12.647,-2.857,0.386,-0.017,-0.235,0.688
820.0,-12.647,-2.857,0.386,-0.017,-0.235,0.688
824.0,-12.464,-2.806,0.557,-0.113,-0.209,0.854
828.0,-12.464,-2.806,0.557,-0.113,-0.209,0.854
832.0,-12.071,-2.721,0.736,-0.2,-0.193,0.983
836.0,-12.071,-2.721,0.736,-0.2,-0.193,0.983
840.0,-12.071,-2.721,0.866,-0.2,-0.193,0.983
844.0,-11.555,-2.575,0.866,-0.276,-0.184,1.064
848.0,-11.555,-2.575,0.866,-0.276,-0.184,1.064
852.0,-11.052,-2.387,0.894,-0.339,-0.175,1.103
856.0,-11.052,-2.387,0.894,-0.339,-0.175,1.103
860.0,-11.052,-2.16,0.883,-0.339,-0.175,1.103
864.0,-10.625,-2.16,0.883,-0.391,-0.155,1.105
868.0,-10.625,-2.16,0.883,-0.391,-0.155,1.105
872.0,-10.252,-1.924,0.801,-0.438,-0.12,1.081
876.0,-10.252,-1.924,0.801,-0.438,-0.12,1.081
880.0,-9.985,-1.716,0.753,-0.438,-0.12,1.081
884.0,-9.985,-1.716,0.753,-0.481,-0.067,1.045
888.0,-9.985,-1.716,0.753,-0.481,-0.067,1.045
892.0,-9.884,-1.565,0.705,-0.52,0.003,1.009
895.0,-9.884,-1.565,0.705,-0.52,0.003,1.009
899.0,-9.884,-1.565,0.677,-0.52,0.003,1.009
903.0,-9.893,-1.462,0.677,-0.554,0.084,0.984
907.0,-9.893,-1.462,0.677,-0.554,0.084,0.984
911.0,-9.784,-1.464,0.711,-0.582,0.165,0.98
914.0,-9.784,-1.464,0.711,-0.582,0.165,0.98
918.0,-9.784,-1.464,0.711,-0.582,0.165,0.98
922.0,-9.617,-1.547,0.755,-0.597,0.24,0.989
926.0,-9.617,-1.547,0.755,-0.597,0.24,0.989
930.0,-9.663,-1.658,0.75,-0.595,0.317,1.002
934.0,-9.663,-1.658,0.75,-0.595,0.317,1.002
937.0,-9.663,-1.658,0.75,-0.595,0.317,1.002
941.0,-10.035,-1.741,0.682,-0.576,0.408,1.015
945.0,-10.035,-1.741,0.682,-0.576,0.408,1.015
949.0,-10.635,-1.796,0.628,-0.576,0.408,1.042
953.0,-10.635,-1.796,0.628,-0.549,0.511,1.042
957.0,-10.635,-1.796,0.628,-0.549,0.511,1.042
961.0,-11.32,-1.843,0.622,-0.52,0.622,1.091
965.0,-11.32,-1.843,0.622,-0.52,0.622,1.091
969.0,-11.885,-1.926,0.747,-0.52,0.622,1.091
972.0,-11.885,-1.926,0.747,-0.49,0.733,1.166
976.0,-11.885,-1.926,0.747,-0.49,0.733,1.166
980.0,-12.206,-2.033,0.946,-0.453,0.833,1.264
984.0,-12.206,-2.033,0.946,-0.453,0.833,1.264
988.0,-12.206,-2.193,1.18,-0.453,0.833,1.264
992.0,-12.251,-2.193,1.18,-0.401,0.912,1.37
996.0,-12.251,-2.193,1.18,-0.401,0.912,1.37
1000.0,-11.958,-2.326,1.407,-0.324,0.964,1.466
1004.0,-11.958,-2.326,1.407,-0.324,0.964,1.466
1008.0,-11.958,-2.326,1.55,-0.324,0.964,1.466
1012.0,-11.52,-2.391,1.55,-0.218,0.99,1.535
1016.0,-11.52,-2.391,1.55,-0.218,0.99,1.535
1020.0,-11.151,-2.383,1.577,-0.086,1.002,1.572
1024.0,-11.151,-2.383,1.577,-0.086,1.002,1.572
1028.0,-10.927,-2.292,1.53,-0.086,1.002,1.572
1032.0,-10.927,-2.292,1.53,0.063,1.009,1.587
1036.0,-10.927,-2.292,1.53,0.063,1.009,1.587
1040.0,-10.74,-2.162,1.488,0.223,1.015,1.592
1043.0,-10.74,-2.162,1.488,0.223,1.015,1.592
1047.0,-10.74,-2.051,1.468,0.223,1.015,1.592
1051.0,-10.588,-2.051,1.468,0.384,1.016,1.599
1055.0,-10.588,-2.051,1.468,0.384,1.016,1.599
1059.0,-10.515,-1.947,1.484,0.541,1.009,1.605
1063.0,-10.515,-1.947,1.484,0.541,1.009,1.605
1067.0,-10.515,-1.947,1.499,0.541,1.009,1.605
1071.0,-10.558,-1.86,1.499,0.69,0.989,1.602
1075.0,-10.558,-1.86,1.499,0.69,0.989,1.602
1079.0,-10.619,-1.781,1.494,0.83,0.954,1.591
1083.0,-10.619,-1.781,1.494,0.83,0.954,1.591
1086.0,-10.619,-1.781,1.494,0.83,0.954,1.591
1090.0,-10.607,-1.684,1.478,0.953,0.899,1.568
1094.0,-10.607,-1.684,1.478,0.953,0.899,1.568
1098.0,-10.549,-1.557,1.421,1.058,0.829,1.532
1102.0,-10.549,-1.557,1.421,1.058,0.829,1.532
1106.0,-10.549,-1.557,1.421,1.058,0.829,1.532
1110.0,-10.47,-1.38,1.315,1.134,0.754,1.483
1114.0,-10.47,-1.38,1.315,1.134,0.754,1.483
1118.0,-10.333,-1.178,1.212,1.176,0.68,1.426
1122.0,-10.333,-1.178,1.212,1.176,0.68,1.426
1125.0,-10.333,-1.178,1.212,1.176,0.68,1.426
1129.0,-10.237,-0.965,1.11,1.176,0.613,1.365
1133.0,-10.237,-0.965,1.11,1.176,0.613,1.365
1137.0,-10.216,-0.739,0.98,1.134,0.558,1.299
1141.0,-10.216,-0.739,0.98,1.134,0.558,1.299
1145.0,-10.216,-0.739,0.98,1.134,0.558,1.299
1149.0,-10.198,-0.529,0.894,1.052,0.516,1.232
1153.0,-10.198,-0.529,0.894,1.052,0.516,1.232
1157.0,-10.132,-0.345,0.906,0.929,0.479,1.164
1161.0,-10.132,-0.345,0.906,0.929,0.479,1.164
1165.0,-10.132,-0.345,0.906,0.929,0.479,1.164
1168.0,-10.052,-0.191,0.966,0.771,0.442,1.096
1172.0,-10.052,-0.191,0.966,0.771,0.442,1.096
1176.0,-10.047,-0.084,1.028,0.771,0.405,1.025
1180.0,-10.047,-0.084,1.028,0.586,0.405,1.025
1184.0,-10.047,-0.084,1.028,0.586,0.405,1.025
1188.0,-10.054,0.007,1.043,0.377,0.372,0.954
1192.0,-10.054,0.007,1.043,0.377,0.372,0.954
1196.0,-9.977,0.043,1.097,0.377,0.372,0.954
1199.0,-9.977,0.043,1.097,0.146,0.339,0.885
1203.0,-9.977,0.043,1.097,0.146,0.339,0.885
1207.0,-9.766,0.063,1.179,-0.101,0.302,0.82
1211.0,-9.766,0.063,1.179,-0.101,0.302,0.82
1214.0,-9.766,0.063,1.179,-0.101,0.302,0.82
1218.0,-9.605,0.051,1.211,-0.356,0.26,0.753
1222.0,-9.605,0.051,1.211,-0.356,0.26,0.753
1226.0,-9.513,0.005,1.155,-0.611,0.217,0.68
1230.0,-9.513,0.005,1.155,-0.611,0.217,0.68
1234.0,-9.513,0.005,1.155,-0.611,0.217,0.68
1237.0,-9.433,-0.042,1.082,-0.866,0.178,0.609
1241.0,-9.433,-0.042,1.082,-0.866,0.178,0.609
1245.0,-9.219,-0.129,1.012,-0.866,0.178,0.54
1249.0,-9.219,-0.129,1.012,-1.113,0.137,0.54
1253.0,-9.219,-0.129,1.012,-1.113,0.137,0.54
1257.0,-8.935,-0.242,0.951,-1.344,0.091,0.473
1261.0,-8.935,-0.242,0.951,-1.344,0.091,0.473
1265.0,-8.696,-0.334,0.83,-1.344,0.091,0.473
1269.0,-8.696,-0.334,0.83,-1.555,0.05,0.406
1273.0,-8.696,-0.334,0.83,-1.555,0.05,0.406
1276.0,-8.543,-0.445,0.72,-1.745,0.019,0.34
1280.0,-8.543,-0.445,0.72,-1.745,0.019,0.34
1284.0,-8.543,-0.584,0.629,-1.745,0.019,0.34
1288.0,-8.462,-0.584,0.629,-1.912,-0.002,0.279
1292.0,-8.462,-0.584,0.629,-1.912,-0.002,0.279
1296.0,-8.358,-0.73,0.589,-2.053,-0.018,0.223
1300.0,-8.358,-0.73,0.589,-2.053,-0.018,0.223
1304.0,-8.189,-0.879,0.602,-2.053,-0.018,0.223
1308.0,-8.189,-0.879,0.602,-2.168,-0.03,0.173
1312.0,-8.189,-0.879,0.602,-2.168,-0.03,0.173
1316.0,-8.06,-1.016,0.643,-2.257,-0.039,0.129
1320.0,-8.06,-1.016,0.643,-2.257,-0.039,0.129
1324.0,-7.961,-1.14,0.691,-2.257,-0.039,0.089
1328.0,-7.961,-1.14,0.691,-2.322,-0.039,0.089
1332.0,-7.961,-1.14,0.691,-2.322,-0.039,0.089
1336.0,-7.853,-1.272,0.756,-2.365,-0.033,0.057
1340.0,-7.853,-1.272,0.756,-2.365,-0.033,0.057
1344.0,-7.727,-1.376,0.817,-2.365,-0.024,0.032
1348.0,-7.727,-1.376,0.817,-2.388,-0.024,0.032
1352.0,-7.727,-1.376,0.817,-2.388,-0.024,0.032
1356.0,-7.677,-1.494,0.857,-2.397,-0.012,0.013
1360.0,-7.677,-1.494,0.857,-2.397,-0.012,0.013
1364.0,-7.707,-1.584,0.919,-2.389,0.01,-0.001
1368.0,-7.707,-1.584,0.919,-2.389,0.01,-0.001
1372.0,-7.707,-1.584,0.919,-2.389,0.01,-0.001
1376.0,-7.731,-1.661,0.976,-2.369,0.036,-0.011
1380.0,-7.731,-1.661,0.976,-2.369,0.036,-0.011
1384.0,-7.674,-1.74,1.042,-2.337,0.062,-0.014
1388.0,-7.674,-1.74,1.042,-2.337,0.062,-0.014
1392.0,-7.674,-1.74,1.042,-2.337,0.062,-0.014
1396.0,-7.635,-1.796,1.083,-2.296,0.092,-0.009
1400.0,-7.635,-1.796,1.083,-2.296,0.092,-0.009
1404.0,-7.718,-1.872,1.091,-2.245,0.132,0.002
1408.0,-7.718,-1.872,1.091,-2.245,0.132,0.002
1412.0,-7.718,-1.872,1.091,-2.245,0.132,0.002
1416.0,-7.78,-1.942,1.176,-2.184,0.181,0.021
1420.0,-7.78,-1.942,1.176,-2.184,0.181,0.021
1423.0,-7.765,-2.013,1.335,-2.11,0.226,0.047
1427.0,-7.765,-2.013,1.335,-2.11,0.226,0.047
1431.0,-7.765,-2.013,1.335,-2.11,0.226,0.047
1435.0,-7.737,-2.054,1.528,-2.023,0.26,0.078
1439.0,-7.737,-2.054,1.528,-2.023,0.26,0.078
1443.0,-7.851,-2.075,1.628,-1.923,0.284,0.105
1447.0,-7.851,-2.075,1.628,-1.923,0.284,0.105
1451.0,-7.851,-2.075,1.628,-1.923,0.284,0.105
1455.0,-8.013,-2.052,1.663,-1.818,0.309,0.132
1459.0,-8.013,-2.052,1.663,-1.818,0.309,0.132
1463.0,-8.086,-2.014,1.719,-1.818,0.337,0.162
1466.0,-8.086,-2.014,1.719,-1.714,0.337,0.162
1470.0,-8.086,-2.014,1.719,-1.714,0.337,0.162
1474.0,-8.056,-1.989,1.768,-1.619,0.367,0.197
1478.0,-8.056,-1.989,1.768,-1.619,0.367,0.197
1482.0,-8.026,-1.976,1.81,-1.619,0.367,0.232
1486.0,-8.026,-1.976,1.81,-1.528,0.406,0.232
1490.0,-8.026,-1.976,1.81,-1.528,0.406,0.232
1494.0,-8.056,-1.983,1.909,-1.44,0.454,0.26
1498.0,-8.056,-1.983,1.909,-1.44,0.454,0.26
1502.0,-8.182,-1.979,2.075,-1.44,0.454,0.26
1506.0,-8.182,-1.979,2.075,-1.35,0.506,0.277
1509.0,-8.182,-1.979,2.075,-1.35,0.506,0.277
1513.0,-8.374,-1.979,2.244,-1.255,0.553,0.285
1517.0,-8.374,-1.979,2.244,-1.255,0.553,0.285
1521.0,-8.374,-1.976,2.416,-1.255,0.553,0.285
1525.0,-8.587,-1.976,2.416,-1.152,0.592,0.279
1529.0,-8.587,-1.976,2.416,-1.152,0.592,0.279
1533.0,-8.857,-1.965,2.643,-1.041,0.623,0.262
1537.0,-8.857,-1.965,2.643,-1.041,0.623,0.262
1541.0,-8.857,-1.965,2.832,-1.041,0.623,0.262
1545.0,-9.224,-1.935,2.832,-0.92,0.644,0.233
1548.0,-9.224,-1.935,2.832,-0.92,0.644,0.233
1552.0,-9.741,-1.896,2.984,-0.79,0.656,0.199
1556.0,-9.741,-1.896,2.984,-0.79,0.656,0.199
1560.0,-9.741,-1.896,2.984,-0.79,0.656,0.199
1564.0,-10.274,-1.881,3.144,-0.653,0.661,0.163
1568.0,-10.274,-1.881,3.144,-0.653,0.661,0.163
1572.0,-10.539,-1.866,3.33,-0.511,0.647,0.122
1576.0,-10.539,-1.866,3.33,-0.511,0.647,0.122
1580.0,-10.539,-1.866,3.33,-0.511,0.647,0.122
1584.0,-10.36,-1.822,3.415,-0.366,0.606,0.069
1588.0,-10.36,-1.822,3.415,-0.366,0.606,0.069
1592.0,-9.981,-1.721,3.367,-0.226,0.551,-0.016
1596.0,-9.981,-1.721,3.367,-0.226,0.551,-0.016
1600.0,-9.981,-1.721,3.185,-0.226,0.551,-0.016
1604.0,-9.676,-1.571,3.185,-0.093,0.51,-0.14
1608.0,-9.676,-1.571,3.185,-0.093,0.51,-0.14
1612.0,-9.682,-1.365,3.015,0.026,0.497,-0.285
1616.0,-9.682,-1.365,3.015,0.026,0.497,-0.285
1620.0,-9.682,-1.365,2.886,0.026,0.497,-0.285
1624.0,-10.16,-1.182,2.886,0.13,0.512,-0.421
1628.0,-10.16,-1.182,2.886,0.13,0.512,-0.421
1632.0,-11.019,-1.098,2.85,0.224,0.55,-0.52
1636.0,-11.019,-1.098,2.85,0.224,0.55,-0.52
1640.0,-11.019,-1.153,2.97,0.224,0.55,-0.52
1644.0,-12.043,-1.153,2.97,0.316,0.596,-0.57
1648.0,-12.043,-1.153,2.97,0.316,0.596,-0.57
1652.0,-12.97,-1.363,3.238,0.416,0.621,-0.571
1656.0,-12.97,-1.363,3.238,0.416,0.621,-0.571
1660.0,-13.541,-1.641,3.507,0.416,0.621,-0.571
1664.0,-13.541,-1.641,3.507,0.531,0.604,-0.535
1668.0,-13.541,-1.641,3.507,0.531,0.604,-0.535
1672.0,-13.698,-1.915,3.641,0.658,0.54,-0.48
1676.0,-13.698,-1.915,3.641,0.658,0.54,-0.48
1680.0,-13.369,-2.122,3.622,0.658,0.54,-0.429
1684.0,-13.369,-2.122,3.622,0.791,0.446,-0.429
1688.0,-13.369,-2.122,3.622,0.791,0.446,-0.429
1692.0,-12.663,-2.235,3.403,0.925,0.345,-0.403
1696.0,-12.663,-2.235,3.403,0.925,0.345,-0.403
1700.0,-11.867,-2.193,3.135,1.05,0.259,-0.414
1704.0,-11.867,-2.193,3.135,1.05,0.259,-0.414
1708.0,-11.867,-2.193,3.135,1.05,0.259,-0.414
1712.0,-11.044,-2.054,2.908,1.165,0.193,-0.452
1716.0,-11.044,-2.054,2.908,1.165,0.193,-0.452
1720.0,-10.32,-1.89,2.748,1.274,0.133,-0.507
1724.0,-10.32,-1.89,2.748,1.274,0.133,-0.507
1728.0,-10.32,-1.89,2.748,1.274,0.133,-0.507
1732.0,-9.793,-1.749,2.583,1.381,0.077,-0.563
1735.0,-9.793,-1.749,2.583,1.381,0.077,-0.563
1739.0,-9.474,-1.652,2.397,1.488,0.025,-0.61
1743.0,-9.474,-1.652,2.397,1.488,0.025,-0.61
1747.0,-9.474,-1.652,2.397,1.488,0.025,-0.61
1751.0,-9.356,-1.618,2.241,1.594,-0.016,-0.638
1755.0,-9.356,-1.618,2.241,1.594,-0.016,-0.638
1759.0,-9.325,-1.683,2.176,1.7,-0.054,-0.643
1763.0,-9.325,-1.683,2.176,1.7,-0.054,-0.643
1767.0,-9.325,-1.683,2.176,1.7,-0.054,-0.643
1771.0,-9.302,-1.811,2.152,1.811,-0.097,-0.635
1775.0,-9.302,-1.811,2.152,1.811,-0.097,-0.635
1779.0,-9.325,-1.956,2.087,1.926,-0.153,-0.622
1783.0,-9.325,-1.956,2.087,1.926,-0.153,-0.622
1787.0,-9.325,-1.956,2.087,1.926,-0.153,-0.622
1791.0,-9.49,-2.061,2.001,2.041,-0.218,-0.611
1795.0,-9.49,-2.061,2.001,2.041,-0.218,-0.611
1799.0,-9.79,-2.138,1.86,2.147,-0.285,-0.598
1803.0,-9.79,-2.138,1.86,2.147,-0.285,-0.598
1807.0,-9.79,-2.138,1.86,2.147,-0.285,-0.598
1811.0,-10.164,-2.178,1.719,2.239,-0.353,-0.576
1815.0,-10.164,-2.178,1.719,2.239,-0.353,-0.576
1819.0,-10.556,-2.225,1.606,2.318,-0.422,-0.547
1823.0,-10.556,-2.225,1.606,2.318,-0.422,-0.547
1827.0,-10.917,-2.252,1.481,2.318,-0.422,-0.547
1831.0,-10.917,-2.252,1.481,2.385,-0.491,-0.511
1835.0,-10.917,-2.252,1.481,2.385,-0.491,-0.511
1840.0,-11.314,-2.245,1.373,2.437,-0.559,-0.473
1844.0,-11.314,-2.245,1.373,2.437,-0.559,-0.473
1848.0,-11.678,-2.209,1.28,2.476,-0.626,-0.434
1852.0,-11.678,-2.209,1.28,2.476,-0.626,-0.434
1856.0,-11.678,-2.209,1.28,2.476,-0.626,-0.434
1860.0,-11.927,-2.114,1.208,2.496,-0.696,-0.397
1864.0,-11.927,-2.114,1.208,2.496,-0.696,-0.397
1868.0,-11.971,-1.996,1.11,2.496,-0.772,-0.367
1872.0,-11.971,-1.996,1.11,2.496,-0.772,-0.367
1876.0,-11.971,-1.996,1.11,2.496,-0.772,-0.367
1880.0,-11.788,-1.864,0.992,2.476,-0.849,-0.349
1884.0,-11.788,-1.864,0.992,2.476,-0.849,-0.349
1888.0,-11.506,-1.719,0.882,2.436,-0.92,-0.35
1893.0,-11.506,-1.719,0.882,2.436,-0.92,-0.35
1897.0,-11.21,-1.615,0.728,2.436,-0.92,-0.366
1901.0,-11.21,-1.615,0.728,2.378,-0.98,-0.366
1905.0,-11.21,-1.615,0.728,2.378,-0.98,-0.366
1909.0,-10.908,-1.501,0.599,2.305,-1.026,-0.397
1913.0,-10.908,-1.501,0.599,2.305,-1.026,-0.397
1917.0,-10.703,-1.404,0.531,2.219,-1.057,-0.436
1921.0,-10.703,-1.404,0.531,2.219,-1.057,-0.436
1925.0,-10.703,-1.404,0.531,2.219,-1.057,-0.436
1929.0,-10.593,-1.353,0.484,2.122,-1.075,-0.476
1933.0,-10.593,-1.353,0.484,2.122,-1.075,-0.476
1937.0,-10.596,-1.319,0.474,2.019,-1.085,-0.516
1942.0,-10.596,-1.319,0.474,2.019,-1.085,-0.516
1946.0,-10.596,-1.319,0.47,2.019,-1.085,-0.516
1950.0,-10.714,-1.333,0.47,1.913,-1.092,-0.552
1954.0,-10.714,-1.333,0.47,1.913,-1.092,-0.552
1958.0,-10.884,-1.396,0.478,1.809,-1.099,-0.582
1962.0,-10.884,-1.396,0.478,1.809,-1.099,-0.582
1966.0,-11.029,-1.489,0.503,1.809,-1.108,-0.606
1970.0,-11.029,-1.489,0.503,1.711,-1.108,-0.606
1974.0,-11.029,-1.489,0.503,1.711,-1.108,-0.606
1978.0,-11.106,-1.569,0.526,1.62,-1.12,-0.621
1982.0,-11.106,-1.569,0.526,1.62,-1.12,-0.621
1986.0,-11.128,-1.65,0.537,1.536,-1.136,-0.629
1990.0,-11.128,-1.65,0.537,1.536,-1.136,-0.629
1995.0,-11.128,-1.65,0.537,1.536,-1.136,-0.629
1999.0,-11.048,-1.713,0.516,1.458,-1.155,-0.629
2003.0,-11.048,-1.713,0.516,1.458,-1.155,-0.629
2007.0,-10.868,-1.766,0.464,1.385,-1.173,-0.625
2011.0,-10.868,-1.766,0.464,1.385,-1.173,-0.625
2015.0,-10.674,-1.801,0.383,1.385,-1.173,-0.625
2019.0,-10.674,-1.801,0.383,1.313,-1.188,-0.62
2023.0,-10.674,-1.801,0.383,1.313,-1.188,-0.62
2027.0,-10.491,-1.797,0.331,1.242,-1.192,-0.616
2031.0,-10.491,-1.797,0.331,1.242,-1.192,-0.616
2035.0,-10.251,-1.79,0.294,1.171,-1.194,-0.607
2039.0,-10.251,-1.79,0.294,1.171,-1.194,-0.607
2044.0,-10.251,-1.79,0.294,1.171,-1.194,-0.607
2048.0,-9.918,-1.788,0.266,1.104,-1.198,-0.595
2052.0,-9.918,-1.788,0.266,1.104,-1.198,-0.595
2056.0,-9.58,-1.787,0.206,1.038,-1.2,-0.582
2060.0,-9.58,-1.787,0.206,1.038,-1.2,-0.582
2064.0,-9.58,-1.787,0.206,1.038,-1.2,-0.582
2068.0,-9.4,-1.785,0.106,0.973,-1.192,-0.569
2072.0,-9.4,-1.785,0.106,0.973,-1.192,-0.569
2076.0,-9.391,-1.783,0.011,0.906,-1.169,-0.552
2080.0,-9.391,-1.783,0.011,0.906,-1.169,-0.552
2084.0,-9.391,-1.783,0.011,0.906,-1.169,-0.552
2088.0,-9.35,-1.807,-0.025,0.836,-1.137,-0.526
2092.0,-9.35,-1.807,-0.025,0.836,-1.137,-0.526
2096.0,-9.248,-1.81,-0.08,0.761,-1.104,-0.49
2100.0,-9.248,-1.81,-0.08,0.761,-1.104,-0.49
2104.0,-9.155,-1.848,-0.13,0.761,-1.104,-0.49
2108.0,-9.155,-1.848,-0.13,0.679,-1.064,-0.454
2112.0,-9.155,-1.848,-0.13,0.679,-1.064,-0.454
2116.0,-9.116,-1.89,-0.141,0.593,-1.012,-0.418
2120.0,-9.116,-1.89,-0.141,0.593,-1.012,-0.418
2124.0,-9.045,-1.937,-0.109,0.51,-0.956,-0.38
2128.0,-9.045,-1.937,-0.109,0.51,-0.956,-0.38
2132.0,-9.045,-1.937,-0.109,0.51,-0.956,-0.38
2136.0,-8.834,-2.006,-0.089,0.434,-0.901,-0.342
2141.0,-8.834,-2.006,-0.089,0.434,-0.901,-0.342
2145.0,-8.611,-2.056,-0.059,0.364,-0.845,-0.31
2149.0,-8.611,-2.056,-0.059,0.364,-0.845,-0.31
2153.0,-8.611,-2.056,-0.047,0.364,-0.845,-0.31
2157.0,-8.463,-2.1,-0.047,0.303,-0.784,-0.288
2161.0,-8.463,-2.1,-0.047,0.303,-0.784,-0.288
2165.0,-8.419,-2.134,-0.062,0.249,-0.718,-0.268
2169.0,-8.419,-2.134,-0.062,0.249,-0.718,-0.268
2173.0,-8.466,-2.163,-0.104,0.249,-0.718,-0.25
2177.0,-8.466,-2.163,-0.104,0.201,-0.645,-0.25
2181.0,-8.466,-2.163,-0.104,0.201,-0.645,-0.25
2185.0,-8.502,-2.189,-0.124,0.158,-0.565,-0.229
2190.0,-8.502,-2.189,-0.124,0.158,-0.565,-0.229
2194.0,-8.412,-2.243,-0.106,0.124,-0.486,-0.204
2198.0,-8.412,-2.243,-0.106,0.124,-0.486,-0.204
2202.0,-8.412,-2.243,-0.106,0.124,-0.486,-0.204
2206.0,-8.245,-2.317,-0.088,0.103,-0.413,-0.179
2210.0,-8.245,-2.317,-0.088,0.103,-0.413,-0.179
2214.0,-8.203,-2.392,-0.123,0.095,-0.336,-0.157
2218.0,-8.203,-2.392,-0.123,0.095,-0.336,-0.157
2222.0,-8.383,-2.478,-0.17,0.095,-0.336,-0.157
2226.0,-8.383,-2.478,-0.17,0.099,-0.245,-0.135
2230.0,-8.383,-2.478,-0.17,0.099,-0.245,-0.135
2234.0,-8.632,-2.56,-0.16,0.115,-0.147,-0.104
2238.0,-8.632,-2.56,-0.16,0.115,-0.147,-0.104
2243.0,-8.795,-2.659,-0.098,0.144,-0.055,-0.06
2247.0,-8.795,-2.659,-0.098,0.144,-0.055,-0.06
2251.0,-8.795,-2.659,-0.098,0.144,-0.055,-0.06
2255.0,-8.974,-2.763,-0.013,0.187,0.028,-0.012
2259.0,-8.974,-2.763,-0.013,0.187,0.028,-0.012
2263.0,-9.3,-2.885,0.05,0.247,0.108,0.037
2267.0,-9.3,-2.885,0.05,0.247,0.108,0.037
2270.0,-9.3,-2.885,0.05,0.247,0.108,0.037
2274.0,-9.846,-3.006,0.072,0.319,0.187,0.086
2278.0,-9.846,-3.006,0.072,0.319,0.187,0.086
2282.0,-10.345,-3.078,0.171,0.319,0.261,0.13
2286.0,-10.345,-3.078,0.171,0.407,0.261,0.13
2290.0,-10.345,-3.078,0.171,0.407,0.261,0.13
2294.0,-10.488,-3.09,0.416,0.515,0.318,0.159
2298.0,-10.488,-3.09,0.416,0.515,0.318,0.159
2301.0,-10.346,-3.032,0.656,0.515,0.318,0.159
2305.0,-10.346,-3.032,0.656,0.646,0.348,0.159
2309.0,-10.346,-3.032,0.656,0.646,0.348,0.159
2313.0,-10.208,-2.944,0.76,0.798,0.364,0.123
2317.0,-10.208,-2.944,0.76,0.798,0.364,0.123
2321.0,-10.34,-2.8,0.64,0.798,0.364,0.123
2325.0,-10.34,-2.8,0.64,0.963,0.384,0.061
2329.0,-10.34,-2.8,0.64,0.963,0.384,0.061
2333.0,-10.802,-2.611,0.507,1.124,0.422,-0.008
2337.0,-10.802,-2.611,0.507,1.124,0.422,-0.008
2341.0,-11.487,-2.42,0.465,1.124,0.422,-0.008
2345.0,-11.487,-2.42,0.465,1.272,0.478,-0.063
2349.0,-11.487,-2.42,0.465,1.272,0.478,-0.063
2353.0,-12.224,-2.304,0.511,1.402,0.541,-0.095
2357.0,-12.224,-2.304,0.511,1.402,0.541,-0.095
2361.0,-12.847,-2.239,0.65,1.402,0.541,-0.112
2365.0,-12.847,-2.239,0.65,1.517,0.59,-0.112
2369.0,-12.847,-2.239,0.65,1.517,0.59,-0.112
2373.0,-13.058,-2.178,0.762,1.621,0.611,-0.13
2377.0,-13.058,-2.178,0.762,1.621,0.611,-0.13
2381.0,-12.797,-2.067,0.814,1.621,0.601,-0.167
2385.0,-12.797,-2.067,0.814,1.711,0.601,-0.167
2389.0,-12.797,-2.067,0.814,1.711,0.601,-0.167
2393.0,-12.286,-1.847,0.82,1.783,0.578,-0.235
2397.0,-12.286,-1.847,0.82,1.783,0.578,-0.235
2401.0,-11.761,-1.542,0.769,1.833,0.559,-0.334
2405.0,-11.761,-1.542,0.769,1.833,0.559,-0.334
2409.0,-11.761,-1.542,0.769,1.833,0.559,-0.334
2413.0,-11.32,-1.22,0.703,1.855,0.55,-0.448
2417.0,-11.32,-1.22,0.703,1.855,0.55,-0.448
2421.0,-11.031,-0.903,0.641,1.842,0.556,-0.562
2425.0,-11.031,-0.903,0.641,1.842,0.556,-0.562
2429.0,-11.031,-0.903,0.641,1.842,0.556,-0.562
2432.0,-11.002,-0.616,0.576,1.796,0.583,-0.666
2436.0,-11.002,-0.616,0.576,1.796,0.583,-0.666
2440.0,-11.255,-0.4,0.567,1.713,0.635,-0.745
2444.0,-11.255,-0.4,0.567,1.713,0.635,-0.745
2448.0,-11.255,-0.4,0.567,1.713,0.635,-0.745
2452.0,-11.6,-0.282,0.677,1.601,0.704,-0.791
2456.0,-11.6,-0.282,0.677,1.601,0.704,-0.791
2460.0,-11.755,-0.24,0.866,1.468,0.771,-0.798
2464.0,-11.755,-0.24,0.866,1.468,0.771,-0.798
2468.0,-11.755,-0.24,0.866,1.468,0.771,-0.798
2472.0,-11.649,-0.279,1.157,1.32,0.822,-0.769
2476.0,-11.649,-0.279,1.157,1.32,0.822,-0.769
2480.0,-11.294,-0.328,1.384,1.163,0.854,-0.72
2484.0,-11.294,-0.328,1.384,1.163,0.854,-0.72
2488.0,-11.294,-0.328,1.624,1.163,0.854,-0.72
2492.0,-10.725,-0.415,1.624,1.004,0.866,-0.668
2496.0,-10.725,-0.415,1.624,1.004,0.866,-0.668
2500.0,-10.078,-0.485,1.796,0.86,0.859,-0.622
2504.0,-10.078,-0.485,1.796,0.86,0.859,-0.622
2508.0,-10.078,-0.474,1.788,0.86,0.859,-0.622
2512.0,-9.511,-0.474,1.788,0.728,0.838,-0.593
2516.0,-9.511,-0.474,1.788,0.728,0.838,-0.593
2520.0,-9.057,-0.403,1.658,0.601,0.815,-0.587
2524.0,-9.057,-0.403,1.658,0.601,0.815,-0.587
2528.0,-9.057,-0.403,1.465,0.601,0.815,-0.587
2532.0,-8.764,-0.252,1.465,0.473,0.804,-0.589
2536.0,-8.764,-0.252,1.465,0.473,0.804,-0.589
2540.0,-8.84,-0.102,1.211,0.335,0.823,-0.579
2544.0,-8.84,-0.102,1.211,0.335,0.823,-0.579
2548.0,-8.84,-0.102,1.211,0.335,0.823,-0.579
2551.0,-9.275,0.014,1.013,0.183,0.884,-0.533
2555.0,-9.275,0.014,1.013,0.183,0.884,-0.533
2559.0,-9.907,0.038,0.985,0.019,0.983,-0.436
2563.0,-9.907,0.038,0.985,0.019,0.983,-0.436
2567.0,-9.907,0.038,0.985,0.019,0.983,-0.436
2571.0,-10.513,-0.032,1.149,-0.152,1.096,-0.287
2575.0,-10.513,-0.032,1.149,-0.152,1.096,-0.287
2579.0,-11.021,-0.187,1.419,-0.32,1.198,-0.093
2583.0,-11.021,-0.187,1.419,-0.32,1.198,-0.093
2587.0,-11.021,-0.187,1.419,-0.32,1.198,-0.093
2591.0,-11.332,-0.39,1.726,-0.478,1.272,0.12
2595.0,-11.332,-0.39,1.726,-0.478,1.272,0.12
2599.0,-11.356,-0.576,2.021,-0.619,1.313,0.324
2603.0,-11.356,-0.576,2.021,-0.619,1.313,0.324
2607.0,-11.356,-0.576,2.254,-0.619,1.313,0.324
2611.0,-11.069,-0.705,2.254,-0.745,1.318,0.498
2615.0,-11.069,-0.705,2.254,-0.745,1.318,0.498
2619.0,-10.714,-0.761,2.349,-0.852,1.3,0.628
2623.0,-10.714,-0.761,2.349,-0.852,1.3,0.628
2627.0,-10.714,-0.703,2.295,-0.852,1.3,0.628
2631.0,-10.506,-0.703,2.295,-0.945,1.279,0.717
2635.0,-10.506,-0.703,2.295,-0.945,1.279,0.717
2639.0,-10.426,-0.599,2.164,-1.028,1.267,0.781
2643.0,-10.426,-0.599,2.164,-1.028,1.267,0.781
2647.0,-10.362,-0.477,2.095,-1.028,1.267,0.781
2651.0,-10.362,-0.477,2.095,-1.106,1.265,0.837
2655.0,-10.362,-0.477,2.095,-1.106,1.265,0.837
2659.0,-10.322,-0.35,2.055,-1.184,1.265,0.888
2663.0,-10.322,-0.35,2.055,-1.184,1.265,0.888
2667.0,-10.678,0.315,2.859,-1.184,1.265,0.932
2671.0,-10.678,0.315,2.859,-1.276,1.25,0.932
2675.0,-10.678,0.315,2.859,-1.276,1.25,0.932
2679.0,-11.182,1.601,4.442,-1.46,1.137,0.978
2682.0,-11.182,1.601,4.442,-1.46,1.137,0.978
2686.0,-11.418,3.136,6.494,-1.46,1.137,0.978
2690.0,-11.418,3.136,6.494,-1.854,0.929,0.999
2694.0,-11.418,3.136,6.494,-1.854,0.929,0.999
2698.0,-11.429,4.246,7.725,-2.467,0.642,0.975
2702.0,-11.429,4.246,7.725,-2.467,0.642,0.975
2706.0,-11.429,4.458,7.312,-2.467,0.642,0.975
2710.0,-10.966,4.458,7.312,-3.199,0.346,0.92
2714.0,-10.966,4.458,7.312,-3.199,0.346,0.92
2718.0,-10.708,3.341,5.971,-3.88,0.125,0.875
2721.0,-10.708,3.341,5.971,-3.88,0.125,0.875
2725.0,-10.708,3.341,3.952,-3.88,0.125,0.875
2729.0,-10.64,1.481,3.952,-4.365,-0.029,0.839
2733.0,-10.64,1.481,3.952,-4.365,-0.029,0.839
2737.0,-10.217,-0.377,1.95,-4.663,-0.109,0.808
2741.0,-10.217,-0.377,1.95,-4.663,-0.109,0.808
2745.0,-9.738,-2.017,0.638,-4.663,-0.109,0.808
2749.0,-9.738,-2.017,0.638,-4.76,-0.104,0.756
2753.0,-9.738,-2.017,0.638,-4.76,-0.104,0.756
2757.0,-9.6,-3.336,0.172,-4.605,-0.042,0.665
2761.0,-9.6,-3.336,0.172,-4.605,-0.042,0.665
2765.0,-9.909,-4.147,0.389,-4.605,-0.042,0.553
2769.0,-9.909,-4.147,0.389,-4.221,-0.003,0.553
2773.0,-9.909,-4.147,0.389,-4.221,-0.003,0.553
2777.0,-10.303,-4.501,0.916,-3.663,-0.049,0.451
2781.0,-10.303,-4.501,0.916,-3.663,-0.049,0.451
2786.0,-10.512,-4.702,1.268,-2.99,-0.164,0.362
2790.0,-10.512,-4.702,1.268,-2.99,-0.164,0.362
2794.0,-10.512,-4.702,1.268,-2.99,-0.164,0.362
2798.0,-10.392,-4.659,1.289,-2.254,-0.299,0.28
2802.0,-10.392,-4.659,1.289,-2.254,-0.299,0.28
2806.0,-9.988,-4.396,1.223,-1.52,-0.42,0.207
2810.0,-9.988,-4.396,1.223,-1.52,-0.42,0.207
2814.0,-9.988,-4.396,1.223,-1.52,-0.42,0.207
2818.0,-9.445,-3.987,0.967,-0.847,-0.508,0.144
2822.0,-9.445,-3.987,0.967,-0.847,-0.508,0.144
2826.0,-8.927,-3.532,0.63,-0.266,-0.549,0.086
2830.0,-8.927,-3.532,0.63,-0.266,-0.549,0.086
2834.0,-8.927,-3.532,0.372,-0.266,-0.549,0.086
2838.0,-8.51,-3.09,0.372,0.212,-0.546,0.026
2842.0,-8.51,-3.09,0.372,0.212,-0.546,0.026
2846.0,-8.125,-2.751,0.227,0.59,-0.522,-0.028
2850.0,-8.125,-2.751,0.227,0.59,-0.522,-0.028
2854.0,-8.125,-2.751,0.164,0.59,-0.522,-0.028
2858.0,-7.774,-2.514,0.164,0.884,-0.495,-0.074
2862.0,-7.774,-2.514,0.164,0.884,-0.495,-0.074
2866.0,-7.539,-2.325,0.153,1.108,-0.468,-0.121
2870.0,-7.539,-2.325,0.153,1.108,-0.468,-0.121
2874.0,-7.539,-2.121,0.223,1.108,-0.468,-0.121
2878.0,-7.398,-2.121,0.223,1.27,-0.441,-0.175
2882.0,-7.398,-2.121,0.223,1.27,-0.441,-0.175
2886.0,-7.183,-1.884,0.374,1.377,-0.422,-0.226
2890.0,-7.183,-1.884,0.374,1.377,-0.422,-0.226
2894.0,-6.857,-1.635,0.514,1.377,-0.422,-0.226
2898.0,-6.857,-1.635,0.514,1.43,-0.415,-0.268
2902.0,-6.857,-1.635,0.514,1.43,-0.415,-0.268
2906.0,-6.549,-1.334,0.586,1.429,-0.411,-0.306
2910.0,-6.549,-1.334,0.586,1.429,-0.411,-0.306
2914.0,-6.401,-1.044,0.648,1.429,-0.411,-0.326
2918.0,-6.401,-1.044,0.648,1.371,-0.4,-0.326
2922.0,-6.401,-1.044,0.648,1.371,-0.4,-0.326
2926.0,-6.156,-0.843,0.656,1.27,-0.376,-0.322
2930.0,-6.156,-0.843,0.656,1.27,-0.376,-0.322
2934.0,-5.967,-0.699,0.606,1.27,-0.34,-0.31
2938.0,-5.967,-0.699,0.606,1.131,-0.34,-0.31
2942.0,-5.967,-0.699,0.606,1.131,-0.34,-0.31
2946.0,-5.888,-0.591,0.543,0.956,-0.288,-0.289
2950.0,-5.888,-0.591,0.543,0.956,-0.288,-0.289
2954.0,-5.946,-0.525,0.472,0.75,-0.216,-0.255
2957.0,-5.946,-0.525,0.472,0.75,-0.216,-0.255
2961.0,-5.946,-0.525,0.472,0.75,-0.216,-0.255
2965.0,-6.081,-0.518,0.411,0.518,-0.124,-0.206
2969.0,-6.081,-0.518,0.411,0.518,-0.124,-0.206
2973.0,-6.337,-0.559,0.404,0.263,-0.013,-0.145
2977.0,-6.337,-0.559,0.404,0.263,-0.013,-0.145
2981.0,-6.337,-0.559,0.404,0.263,-0.013,-0.145
2985.0,-6.769,-0.619,0.426,-0.008,0.109,-0.078
2989.0,-6.769,-0.619,0.426,-0.008,0.109,-0.078
2993.0,-7.275,-0.689,0.501,-0.287,0.235,-0.011
2997.0,-7.275,-0.689,0.501,-0.287,0.235,-0.011
