deltaTime,Acc_X,Acc_Y,Acc_Z,Gyro_X,Gyro_Y,Gyro_Z
0.0,-10.135,-2.725,1.796,0.327,-0.261,0.178
3.0,-10.135,-2.725,1.796,0.327,-0.261,0.178
6.0,-10.135,-2.725,1.796,0.327,-0.261,0.178
9.0,-10.497,-2.526,1.7,0.327,-0.261,0.203
12.0,-10.497,-2.526,1.7,0.32,-0.254,0.203
15.0,-10.497,-2.526,1.7,0.32,-0.254,0.203
18.0,-10.497,-2.526,1.7,0.32,-0.254,0.203
21.0,-10.561,-2.305,1.685,0.279,-0.224,0.236
24.0,-10.561,-2.305,1.685,0.279,-0.224,0.236
27.0,-10.561,-2.305,1.685,0.279,-0.224,0.236
30.0,-10.336,-2.177,1.828,0.21,-0.207,0.27
33.0,-10.336,-2.177,1.828,0.21,-0.207,0.27
37.0,-10.336,-2.177,1.828,0.21,-0.207,0.27
41.0,-10.061,-2.398,1.881,0.16,-0.227,0.303
45.0,-10.061,-2.398,1.881,0.16,-0.227,0.303
48.0,-10.053,-2.603,1.82,0.16,-0.227,0.315
52.0,-10.053,-2.603,1.82,0.152,-0.251,0.315
56.0,-10.053,-2.603,1.82,0.152,-0.251,0.315
60.0,-9.853,-2.833,1.854,0.179,-0.245,0.292
64.0,-9.853,-2.833,1.854,0.179,-0.245,0.292
67.0,-9.853,-2.833,1.854,0.179,-0.245,0.292
71.0,-9.414,-3.145,2.075,0.252,-0.23,0.245
75.0,-9.414,-3.145,2.075,0.252,-0.23,0.245
79.0,-9.066,-3.349,2.158,0.397,-0.237,0.194
82.0,-9.066,-3.349,2.158,0.397,-0.237,0.194
86.0,-9.066,-3.349,2.158,0.397,-0.237,0.194
90.0,-9.054,-3.342,1.89,0.591,-0.247,0.135
93.0,-9.054,-3.342,1.89,0.591,-0.247,0.135
97.0,-9.054,-3.342,1.646,0.591,-0.247,0.135
101.0,-9.063,-3.261,1.646,0.784,-0.222,0.075
105.0,-9.063,-3.261,1.646,0.784,-0.222,0.075
109.0,-9.224,-3.062,1.665,0.957,-0.152,0.029
112.0,-9.224,-3.062,1.665,0.957,-0.152,0.029
116.0,-9.224,-3.062,1.665,0.957,-0.152,0.029
120.0,-9.571,-2.676,1.577,1.088,-0.083,-0.0
124.0,-9.571,-2.676,1.577,1.088,-0.083,-0.0
128.0,-9.773,-2.24,1.896,1.146,-0.032,-0.024
132.0,-9.773,-2.24,1.896,1.146,-0.032,-0.024
136.0,-9.773,-2.24,1.896,1.146,-0.032,-0.024
140.0,-9.707,-1.927,2.277,1.148,-0.008,-0.037
143.0,-9.707,-1.927,2.277,1.148,-0.008,-0.037
147.0,-10.14,-1.665,2.321,1.101,-0.021,-0.04
151.0,-10.14,-1.665,2.321,1.101,-0.021,-0.04
155.0,-10.14,-1.665,2.321,1.101,-0.021,-0.04
159.0,-10.807,-1.643,2.076,1.006,-0.019,-0.018
163.0,-10.807,-1.643,2.076,1.006,-0.019,-0.018
167.0,-10.948,-1.677,1.882,0.882,0.031,0.017
171.0,-10.948,-1.677,1.882,0.882,0.031,0.017
175.0,-10.948,-1.677,1.882,0.882,0.031,0.017
179.0,-10.351,-1.548,2.316,0.746,0.107,0.033
183.0,-10.351,-1.548,2.316,0.746,0.107,0.033
186.0,-9.684,-1.457,2.939,0.746,0.107,0.033
190.0,-9.684,-1.457,2.939,0.624,0.142,0.022
194.0,-9.684,-1.457,2.939,0.624,0.142,0.022
198.0,-9.508,-1.478,3.154,0.54,0.126,-0.003
201.0,-9.508,-1.478,3.154,0.54,0.126,-0.003
205.0,-9.508,-1.478,3.154,0.54,0.126,-0.003
209.0,-9.596,-1.457,3.044,0.494,0.114,-0.031
213.0,-9.596,-1.457,3.044,0.494,0.114,-0.031
217.0,-9.699,-1.308,2.831,0.465,0.128,-0.059
221.0,-9.699,-1.308,2.831,0.465,0.128,-0.059
224.0,-9.699,-1.308,2.831,0.465,0.128,-0.059
228.0,-9.581,-0.896,2.651,0.409,0.138,-0.109
232.0,-9.581,-0.896,2.651,0.409,0.138,-0.109
236.0,-9.501,-0.687,2.749,0.409,0.138,-0.183
240.0,-9.501,-0.687,2.749,0.299,0.146,-0.183
243.0,-9.501,-0.687,2.749,0.299,0.146,-0.183
247.0,-9.437,-0.827,2.853,0.178,0.168,-0.225
251.0,-9.437,-0.827,2.853,0.178,0.168,-0.225
255.0,-9.437,-0.827,2.853,0.178,0.168,-0.225
259.0,-9.217,-1.061,3.011,0.114,0.131,-0.221
263.0,-9.217,-1.061,3.011,0.114,0.131,-0.221
266.0,-9.138,-1.281,2.938,0.107,0.062,-0.172
270.0,-9.138,-1.281,2.938,0.107,0.062,-0.172
274.0,-9.138,-1.281,2.938,0.107,0.062,-0.172
278.0,-9.205,-1.408,2.602,0.139,-0.019,-0.135
282.0,-9.205,-1.408,2.602,0.139,-0.019,-0.135
286.0,-9.21,-1.108,2.194,0.158,-0.099,-0.141
290.0,-9.21,-1.108,2.194,0.158,-0.099,-0.141
293.0,-9.21,-1.108,2.194,0.158,-0.099,-0.141
297.0,-8.83,-1.033,1.929,0.119,-0.165,-0.171
301.0,-8.83,-1.033,1.929,0.119,-0.165,-0.171
305.0,-8.404,-1.031,1.714,0.119,-0.196,-0.173
309.0,-8.404,-1.031,1.714,0.062,-0.196,-0.173
313.0,-8.404,-1.031,1.714,0.062,-0.196,-0.173
317.0,-8.224,-1.04,1.557,-0.0,-0.185,-0.151
321.0,-8.224,-1.04,1.557,-0.0,-0.185,-0.151
325.0,-8.273,-1.044,1.499,-0.0,-0.154,-0.118
329.0,-8.273,-1.044,1.499,-0.064,-0.154,-0.118
333.0,-8.273,-1.044,1.499,-0.064,-0.154,-0.118
337.0,-8.374,-1.058,1.502,-0.133,-0.125,-0.073
341.0,-8.374,-1.058,1.502,-0.133,-0.125,-0.073
345.0,-8.48,-1.076,1.548,-0.201,-0.106,-0.02
349.0,-8.48,-1.076,1.548,-0.201,-0.106,-0.02
353.0,-8.48,-1.076,1.548,-0.201,-0.106,-0.02
357.0,-8.544,-1.124,1.582,-0.265,-0.094,0.039
361.0,-8.544,-1.124,1.582,-0.265,-0.094,0.039
365.0,-8.553,-1.204,1.556,-0.325,-0.085,0.099
369.0,-8.553,-1.204,1.556,-0.325,-0.085,0.099
372.0,-8.553,-1.204,1.556,-0.325,-0.085,0.099
376.0,-8.542,-1.3,1.505,-0.383,-0.069,0.157
380.0,-8.542,-1.3,1.505,-0.383,-0.069,0.157
384.0,-8.56,-1.395,1.479,-0.383,-0.045,0.214
388.0,-8.56,-1.395,1.479,-0.437,-0.045,0.214
392.0,-8.56,-1.395,1.479,-0.437,-0.045,0.214
396.0,-8.573,-1.453,1.432,-0.486,-0.015,0.269
400.0,-8.573,-1.453,1.432,-0.486,-0.015,0.269
404.0,-8.664,-1.473,1.377,-0.486,-0.015,0.327
408.0,-8.664,-1.473,1.377,-0.529,0.02,0.327
411.0,-8.664,-1.473,1.377,-0.529,0.02,0.327
415.0,-8.87,-1.49,1.335,-0.573,0.059,0.389
419.0,-8.87,-1.49,1.335,-0.573,0.059,0.389
423.0,-8.87,-1.49,1.283,-0.573,0.059,0.389
427.0,-9.108,-1.53,1.283,-0.612,0.1,0.455
431.0,-9.108,-1.53,1.283,-0.612,0.1,0.455
434.0,-9.312,-1.591,1.231,-0.645,0.139,0.523
438.0,-9.312,-1.591,1.231,-0.645,0.139,0.523
442.0,-9.312,-1.591,1.231,-0.645,0.139,0.523
446.0,-9.34,-1.624,1.215,-0.667,0.172,0.589
450.0,-9.34,-1.624,1.215,-0.667,0.172,0.589
453.0,-9.064,-1.63,1.244,-0.677,0.189,0.648
457.0,-9.064,-1.63,1.244,-0.677,0.189,0.648
461.0,-9.064,-1.63,1.244,-0.677,0.189,0.648
465.0,-8.886,-1.664,1.159,-0.672,0.203,0.691
469.0,-8.886,-1.664,1.159,-0.672,0.203,0.691
473.0,-8.98,-1.72,0.989,-0.672,0.203,0.691
476.0,-8.98,-1.72,0.989,-0.652,0.236,0.712
480.0,-8.98,-1.72,0.989,-0.652,0.236,0.712
484.0,-9.132,-1.753,0.937,-0.621,0.286,0.72
488.0,-9.132,-1.753,0.937,-0.621,0.286,0.72
492.0,-9.132,-1.753,0.937,-0.621,0.286,0.72
495.0,-9.111,-1.78,0.955,-0.579,0.332,0.726
499.0,-9.111,-1.78,0.955,-0.579,0.332,0.726
503.0,-9.08,-1.8,0.983,-0.529,0.371,0.727
507.0,-9.08,-1.8,0.983,-0.529,0.371,0.727
511.0,-9.08,-1.8,0.983,-0.529,0.371,0.727
515.0,-9.137,-1.796,0.972,-0.471,0.413,0.716
518.0,-9.137,-1.796,0.972,-0.471,0.413,0.716
522.0,-9.276,-1.796,1.01,-0.471,0.413,0.697
526.0,-9.276,-1.796,1.01,-0.404,0.46,0.697
530.0,-9.276,-1.796,1.01,-0.404,0.46,0.697
534.0,-9.564,-1.832,1.056,-0.332,0.504,0.679
537.0,-9.564,-1.832,1.056,-0.332,0.504,0.679
541.0,-9.564,-1.832,1.186,-0.332,0.504,0.679
545.0,-9.846,-1.864,1.186,-0.254,0.541,0.665
549.0,-9.846,-1.864,1.186,-0.254,0.541,0.665
553.0,-9.998,-1.897,1.385,-0.169,0.559,0.656
557.0,-9.998,-1.897,1.385,-0.169,0.559,0.656
560.0,-9.998,-1.897,1.385,-0.169,0.559,0.656
564.0,-10.172,-1.944,1.521,-0.077,0.552,0.644
568.0,-10.172,-1.944,1.521,-0.077,0.552,0.644
572.0,-10.357,-1.976,1.512,0.016,0.528,0.625
576.0,-10.357,-1.976,1.512,0.016,0.528,0.625
580.0,-10.357,-1.976,1.512,0.016,0.528,0.625
583.0,-10.481,-1.923,1.416,0.102,0.501,0.599
587.0,-10.481,-1.923,1.416,0.102,0.501,0.599
591.0,-10.421,-1.851,1.296,0.102,0.501,0.599
595.0,-10.421,-1.851,1.296,0.173,0.475,0.566
599.0,-10.421,-1.851,1.296,0.173,0.475,0.566
603.0,-10.081,-1.764,1.125,0.225,0.457,0.524
606.0,-10.081,-1.764,1.125,0.225,0.457,0.524
610.0,-10.081,-1.764,1.125,0.225,0.457,0.524
614.0,-9.483,-1.636,1.08,0.258,0.445,0.468
618.0,-9.483,-1.636,1.08,0.258,0.445,0.468
621.0,-8.943,-1.492,1.047,0.277,0.438,0.394
625.0,-8.943,-1.492,1.047,0.277,0.438,0.394
629.0,-8.943,-1.492,1.047,0.277,0.438,0.394
633.0,-8.635,-1.329,0.994,0.286,0.446,0.305
636.0,-8.635,-1.329,0.994,0.286,0.446,0.305
640.0,-8.635,-1.161,1.069,0.286,0.446,0.305
644.0,-8.404,-1.161,1.069,0.285,0.463,0.211
648.0,-8.404,-1.161,1.069,0.285,0.463,0.211
651.0,-8.346,-1.029,1.217,0.275,0.47,0.125
655.0,-8.346,-1.029,1.217,0.275,0.47,0.125
659.0,-8.346,-1.029,1.217,0.275,0.47,0.125
663.0,-8.808,-0.949,1.224,0.261,0.473,0.052
666.0,-8.808,-0.949,1.224,0.261,0.473,0.052
670.0,-9.656,-0.945,1.164,0.261,0.473,0.052
674.0,-9.656,-0.945,1.164,0.236,0.483,0.003
677.0,-9.656,-0.945,1.164,0.236,0.483,0.003
681.0,-10.548,-0.986,1.112,0.195,0.49,-0.02
685.0,-10.548,-0.986,1.112,0.195,0.49,-0.02
689.0,-10.548,-0.986,1.112,0.195,0.49,-0.02
693.0,-11.099,-1.102,1.051,0.136,0.486,-0.022
697.0,-11.099,-1.102,1.051,0.136,0.486,-0.022
701.0,-11.148,-1.235,1.105,0.064,0.474,-0.012
705.0,-11.148,-1.235,1.105,0.064,0.474,-0.012
709.0,-11.148,-1.235,1.105,0.064,0.474,-0.012
712.0,-10.887,-1.345,1.195,-0.012,0.458,-0.0
716.0,-10.887,-1.345,1.195,-0.012,0.458,-0.0
720.0,-10.631,-1.442,1.238,-0.082,0.448,0.005
724.0,-10.631,-1.442,1.238,-0.082,0.448,0.005
728.0,-10.631,-1.442,1.238,-0.082,0.448,0.005
732.0,-10.546,-1.497,1.232,-0.137,0.448,0.0
736.0,-10.546,-1.497,1.232,-0.137,0.448,0.0
740.0,-10.593,-1.473,1.287,-0.183,0.447,-0.005
744.0,-10.593,-1.473,1.287,-0.183,0.447,-0.005
748.0,-10.593,-1.473,1.287,-0.183,0.447,-0.005
752.0,-10.679,-1.432,1.328,-0.218,0.437,-0.004
756.0,-10.679,-1.432,1.328,-0.218,0.437,-0.004
760.0,-10.694,-1.44,1.379,-0.237,0.416,-0.001
764.0,-10.694,-1.44,1.379,-0.237,0.416,-0.001
768.0,-10.694,-1.44,1.379,-0.237,0.416,-0.001
772.0,-10.528,-1.437,1.414,-0.239,0.38,-0.005
776.0,-10.528,-1.437,1.414,-0.239,0.38,-0.005
780.0,-10.349,-1.454,1.403,-0.229,0.332,-0.021
784.0,-10.349,-1.454,1.403,-0.229,0.332,-0.021
788.0,-10.349,-1.454,1.403,-0.229,0.332,-0.021
792.0,-10.299,-1.458,1.345,-0.209,0.286,-0.048
796.0,-10.299,-1.458,1.345,-0.209,0.286,-0.048
800.0,-10.336,-1.434,1.257,-0.185,0.246,-0.079
804.0,-10.336,-1.434,1.257,-0.185,0.246,-0.079
808.0,-10.336,-1.434,1.183,-0.185,0.246,-0.079
812.0,-10.493,-1.365,1.183,-0.168,0.209,-0.109
816.0,-10.493,-1.365,1.183,-0.168,0.209,-0.109
820.0,-10.546,-1.292,1.144,-0.161,0.17,-0.137
824.0,-10.546,-1.292,1.144,-0.161,0.17,-0.137
828.0,-10.425,-1.216,1.16,-0.161,0.17,-0.137
832.0,-10.425,-1.216,1.16,-0.168,0.125,-0.168
836.0,-10.425,-1.216,1.16,-0.168,0.125,-0.168
840.0,-10.243,-1.151,1.186,-0.185,0.072,-0.209
844.0,-10.243,-1.151,1.186,-0.185,0.072,-0.209
848.0,-10.148,-1.086,1.178,-0.185,0.072,-0.209
852.0,-10.148,-1.086,1.178,-0.207,0.017,-0.261
856.0,-10.148,-1.086,1.178,-0.207,0.017,-0.261
860.0,-10.055,-1.017,1.079,-0.234,-0.036,-0.318
864.0,-10.055,-1.017,1.079,-0.234,-0.036,-0.318
868.0,-9.967,-0.951,0.984,-0.271,-0.079,-0.379
872.0,-9.967,-0.951,0.984,-0.271,-0.079,-0.379
876.0,-9.967,-0.951,0.984,-0.271,-0.079,-0.379
880.0,-9.793,-0.897,0.904,-0.316,-0.113,-0.439
884.0,-9.793,-0.897,0.904,-0.316,-0.113,-0.439
888.0,-9.563,-0.818,0.876,-0.369,-0.139,-0.498
892.0,-9.563,-0.818,0.876,-0.369,-0.139,-0.498
896.0,-9.563,-0.818,0.876,-0.369,-0.139,-0.498
900.0,-9.412,-0.75,0.858,-0.43,-0.152,-0.552
904.0,-9.412,-0.75,0.858,-0.43,-0.152,-0.552
908.0,-9.358,-0.735,0.898,-0.495,-0.155,-0.599
912.0,-9.358,-0.735,0.898,-0.495,-0.155,-0.599
916.0,-9.358,-0.735,0.898,-0.495,-0.155,-0.599
920.0,-9.466,-0.815,0.937,-0.559,-0.154,-0.632
924.0,-9.466,-0.815,0.937,-0.559,-0.154,-0.632
928.0,-9.565,-0.968,0.973,-0.613,-0.153,-0.648
932.0,-9.565,-0.968,0.973,-0.613,-0.153,-0.648
936.0,-9.565,-0.968,0.973,-0.613,-0.153,-0.648
940.0,-9.617,-1.105,1.034,-0.652,-0.158,-0.649
944.0,-9.617,-1.105,1.034,-0.652,-0.158,-0.649
948.0,-9.613,-1.226,1.011,-0.673,-0.167,-0.641
952.0,-9.613,-1.226,1.011,-0.673,-0.167,-0.641
956.0,-9.613,-1.226,1.011,-0.673,-0.167,-0.641
960.0,-9.576,-1.299,0.978,-0.681,-0.176,-0.631
964.0,-9.576,-1.299,0.978,-0.681,-0.176,-0.631
968.0,-9.587,-1.366,0.974,-0.676,-0.179,-0.623
972.0,-9.587,-1.366,0.974,-0.676,-0.179,-0.623
976.0,-9.587,-1.366,0.973,-0.676,-0.179,-0.623
980.0,-9.678,-1.396,0.973,-0.66,-0.178,-0.611
984.0,-9.678,-1.396,0.973,-0.66,-0.178,-0.611
988.0,-9.819,-1.433,0.945,-0.632,-0.175,-0.589
992.0,-9.819,-1.433,0.945,-0.632,-0.175,-0.589
996.0,-10.002,-1.478,0.991,-0.632,-0.175,-0.589
1000.0,-10.002,-1.478,0.991,-0.593,-0.172,-0.557
1004.0,-10.002,-1.478,0.991,-0.593,-0.172,-0.557
1008.0,-10.06,-1.515,1.061,-0.541,-0.178,-0.517
1012.0,-10.06,-1.515,1.061,-0.541,-0.178,-0.517
1016.0,-10.107,-1.556,1.164,-0.474,-0.194,-0.475
1021.0,-10.107,-1.556,1.164,-0.474,-0.194,-0.475
1025.0,-10.107,-1.556,1.164,-0.474,-0.194,-0.475
1029.0,-10.339,-1.603,1.181,-0.392,-0.214,-0.435
1033.0,-10.339,-1.603,1.181,-0.392,-0.214,-0.435
1037.0,-10.741,-1.638,1.113,-0.3,-0.231,-0.393
1041.0,-10.741,-1.638,1.113,-0.3,-0.231,-0.393
1046.0,-11.122,-1.666,1.053,-0.206,-0.25,-0.348
1050.0,-11.122,-1.666,1.053,-0.206,-0.25,-0.348
1054.0,-11.122,-1.666,1.053,-0.206,-0.25,-0.348
1058.0,-11.374,-1.691,0.984,-0.114,-0.272,-0.301
1062.0,-11.374,-1.691,0.984,-0.114,-0.272,-0.301
1066.0,-11.48,-1.705,0.933,-0.027,-0.295,-0.258
1071.0,-11.48,-1.705,0.933,-0.027,-0.295,-0.258
1075.0,-11.526,-1.67,0.9,-0.027,-0.295,-0.258
1079.0,-11.526,-1.67,0.9,0.054,-0.311,-0.226
1083.0,-11.526,-1.67,0.9,0.054,-0.311,-0.226
1087.0,-11.492,-1.6,0.907,0.123,-0.322,-0.207
1091.0,-11.492,-1.6,0.907,0.123,-0.322,-0.207
1095.0,-11.448,-1.524,0.915,0.177,-0.331,-0.203
1099.0,-11.448,-1.524,0.915,0.177,-0.331,-0.203
1103.0,-11.448,-1.524,0.915,0.177,-0.331,-0.203
1107.0,-11.223,-1.441,0.976,0.216,-0.343,-0.207
1112.0,-11.223,-1.441,0.976,0.216,-0.343,-0.207
1116.0,-10.86,-1.33,1.037,0.245,-0.361,-0.224
1120.0,-10.86,-1.33,1.037,0.245,-0.361,-0.224
1124.0,-10.86,-1.203,1.034,0.245,-0.361,-0.224
1128.0,-10.468,-1.203,1.034,0.266,-0.381,-0.257
1132.0,-10.468,-1.203,1.034,0.266,-0.381,-0.257
1136.0,-10.219,-1.07,0.955,0.276,-0.396,-0.303
1140.0,-10.219,-1.07,0.955,0.276,-0.396,-0.303
1144.0,-10.186,-0.994,0.799,0.276,-0.392,-0.358
1148.0,-10.186,-0.994,0.799,0.273,-0.392,-0.358
1152.0,-10.186,-0.994,0.799,0.273,-0.392,-0.358
1156.0,-10.246,-0.938,0.674,0.256,-0.371,-0.413
1161.0,-10.246,-0.938,0.674,0.256,-0.371,-0.413
1165.0,-10.239,-0.929,0.689,0.227,-0.343,-0.461
1169.0,-10.239,-0.929,0.689,0.227,-0.343,-0.461
1173.0,-10.239,-0.929,0.689,0.227,-0.343,-0.461
1177.0,-10.146,-0.977,0.758,0.193,-0.317,-0.497
1181.0,-10.146,-0.977,0.758,0.193,-0.317,-0.497
1185.0,-10.146,-1.061,0.778,0.163,-0.289,-0.529
1189.0,-10.146,-1.061,0.778,0.163,-0.289,-0.529
1193.0,-10.311,-1.164,0.82,0.163,-0.289,-0.529
1197.0,-10.311,-1.164,0.82,0.138,-0.254,-0.553
1201.0,-10.311,-1.164,0.82,0.138,-0.254,-0.553
1205.0,-10.443,-1.256,0.88,0.124,-0.218,-0.563
1209.0,-10.443,-1.256,0.88,0.124,-0.218,-0.563
1214.0,-10.27,-1.355,1.004,0.127,-0.198,-0.553
1218.0,-10.27,-1.355,1.004,0.127,-0.198,-0.553
1222.0,-10.27,-1.355,1.004,0.127,-0.198,-0.553
1226.0,-9.925,-1.457,1.089,0.144,-0.196,-0.531
1230.0,-9.925,-1.457,1.089,0.144,-0.196,-0.531
1234.0,-9.79,-1.558,1.103,0.175,-0.195,-0.505
1238.0,-9.79,-1.558,1.103,0.175,-0.195,-0.505
1242.0,-9.79,-1.558,1.103,0.175,-0.195,-0.505
1246.0,-9.97,-1.649,1.113,0.223,-0.183,-0.472
1250.0,-9.97,-1.649,1.113,0.223,-0.183,-0.472
1254.0,-10.195,-1.78,1.172,0.287,-0.174,-0.424
1258.0,-10.195,-1.78,1.172,0.287,-0.174,-0.424
1262.0,-10.195,-1.78,1.239,0.287,-0.174,-0.424
1266.0,-10.113,-1.907,1.239,0.371,-0.19,-0.356
1270.0,-10.113,-1.907,1.239,0.371,-0.19,-0.356
1274.0,-9.881,-1.991,1.245,0.472,-0.228,-0.285
1278.0,-9.881,-1.991,1.245,0.472,-0.228,-0.285
1282.0,-9.553,-1.999,1.113,0.472,-0.228,-0.228
1286.0,-9.553,-1.999,1.113,0.587,-0.275,-0.228
1290.0,-9.553,-1.999,1.113,0.587,-0.275,-0.228
1294.0,-9.265,-1.888,0.882,0.695,-0.314,-0.191
1298.0,-9.265,-1.888,0.882,0.695,-0.314,-0.191
1302.0,-9.049,-1.689,0.59,0.695,-0.331,-0.169
1306.0,-9.049,-1.689,0.59,0.783,-0.331,-0.169
1310.0,-9.049,-1.689,0.59,0.783,-0.331,-0.169
1314.0,-9.014,-1.472,0.368,0.834,-0.319,-0.156
1318.0,-9.014,-1.472,0.368,0.834,-0.319,-0.156
1322.0,-9.215,-1.308,0.246,0.846,-0.278,-0.138
1326.0,-9.215,-1.308,0.246,0.846,-0.278,-0.138
1330.0,-9.215,-1.308,0.246,0.846,-0.278,-0.138
1334.0,-9.653,-1.201,0.291,0.828,-0.215,-0.105
1338.0,-9.653,-1.201,0.291,0.828,-0.215,-0.105
1342.0,-10.087,-1.17,0.476,0.787,-0.146,-0.051
1346.0,-10.087,-1.17,0.476,0.787,-0.146,-0.051
1350.0,-10.087,-1.17,0.476,0.787,-0.146,-0.051
1354.0,-10.477,-1.187,0.715,0.729,-0.092,0.021
1358.0,-10.477,-1.187,0.715,0.729,-0.092,0.021
1362.0,-10.777,-1.257,0.892,0.658,-0.057,0.108
1366.0,-10.777,-1.257,0.892,0.658,-0.057,0.108
1370.0,-10.777,-1.257,0.892,0.658,-0.057,0.108
1374.0,-10.911,-1.388,1.021,0.581,-0.041,0.202
1378.0,-10.911,-1.388,1.021,0.581,-0.041,0.202
1382.0,-10.936,-1.527,1.037,0.501,-0.039,0.293
1386.0,-10.936,-1.527,1.037,0.501,-0.039,0.293
1390.0,-10.936,-1.527,0.959,0.501,-0.039,0.293
1394.0,-10.868,-1.63,0.959,0.418,-0.04,0.378
1398.0,-10.868,-1.63,0.959,0.418,-0.04,0.378
1402.0,-10.72,-1.671,0.84,0.335,-0.036,0.453
1406.0,-10.72,-1.671,0.84,0.335,-0.036,0.453
1410.0,-10.72,-1.656,0.697,0.335,-0.036,0.453
1414.0,-10.394,-1.656,0.697,0.248,-0.024,0.517
1418.0,-10.394,-1.656,0.697,0.248,-0.024,0.517
1422.0,-9.96,-1.607,0.589,0.16,-0.009,0.566
1426.0,-9.96,-1.607,0.589,0.16,-0.009,0.566
1430.0,-9.467,-1.581,0.529,0.16,-0.009,0.566
1434.0,-9.467,-1.581,0.529,0.075,0.009,0.592
1438.0,-9.467,-1.581,0.529,0.075,0.009,0.592
1442.0,-9.082,-1.534,0.489,-0.002,0.035,0.589
1445.0,-9.082,-1.534,0.489,-0.002,0.035,0.589
1449.0,-9.082,-1.534,0.489,-0.002,0.035,0.589
1453.0,-8.887,-1.496,0.459,-0.069,0.074,0.558
1457.0,-8.887,-1.496,0.459,-0.069,0.074,0.558
1461.0,-8.822,-1.48,0.488,-0.125,0.126,0.514
1465.0,-8.822,-1.48,0.488,-0.125,0.126,0.514
1469.0,-8.822,-1.48,0.488,-0.125,0.126,0.514
1473.0,-8.831,-1.492,0.585,-0.165,0.184,0.467
1477.0,-8.831,-1.492,0.585,-0.165,0.184,0.467
1481.0,-8.78,-1.545,0.763,-0.189,0.239,0.418
1484.0,-8.78,-1.545,0.763,-0.189,0.239,0.418
1488.0,-8.78,-1.545,0.763,-0.189,0.239,0.418
1492.0,-8.658,-1.582,1.024,-0.193,0.284,0.363
1496.0,-8.658,-1.582,1.024,-0.193,0.284,0.363
1500.0,-8.423,-1.612,1.287,-0.175,0.309,0.3
1504.0,-8.423,-1.612,1.287,-0.175,0.309,0.3
1508.0,-8.423,-1.612,1.287,-0.175,0.309,0.3
1512.0,-8.469,-1.655,1.485,-0.139,0.317,0.233
1516.0,-8.469,-1.655,1.485,-0.139,0.317,0.233
1520.0,-9.062,-1.755,1.517,-0.089,0.32,0.172
1524.0,-9.062,-1.755,1.517,-0.089,0.32,0.172
1527.0,-9.062,-1.755,1.517,-0.089,0.32,0.172
1531.0,-9.98,-1.887,1.491,-0.028,0.318,0.133
1535.0,-9.98,-1.887,1.491,-0.028,0.318,0.133
1539.0,-10.606,-2.063,1.455,0.037,0.292,0.115
1543.0,-10.606,-2.063,1.455,0.037,0.292,0.115
1547.0,-10.606,-2.063,1.455,0.037,0.292,0.115
1551.0,-10.488,-2.192,1.421,0.107,0.232,0.102
1555.0,-10.488,-2.192,1.421,0.107,0.232,0.102
1559.0,-9.892,-2.194,1.336,0.107,0.232,0.071
1563.0,-9.892,-2.194,1.336,0.18,0.16,0.071
1566.0,-9.892,-2.194,1.336,0.18,0.16,0.071
1570.0,-9.346,-2.091,1.214,0.252,0.105,0.013
1574.0,-9.346,-2.091,1.214,0.252,0.105,0.013
1578.0,-9.346,-2.091,1.058,0.252,0.105,0.013
1582.0,-9.004,-1.868,1.058,0.315,0.081,-0.059
1586.0,-9.004,-1.868,1.058,0.315,0.081,-0.059
1589.0,-8.953,-1.646,0.96,0.364,0.079,-0.129
1593.0,-8.953,-1.646,0.96,0.364,0.079,-0.129
1597.0,-8.953,-1.646,0.96,0.364,0.079,-0.129
1601.0,-8.996,-1.466,0.926,0.401,0.087,-0.19
1605.0,-8.996,-1.466,0.926,0.401,0.087,-0.19
1609.0,-9.163,-1.329,1.006,0.426,0.101,-0.243
1613.0,-9.163,-1.329,1.006,0.426,0.101,-0.243
1617.0,-9.163,-1.329,1.006,0.426,0.101,-0.243
1621.0,-9.27,-1.262,1.152,0.442,0.115,-0.289
1625.0,-9.27,-1.262,1.152,0.442,0.115,-0.289
1628.0,-9.294,-1.239,1.338,0.451,0.118,-0.33
1632.0,-9.294,-1.239,1.338,0.451,0.118,-0.33
1636.0,-9.294,-1.239,1.338,0.451,0.118,-0.33
1640.0,-9.307,-1.206,1.463,0.452,0.114,-0.366
1644.0,-9.307,-1.206,1.463,0.452,0.114,-0.366
1648.0,-9.472,-1.187,1.573,0.444,0.107,-0.393
1652.0,-9.472,-1.187,1.573,0.444,0.107,-0.393
1656.0,-9.472,-1.187,1.573,0.444,0.107,-0.393
1660.0,-9.757,-1.19,1.601,0.426,0.095,-0.403
1664.0,-9.757,-1.19,1.601,0.426,0.095,-0.403
1668.0,-10.092,-1.231,1.529,0.398,0.079,-0.391
1672.0,-10.092,-1.231,1.529,0.398,0.079,-0.391
1676.0,-10.092,-1.231,1.529,0.398,0.079,-0.391
1680.0,-10.434,-1.274,1.436,0.36,0.064,-0.359
1684.0,-10.434,-1.274,1.436,0.36,0.064,-0.359
1688.0,-10.685,-1.323,1.348,0.314,0.052,-0.309
1692.0,-10.685,-1.323,1.348,0.314,0.052,-0.309
1696.0,-10.685,-1.323,1.348,0.314,0.052,-0.309
1699.0,-10.805,-1.385,1.325,0.264,0.038,-0.244
1703.0,-10.805,-1.385,1.325,0.264,0.038,-0.244
1707.0,-10.749,-1.439,1.336,0.217,0.017,-0.172
1711.0,-10.749,-1.439,1.336,0.217,0.017,-0.172
1715.0,-10.749,-1.439,1.336,0.217,0.017,-0.172
1719.0,-10.487,-1.468,1.326,0.174,-0.009,-0.101
1724.0,-10.487,-1.468,1.326,0.174,-0.009,-0.101
1728.0,-10.108,-1.438,1.273,0.137,-0.042,-0.043
1732.0,-10.108,-1.438,1.273,0.137,-0.042,-0.043
1736.0,-10.108,-1.438,1.172,0.137,-0.042,-0.043
1740.0,-9.763,-1.353,1.172,0.103,-0.065,-0.003
1744.0,-9.763,-1.353,1.172,0.103,-0.065,-0.003
1748.0,-9.588,-1.263,1.052,0.069,-0.073,0.019
1752.0,-9.588,-1.263,1.052,0.069,-0.073,0.019
1756.0,-9.588,-1.205,0.907,0.069,-0.073,0.019
1760.0,-9.651,-1.205,0.907,0.029,-0.059,0.024
1763.0,-9.651,-1.205,0.907,0.029,-0.059,0.024
1767.0,-9.866,-1.157,0.942,-0.013,-0.027,0.02
1771.0,-9.866,-1.157,0.942,-0.013,-0.027,0.02
1775.0,-9.866,-1.209,1.085,-0.013,-0.027,0.02
1779.0,-10.04,-1.209,1.085,-0.045,0.003,0.013
1783.0,-10.04,-1.209,1.085,-0.045,0.003,0.013
1787.0,-10.155,-1.311,1.235,-0.057,0.022,-0.0
1791.0,-10.155,-1.311,1.235,-0.057,0.022,-0.0
1796.0,-10.289,-1.402,1.332,-0.057,0.022,-0.016
1800.0,-10.289,-1.402,1.332,-0.043,0.029,-0.016
1804.0,-10.289,-1.402,1.332,-0.043,0.029,-0.016
1808.0,-10.563,-1.482,1.284,-0.007,0.033,-0.033
1812.0,-10.563,-1.482,1.284,-0.007,0.033,-0.033
1816.0,-10.967,-1.622,1.186,0.04,0.045,-0.041
1820.0,-10.967,-1.622,1.186,0.04,0.045,-0.041
1824.0,-10.967,-1.622,1.186,0.04,0.045,-0.041
1828.0,-11.377,-1.75,1.081,0.088,0.066,-0.034
1832.0,-11.377,-1.75,1.081,0.088,0.066,-0.034
1836.0,-11.578,-1.828,1.063,0.134,0.084,-0.011
1840.0,-11.578,-1.828,1.063,0.134,0.084,-0.011
1844.0,-11.578,-1.828,1.063,0.134,0.084,-0.011
1848.0,-11.446,-1.838,1.121,0.182,0.089,0.023
1852.0,-11.446,-1.838,1.121,0.182,0.089,0.023
1856.0,-11.12,-1.808,1.189,0.229,0.082,0.053
1860.0,-11.12,-1.808,1.189,0.229,0.082,0.053
1863.0,-11.12,-1.808,1.189,0.229,0.082,0.053
1867.0,-10.862,-1.764,1.231,0.274,0.068,0.074
1871.0,-10.862,-1.764,1.231,0.274,0.068,0.074
1875.0,-10.707,-1.694,1.23,0.317,0.053,0.093
1879.0,-10.707,-1.694,1.23,0.317,0.053,0.093
1883.0,-10.707,-1.694,1.23,0.317,0.053,0.093
1887.0,-10.608,-1.567,1.2,0.35,0.038,0.116
1891.0,-10.608,-1.567,1.2,0.35,0.038,0.116
1895.0,-10.56,-1.467,1.152,0.372,0.027,0.145
1899.0,-10.56,-1.467,1.152,0.372,0.027,0.145
1903.0,-10.56,-1.467,1.152,0.372,0.027,0.145
1906.0,-10.433,-1.415,1.113,0.38,0.022,0.177
1910.0,-10.433,-1.415,1.113,0.38,0.022,0.177
1914.0,-10.213,-1.341,1.157,0.38,0.019,0.205
1918.0,-10.213,-1.341,1.157,0.372,0.019,0.205
1922.0,-10.213,-1.341,1.157,0.372,0.019,0.205
1926.0,-9.726,-1.239,1.221,0.349,0.01,0.227
1930.0,-9.726,-1.239,1.221,0.349,0.01,0.227
1934.0,-9.24,-1.128,1.275,0.349,0.01,0.227
1937.0,-9.24,-1.128,1.275,0.31,0.002,0.236
1941.0,-9.24,-1.128,1.275,0.31,0.002,0.236
1945.0,-8.85,-1.033,1.244,0.261,0.003,0.23
1949.0,-8.85,-1.033,1.244,0.261,0.003,0.23
1953.0,-8.85,-1.033,1.244,0.261,0.003,0.23
1957.0,-8.648,-0.955,1.263,0.202,0.015,0.216
1960.0,-8.648,-0.955,1.263,0.202,0.015,0.216
1964.0,-8.503,-0.901,1.298,0.138,0.029,0.204
1968.0,-8.503,-0.901,1.298,0.138,0.029,0.204
1972.0,-8.503,-0.901,1.298,0.138,0.029,0.204
1976.0,-8.329,-0.872,1.348,0.074,0.036,0.198
1979.0,-8.329,-0.872,1.348,0.074,0.036,0.198
1983.0,-8.305,-0.885,1.36,0.074,0.041,0.195
1987.0,-8.305,-0.885,1.36,0.013,0.041,0.195
1991.0,-8.305,-0.885,1.36,0.013,0.041,0.195
1995.0,-8.573,-0.934,1.284,-0.044,0.053,0.198
1999.0,-8.573,-0.934,1.284,-0.044,0.053,0.198
2003.0,-9.154,-1.033,1.168,-0.044,0.053,0.198
2006.0,-9.154,-1.033,1.168,-0.1,0.079,0.217
2010.0,-9.154,-1.033,1.168,-0.1,0.079,0.217
2014.0,-9.609,-1.159,1.108,-0.157,0.105,0.262
2018.0,-9.609,-1.159,1.108,-0.157,0.105,0.262
2022.0,-9.609,-1.159,1.172,-0.157,0.105,0.262
2026.0,-9.888,-1.292,1.172,-0.212,0.122,0.326
2030.0,-9.888,-1.292,1.172,-0.212,0.122,0.326
2034.0,-9.928,-1.376,1.272,-0.256,0.132,0.393
2038.0,-9.928,-1.376,1.272,-0.256,0.132,0.393
2042.0,-9.928,-1.376,1.272,-0.256,0.132,0.393
2046.0,-9.808,-1.467,1.408,-0.284,0.134,0.455
2049.0,-9.808,-1.467,1.408,-0.284,0.134,0.455
2053.0,-9.535,-1.534,1.465,-0.293,0.124,0.503
2057.0,-9.535,-1.534,1.465,-0.293,0.124,0.503
2061.0,-9.535,-1.534,1.465,-0.293,0.124,0.503
2065.0,-9.278,-1.552,1.375,-0.29,0.108,0.526
2069.0,-9.278,-1.552,1.375,-0.29,0.108,0.526
2073.0,-9.26,-1.487,1.199,-0.278,0.103,0.529
2077.0,-9.26,-1.487,1.199,-0.278,0.103,0.529
2081.0,-9.26,-1.487,1.199,-0.278,0.103,0.529
2085.0,-9.486,-1.384,0.939,-0.268,0.118,0.524
2088.0,-9.486,-1.384,0.939,-0.268,0.118,0.524
2092.0,-9.895,-1.314,0.781,-0.271,0.156,0.522
2096.0,-9.895,-1.314,0.781,-0.271,0.156,0.522
2100.0,-9.895,-1.314,0.781,-0.271,0.156,0.522
2104.0,-10.245,-1.308,0.807,-0.285,0.205,0.531
2108.0,-10.245,-1.308,0.807,-0.285,0.205,0.531
2112.0,-10.491,-1.363,1.044,-0.299,0.243,0.55
2116.0,-10.491,-1.363,1.044,-0.299,0.243,0.55
2120.0,-10.491,-1.363,1.044,-0.299,0.243,0.55
2124.0,-10.377,-1.472,1.335,-0.307,0.249,0.57
2128.0,-10.377,-1.472,1.335,-0.307,0.249,0.57
2132.0,-9.992,-1.592,1.569,-0.303,0.217,0.581
2136.0,-9.992,-1.592,1.569,-0.303,0.217,0.581
2140.0,-9.992,-1.592,1.569,-0.303,0.217,0.581
2144.0,-9.805,-1.656,1.596,-0.286,0.166,0.58
2148.0,-9.805,-1.656,1.596,-0.286,0.166,0.58
2152.0,-10.091,-1.713,1.473,-0.256,0.123,0.572
2156.0,-10.091,-1.713,1.473,-0.256,0.123,0.572
2160.0,-10.091,-1.713,1.473,-0.256,0.123,0.572
2164.0,-10.694,-1.758,1.328,-0.219,0.092,0.568
2168.0,-10.694,-1.758,1.328,-0.219,0.092,0.568
2172.0,-11.104,-1.767,1.151,-0.183,0.052,0.577
2176.0,-11.104,-1.767,1.151,-0.183,0.052,0.577
2180.0,-11.104,-1.767,1.151,-0.183,0.052,0.577
2184.0,-11.043,-1.692,0.969,-0.157,-0.002,0.591
2188.0,-11.043,-1.692,0.969,-0.157,-0.002,0.591
2192.0,-10.637,-1.535,0.821,-0.15,-0.057,0.593
2196.0,-10.637,-1.535,0.821,-0.15,-0.057,0.593
2200.0,-10.637,-1.354,0.692,-0.15,-0.057,0.593
2204.0,-9.975,-1.354,0.692,-0.167,-0.099,0.574
2208.0,-9.975,-1.354,0.692,-0.167,-0.099,0.574
2212.0,-9.246,-1.18,0.674,-0.205,-0.121,0.534
2216.0,-9.246,-1.18,0.674,-0.205,-0.121,0.534
2220.0,-8.769,-1.035,0.698,-0.205,-0.121,0.534
2224.0,-8.769,-1.035,0.698,-0.26,-0.129,0.475
2228.0,-8.769,-1.035,0.698,-0.26,-0.129,0.475
2232.0,-8.873,-0.913,0.677,-0.329,-0.117,0.411
2236.0,-8.873,-0.913,0.677,-0.329,-0.117,0.411
2240.0,-9.649,-0.817,0.64,-0.329,-0.08,0.356
2244.0,-9.649,-0.817,0.64,-0.413,-0.08,0.356
2248.0,-9.649,-0.817,0.64,-0.413,-0.08,0.356
2252.0,-10.824,-0.781,0.681,-0.516,-0.03,0.317
2256.0,-10.824,-0.781,0.681,-0.516,-0.03,0.317
2260.0,-11.77,-0.867,0.79,-0.634,0.005,0.302
2264.0,-11.77,-0.867,0.79,-0.634,0.005,0.302
2268.0,-11.77,-0.867,0.79,-0.634,0.005,0.302
2272.0,-12.181,-0.994,0.862,-0.761,0.015,0.3
2276.0,-12.181,-0.994,0.862,-0.761,0.015,0.3
2280.0,-12.122,-1.122,0.924,-0.886,0.008,0.3
2284.0,-12.122,-1.122,0.924,-0.886,0.008,0.3
2288.0,-12.122,-1.122,0.924,-0.886,0.008,0.3
2292.0,-11.712,-1.234,1.012,-0.999,0.003,0.297
2296.0,-11.712,-1.234,1.012,-0.999,0.003,0.297
2300.0,-11.187,-1.311,1.099,-1.09,-0.005,0.294
2304.0,-11.187,-1.311,1.099,-1.09,-0.005,0.294
2308.0,-11.187,-1.311,1.099,-1.09,-0.005,0.294
2312.0,-10.653,-1.366,1.148,-1.152,-0.023,0.295
2316.0,-10.653,-1.366,1.148,-1.152,-0.023,0.295
2320.0,-10.122,-1.417,1.085,-1.184,-0.051,0.292
2324.0,-10.122,-1.417,1.085,-1.184,-0.051,0.292
2328.0,-9.702,-1.437,0.976,-1.184,-0.051,0.292
2332.0,-9.702,-1.437,0.976,-1.189,-0.083,0.283
2336.0,-9.702,-1.437,0.976,-1.189,-0.083,0.283
2340.0,-9.309,-1.439,0.855,-1.17,-0.115,0.262
2344.0,-9.309,-1.439,0.855,-1.17,-0.115,0.262
2348.0,-8.888,-1.436,0.781,-1.17,-0.146,0.233
2352.0,-8.888,-1.436,0.781,-1.131,-0.146,0.233
2356.0,-8.888,-1.436,0.781,-1.131,-0.146,0.233
2360.0,-8.473,-1.46,0.683,-1.075,-0.172,0.2
2364.0,-8.473,-1.46,0.683,-1.075,-0.172,0.2
2368.0,-8.049,-1.499,0.644,-1.008,-0.191,0.164
2372.0,-8.049,-1.499,0.644,-1.008,-0.191,0.164
2376.0,-8.049,-1.499,0.644,-1.008,-0.191,0.164
2380.0,-7.651,-1.487,0.657,-0.93,-0.203,0.128
2384.0,-7.651,-1.487,0.657,-0.93,-0.203,0.128
2388.0,-7.307,-1.467,0.671,-0.85,-0.209,0.092
2392.0,-7.307,-1.467,0.671,-0.85,-0.209,0.092
2396.0,-7.307,-1.467,0.671,-0.85,-0.209,0.092
2400.0,-7.131,-1.478,0.712,-0.769,-0.202,0.055
2404.0,-7.131,-1.478,0.712,-0.769,-0.202,0.055
2408.0,-7.064,-1.481,0.692,-0.69,-0.186,0.017
2412.0,-7.064,-1.481,0.692,-0.69,-0.186,0.017
2416.0,-7.064,-1.481,0.692,-0.69,-0.186,0.017
2420.0,-7.027,-1.488,0.675,-0.618,-0.167,-0.013
2424.0,-7.027,-1.488,0.675,-0.618,-0.167,-0.013
2428.0,-7.009,-1.466,0.718,-0.554,-0.144,-0.034
2433.0,-7.009,-1.466,0.718,-0.554,-0.144,-0.034
2437.0,-7.009,-1.466,0.716,-0.554,-0.144,-0.034
2441.0,-7.145,-1.476,0.716,-0.493,-0.114,-0.044
2445.0,-7.145,-1.476,0.716,-0.493,-0.114,-0.044
2449.0,-7.671,-1.539,0.655,-0.44,-0.068,-0.036
2453.0,-7.671,-1.539,0.655,-0.44,-0.068,-0.036
2457.0,-8.722,-1.653,0.614,-0.44,0.006,-0.003
2461.0,-8.722,-1.653,0.614,-0.397,0.006,-0.003
2465.0,-8.722,-1.653,0.614,-0.397,0.006,-0.003
2469.0,-10.272,-1.822,0.624,-0.359,0.096,0.063
2473.0,-10.272,-1.822,0.624,-0.359,0.096,0.063
2477.0,-12.071,-2.06,0.846,-0.322,0.18,0.17
2481.0,-12.071,-2.06,0.846,-0.322,0.18,0.17
2485.0,-12.071,-2.06,0.846,-0.322,0.18,0.17
2489.0,-13.366,-2.359,1.201,-0.271,0.21,0.311
2493.0,-13.366,-2.359,1.201,-0.271,0.21,0.311
2497.0,-13.619,-2.639,1.561,-0.2,0.163,0.46
2501.0,-13.619,-2.639,1.561,-0.2,0.163,0.46
2505.0,-13.619,-2.639,1.561,-0.2,0.163,0.46
2509.0,-12.65,-2.777,1.618,-0.104,0.052,0.574
2513.0,-12.65,-2.777,1.618,-0.104,0.052,0.574
2517.0,-11.271,-2.623,1.398,0.002,-0.07,0.622
2521.0,-11.271,-2.623,1.398,0.002,-0.07,0.622
2525.0,-11.271,-2.623,1.398,0.002,-0.07,0.622
2529.0,-10.007,-2.317,1.016,0.097,-0.156,0.604
2533.0,-10.007,-2.317,1.016,0.097,-0.156,0.604
2537.0,-9.069,-1.953,0.684,0.167,-0.192,0.54
2541.0,-9.069,-1.953,0.684,0.167,-0.192,0.54
2545.0,-9.069,-1.953,0.684,0.167,-0.192,0.54
2549.0,-8.458,-1.6,0.478,0.211,-0.192,0.443
2553.0,-8.458,-1.6,0.478,0.211,-0.192,0.443
2556.0,-8.155,-1.306,0.343,0.239,-0.174,0.335
2560.0,-8.155,-1.306,0.343,0.239,-0.174,0.335
2564.0,-8.155,-1.306,0.343,0.239,-0.174,0.335
2568.0,-8.056,-1.102,0.301,0.256,-0.148,0.228
2572.0,-8.056,-1.102,0.301,0.256,-0.148,0.228
2576.0,-8.186,-1.013,0.391,0.265,-0.122,0.132
2580.0,-8.186,-1.013,0.391,0.265,-0.122,0.132
2584.0,-8.186,-1.013,0.391,0.265,-0.122,0.132
2588.0,-8.479,-1.021,0.528,0.273,-0.102,0.05
2592.0,-8.479,-1.021,0.528,0.273,-0.102,0.05
2595.0,-8.956,-1.128,0.669,0.284,-0.092,-0.018
2599.0,-8.956,-1.128,0.669,0.284,-0.092,-0.018
2603.0,-8.956,-1.128,0.669,0.284,-0.092,-0.018
2607.0,-9.648,-1.241,0.788,0.293,-0.085,-0.072
2611.0,-9.648,-1.241,0.788,0.293,-0.085,-0.072
2615.0,-10.435,-1.357,0.872,0.293,-0.087,-0.113
2620.0,-10.435,-1.357,0.872,0.293,-0.087,-0.113
2624.0,-10.435,-1.357,0.872,0.293,-0.087,-0.113
2628.0,-11.218,-1.479,0.946,0.278,-0.101,-0.14
2632.0,-11.218,-1.479,0.946,0.278,-0.101,-0.14
2636.0,-11.751,-1.618,1.006,0.253,-0.128,-0.152
2640.0,-11.751,-1.618,1.006,0.253,-0.128,-0.152
2644.0,-11.751,-1.718,1.015,0.253,-0.128,-0.152
2648.0,-11.874,-1.718,1.015,0.222,-0.172,-0.152
2652.0,-11.874,-1.718,1.015,0.222,-0.172,-0.152
2656.0,-11.56,-1.761,0.93,0.187,-0.225,-0.148
2660.0,-11.56,-1.761,0.93,0.187,-0.225,-0.148
2664.0,-11.012,-1.743,0.787,0.187,-0.272,-0.149
2669.0,-11.012,-1.743,0.787,0.152,-0.272,-0.149
2673.0,-11.012,-1.743,0.787,0.152,-0.272,-0.149
2677.0,-10.482,-1.626,0.668,0.117,-0.294,-0.158
2681.0,-10.482,-1.626,0.668,0.117,-0.294,-0.158
2685.0,-10.14,-1.481,0.556,0.087,-0.295,-0.17
2689.0,-10.14,-1.481,0.556,0.087,-0.295,-0.17
2693.0,-10.14,-1.481,0.556,0.087,-0.295,-0.17
2697.0,-10.104,-1.361,0.548,0.061,-0.276,-0.178
2701.0,-10.104,-1.361,0.548,0.061,-0.276,-0.178
2705.0,-10.266,-1.314,0.567,0.041,-0.251,-0.178
2709.0,-10.266,-1.314,0.567,0.041,-0.251,-0.178
2713.0,-10.567,-1.292,0.659,0.041,-0.251,-0.178
2717.0,-10.567,-1.292,0.659,0.027,-0.231,-0.166
2722.0,-10.567,-1.292,0.659,0.027,-0.231,-0.166
2726.0,-10.674,-1.338,0.755,0.015,-0.227,-0.148
2730.0,-10.674,-1.338,0.755,0.015,-0.227,-0.148
2734.0,-10.579,-1.417,0.846,0.006,-0.233,-0.129
2738.0,-10.579,-1.417,0.846,0.006,-0.233,-0.129
2742.0,-10.579,-1.417,0.846,0.006,-0.233,-0.129
2746.0,-10.474,-1.501,0.834,0.001,-0.24,-0.116
2750.0,-10.474,-1.501,0.834,0.001,-0.24,-0.116
2754.0,-10.628,-1.552,0.769,-0.002,-0.232,-0.108
2758.0,-10.628,-1.552,0.769,-0.002,-0.232,-0.108
2763.0,-10.628,-1.567,0.747,-0.002,-0.232,-0.108
2767.0,-10.869,-1.567,0.747,-0.002,-0.214,-0.094
2771.0,-10.869,-1.567,0.747,-0.002,-0.214,-0.094
2775.0,-10.924,-1.567,0.851,-0.0,-0.206,-0.07
2779.0,-10.924,-1.567,0.851,-0.0,-0.206,-0.07
2783.0,-10.825,-1.593,0.93,0.009,-0.219,-0.041
2787.0,-10.825,-1.593,0.93,0.009,-0.219,-0.041
2792.0,-10.825,-1.593,0.93,0.009,-0.219,-0.041
2796.0,-10.777,-1.622,0.927,0.032,-0.238,-0.017
2800.0,-10.777,-1.622,0.927,0.032,-0.238,-0.017
2804.0,-10.876,-1.615,0.775,0.063,-0.253,0.001
2808.0,-10.876,-1.615,0.775,0.063,-0.253,0.001
2812.0,-10.876,-1.615,0.65,0.063,-0.253,0.001
2816.0,-10.887,-1.554,0.65,0.089,-0.26,0.021
2820.0,-10.887,-1.554,0.65,0.089,-0.26,0.021
2824.0,-10.487,-1.452,0.602,0.105,-0.27,0.042
2828.0,-10.487,-1.452,0.602,0.105,-0.27,0.042
2832.0,-10.487,-1.347,0.62,0.105,-0.27,0.042
2836.0,-9.899,-1.347,0.62,0.108,-0.28,0.054
2840.0,-9.899,-1.347,0.62,0.108,-0.28,0.054
2843.0,-9.471,-1.259,0.526,0.101,-0.28,0.045
2847.0,-9.471,-1.259,0.526,0.101,-0.28,0.045
2851.0,-9.471,-1.128,0.465,0.101,-0.28,0.045
2855.0,-9.541,-1.128,0.465,0.079,-0.25,0.021
2859.0,-9.541,-1.128,0.465,0.079,-0.25,0.021
2863.0,-9.851,-1.036,0.532,0.04,-0.203,0.0
2867.0,-9.851,-1.036,0.532,0.04,-0.203,0.0
2871.0,-9.851,-1.036,0.705,0.04,-0.203,0.0
2875.0,-10.136,-1.007,0.705,-0.01,-0.165,-0.005
2879.0,-10.136,-1.007,0.705,-0.01,-0.165,-0.005
2883.0,-10.388,-1.059,0.978,-0.058,-0.149,0.008
2887.0,-10.388,-1.059,0.978,-0.058,-0.149,0.008
2891.0,-10.521,-1.187,1.155,-0.058,-0.149,0.03
2895.0,-10.521,-1.187,1.155,-0.091,-0.161,0.03
2899.0,-10.521,-1.187,1.155,-0.091,-0.161,0.03
2903.0,-10.629,-1.272,1.193,-0.106,-0.194,0.053
2908.0,-10.629,-1.272,1.193,-0.106,-0.194,0.053
2912.0,-10.682,-1.349,1.047,-0.109,-0.239,0.079
2916.0,-10.682,-1.349,1.047,-0.109,-0.239,0.079
2920.0,-10.682,-1.349,1.047,-0.109,-0.239,0.079
2924.0,-10.427,-1.327,0.815,-0.109,-0.283,0.098
2928.0,-10.427,-1.327,0.815,-0.109,-0.283,0.098
2932.0,-9.785,-1.238,0.535,-0.116,-0.328,0.105
2936.0,-9.785,-1.238,0.535,-0.116,-0.328,0.105
2940.0,-9.785,-1.238,0.3,-0.116,-0.328,0.105
2944.0,-9.19,-1.099,0.3,-0.14,-0.355,0.09
2948.0,-9.19,-1.099,0.3,-0.14,-0.355,0.09
2952.0,-8.842,-0.928,0.121,-0.179,-0.354,0.053
2956.0,-8.842,-0.928,0.121,-0.179,-0.354,0.053
2960.0,-8.842,-0.763,0.075,-0.179,-0.354,0.053
2964.0,-8.714,-0.763,0.075,-0.235,-0.329,0.01
2968.0,-8.714,-0.763,0.075,-0.235,-0.329,0.01
2972.0,-8.906,-0.671,0.102,-0.302,-0.287,-0.027
2976.0,-8.906,-0.671,0.102,-0.302,-0.287,-0.027
2980.0,-9.339,-0.667,0.184,-0.302,-0.287,-0.05
2984.0,-9.339,-0.667,0.184,-0.376,-0.236,-0.05
2988.0,-9.339,-0.667,0.184,-0.376,-0.236,-0.05
2992.0,-9.991,-0.7,0.307,-0.451,-0.179,-0.055
2996.0,-9.991,-0.7,0.307,-0.451,-0.179,-0.055
