deltaTime,Acc_X,Acc_Y,Acc_Z,Gyro_X,Gyro_Y,Gyro_Z
0.0,-8.526,-6.72,3.937,0.358,-0.134,-0.423
3.0,-8.526,-6.72,3.937,0.358,-0.134,-0.423
6.0,-8.68,-7.021,3.927,0.346,-0.126,-0.417
9.0,-8.68,-7.021,3.927,0.346,-0.126,-0.417
12.0,-8.68,-7.021,3.927,0.346,-0.126,-0.417
15.0,-9.06,-7.371,4.028,0.383,-0.118,-0.396
18.0,-9.06,-7.371,4.028,0.383,-0.118,-0.396
21.0,-9.06,-7.371,4.028,0.383,-0.118,-0.396
24.0,-8.991,-7.195,3.984,0.456,-0.124,-0.394
27.0,-8.991,-7.195,3.984,0.456,-0.124,-0.394
30.0,-8.991,-7.195,3.984,0.456,-0.124,-0.394
33.0,-8.792,-6.702,3.878,0.456,-0.124,-0.394
37.0,-8.792,-6.702,3.878,0.499,-0.136,-0.422
41.0,-8.792,-6.702,3.878,0.499,-0.136,-0.422
45.0,-8.61,-6.101,3.647,0.487,-0.137,-0.449
49.0,-8.61,-6.101,3.647,0.487,-0.137,-0.449
52.0,-8.61,-6.101,3.647,0.487,-0.137,-0.449
56.0,-8.431,-5.541,3.422,0.409,-0.12,-0.469
60.0,-8.431,-5.541,3.422,0.409,-0.12,-0.469
64.0,-8.31,-5.508,3.333,0.297,-0.092,-0.467
68.0,-8.31,-5.508,3.333,0.297,-0.092,-0.467
72.0,-8.31,-5.508,3.333,0.297,-0.092,-0.467
75.0,-8.32,-5.436,3.258,0.193,-0.055,-0.448
79.0,-8.32,-5.436,3.258,0.193,-0.055,-0.448
83.0,-8.294,-5.229,3.147,0.193,-0.008,-0.429
87.0,-8.294,-5.229,3.147,0.07,-0.008,-0.429
91.0,-8.294,-5.229,3.147,0.07,-0.008,-0.429
94.0,-8.216,-4.982,3.223,-0.092,0.04,-0.415
98.0,-8.216,-4.982,3.223,-0.092,0.04,-0.415
102.0,-8.216,-4.982,3.332,-0.092,0.04,-0.415
106.0,-8.173,-5.07,3.332,-0.272,0.07,-0.395
110.0,-8.173,-5.07,3.332,-0.272,0.07,-0.395
114.0,-8.194,-5.348,3.32,-0.425,0.092,-0.38
118.0,-8.194,-5.348,3.32,-0.425,0.092,-0.38
122.0,-8.194,-5.348,3.32,-0.425,0.092,-0.38
126.0,-8.463,-5.38,3.258,-0.535,0.131,-0.359
129.0,-8.463,-5.38,3.258,-0.535,0.131,-0.359
133.0,-8.989,-5.177,3.3,-0.647,0.177,-0.319
137.0,-8.989,-5.177,3.3,-0.647,0.177,-0.319
141.0,-8.989,-5.177,3.3,-0.647,0.177,-0.319
145.0,-9.43,-5.2,3.366,-0.787,0.214,-0.265
149.0,-9.43,-5.2,3.366,-0.787,0.214,-0.265
153.0,-8.923,-5.332,3.371,-0.933,0.232,-0.229
157.0,-8.923,-5.332,3.371,-0.933,0.232,-0.229
161.0,-8.923,-5.332,3.371,-0.933,0.232,-0.229
165.0,-8.255,-5.438,3.527,-1.029,0.232,-0.234
168.0,-8.255,-5.438,3.527,-1.029,0.232,-0.234
172.0,-8.311,-5.584,3.658,-1.023,0.22,-0.262
176.0,-8.311,-5.584,3.658,-1.023,0.22,-0.262
180.0,-8.311,-5.584,3.658,-1.023,0.22,-0.262
184.0,-8.515,-5.754,3.69,-0.905,0.209,-0.291
188.0,-8.515,-5.754,3.69,-0.905,0.209,-0.291
192.0,-8.474,-5.698,3.716,-0.695,0.209,-0.305
196.0,-8.474,-5.698,3.716,-0.695,0.209,-0.305
200.0,-8.474,-5.698,3.716,-0.695,0.209,-0.305
204.0,-8.066,-5.502,3.886,-0.442,0.206,-0.313
208.0,-8.066,-5.502,3.886,-0.442,0.206,-0.313
211.0,-7.775,-5.3,3.971,-0.442,0.193,-0.315
215.0,-7.775,-5.3,3.971,-0.167,0.193,-0.315
219.0,-7.775,-5.3,3.971,-0.167,0.193,-0.315
223.0,-7.494,-4.933,3.942,0.114,0.165,-0.315
227.0,-7.494,-4.933,3.942,0.114,0.165,-0.315
231.0,-7.377,-4.443,3.827,0.114,0.165,-0.315
235.0,-7.377,-4.443,3.827,0.356,0.122,-0.311
238.0,-7.377,-4.443,3.827,0.356,0.122,-0.311
242.0,-7.284,-3.867,3.636,0.518,0.067,-0.296
246.0,-7.284,-3.867,3.636,0.518,0.067,-0.296
250.0,-7.284,-3.867,3.636,0.518,0.067,-0.296
254.0,-6.94,-3.103,3.379,0.606,-0.027,-0.296
258.0,-6.94,-3.103,3.379,0.606,-0.027,-0.296
262.0,-6.401,-2.361,3.134,0.577,-0.111,-0.319
265.0,-6.401,-2.361,3.134,0.577,-0.111,-0.319
269.0,-6.401,-2.361,3.134,0.577,-0.111,-0.319
273.0,-6.047,-1.898,2.777,0.45,-0.178,-0.353
277.0,-6.047,-1.898,2.777,0.45,-0.178,-0.353
281.0,-5.943,-1.735,2.449,0.273,-0.246,-0.379
285.0,-5.943,-1.735,2.449,0.273,-0.246,-0.379
289.0,-5.943,-1.735,2.449,0.273,-0.246,-0.379
293.0,-5.775,-1.576,2.247,0.094,-0.317,-0.386
297.0,-5.775,-1.576,2.247,0.094,-0.317,-0.386
301.0,-5.562,-1.386,1.981,-0.082,-0.365,-0.374
305.0,-5.562,-1.386,1.981,-0.082,-0.365,-0.374
309.0,-5.562,-1.386,1.981,-0.082,-0.365,-0.374
313.0,-5.8,-1.207,1.714,-0.272,-0.388,-0.344
317.0,-5.8,-1.207,1.714,-0.272,-0.388,-0.344
321.0,-6.071,-1.091,1.553,-0.49,-0.419,-0.324
325.0,-6.071,-1.091,1.553,-0.49,-0.419,-0.324
329.0,-6.071,-1.091,1.553,-0.49,-0.419,-0.324
333.0,-6.218,-1.12,1.446,-0.719,-0.459,-0.28
337.0,-6.218,-1.12,1.446,-0.719,-0.459,-0.28
341.0,-6.323,-1.153,1.312,-0.941,-0.501,-0.219
345.0,-6.323,-1.153,1.312,-0.941,-0.501,-0.219
349.0,-6.323,-1.153,1.312,-0.941,-0.501,-0.219
353.0,-6.324,-1.181,1.176,-1.148,-0.538,-0.157
357.0,-6.324,-1.181,1.176,-1.148,-0.538,-0.157
361.0,-6.296,-1.177,1.118,-1.34,-0.574,-0.099
365.0,-6.296,-1.177,1.118,-1.34,-0.574,-0.099
368.0,-6.296,-1.177,1.089,-1.34,-0.574,-0.099
372.0,-6.357,-1.153,1.089,-1.519,-0.609,-0.043
376.0,-6.357,-1.153,1.089,-1.519,-0.609,-0.043
380.0,-6.538,-1.071,1.074,-1.691,-0.646,0.018
384.0,-6.538,-1.071,1.074,-1.691,-0.646,0.018
388.0,-6.538,-1.071,1.125,-1.691,-0.646,0.018
392.0,-6.775,-1.052,1.125,-1.867,-0.684,0.094
396.0,-6.775,-1.052,1.125,-1.867,-0.684,0.094
400.0,-7.018,-1.068,1.177,-2.047,-0.73,0.18
404.0,-7.018,-1.068,1.177,-2.047,-0.73,0.18
408.0,-7.018,-1.068,1.177,-2.047,-0.73,0.18
412.0,-7.152,-1.155,1.164,-2.225,-0.783,0.267
416.0,-7.152,-1.155,1.164,-2.225,-0.783,0.267
420.0,-7.204,-1.287,1.192,-2.395,-0.833,0.343
423.0,-7.204,-1.287,1.192,-2.395,-0.833,0.343
427.0,-7.204,-1.287,1.192,-2.395,-0.833,0.343
431.0,-7.328,-1.461,1.228,-2.554,-0.877,0.402
435.0,-7.328,-1.461,1.228,-2.554,-0.877,0.402
439.0,-7.592,-1.698,1.277,-2.701,-0.918,0.448
443.0,-7.592,-1.698,1.277,-2.701,-0.918,0.448
447.0,-7.592,-1.698,1.277,-2.701,-0.918,0.448
451.0,-7.912,-1.884,1.348,-2.831,-0.952,0.48
455.0,-7.912,-1.884,1.348,-2.831,-0.952,0.48
459.0,-8.253,-1.967,1.534,-2.941,-0.988,0.512
463.0,-8.253,-1.967,1.534,-2.941,-0.988,0.512
466.0,-8.253,-1.967,1.534,-2.941,-0.988,0.512
470.0,-8.512,-2.042,1.686,-3.03,-1.033,0.556
474.0,-8.512,-2.042,1.686,-3.03,-1.033,0.556
478.0,-8.596,-2.179,1.765,-3.096,-1.084,0.611
482.0,-8.596,-2.179,1.765,-3.096,-1.084,0.611
486.0,-8.596,-2.179,1.765,-3.096,-1.084,0.611
490.0,-8.533,-2.338,1.866,-3.14,-1.131,0.67
494.0,-8.533,-2.338,1.866,-3.14,-1.131,0.67
498.0,-8.372,-2.471,1.936,-3.14,-1.168,0.723
502.0,-8.372,-2.471,1.936,-3.164,-1.168,0.723
505.0,-8.372,-2.471,1.936,-3.164,-1.168,0.723
509.0,-8.239,-2.581,1.994,-3.172,-1.188,0.767
513.0,-8.239,-2.581,1.994,-3.172,-1.188,0.767
517.0,-8.245,-2.612,2.145,-3.172,-1.188,0.803
521.0,-8.245,-2.612,2.145,-3.166,-1.193,0.803
525.0,-8.245,-2.612,2.145,-3.166,-1.193,0.803
529.0,-8.372,-2.649,2.32,-3.148,-1.193,0.841
533.0,-8.372,-2.649,2.32,-3.148,-1.193,0.841
537.0,-8.614,-2.698,2.445,-3.148,-1.193,0.841
541.0,-8.614,-2.698,2.445,-3.118,-1.191,0.884
545.0,-8.614,-2.698,2.445,-3.118,-1.191,0.884
548.0,-8.888,-2.734,2.541,-3.074,-1.183,0.936
552.0,-8.888,-2.734,2.541,-3.074,-1.183,0.936
556.0,-8.888,-2.794,2.712,-3.074,-1.183,0.936
560.0,-9.066,-2.794,2.712,-3.015,-1.172,1.001
564.0,-9.066,-2.794,2.712,-3.015,-1.172,1.001
568.0,-9.095,-2.892,2.879,-2.943,-1.167,1.075
572.0,-9.095,-2.892,2.879,-2.943,-1.167,1.075
576.0,-9.095,-2.892,2.967,-2.943,-1.167,1.075
580.0,-9.013,-2.975,2.967,-2.858,-1.165,1.147
584.0,-9.013,-2.975,2.967,-2.858,-1.165,1.147
588.0,-8.888,-3.007,3.074,-2.757,-1.164,1.208
591.0,-8.888,-3.007,3.074,-2.757,-1.164,1.208
595.0,-8.888,-3.007,3.074,-2.757,-1.164,1.208
599.0,-8.819,-3.047,3.078,-2.645,-1.164,1.259
603.0,-8.819,-3.047,3.078,-2.645,-1.164,1.259
607.0,-8.873,-3.084,2.926,-2.524,-1.152,1.304
611.0,-8.873,-3.084,2.926,-2.524,-1.152,1.304
615.0,-8.873,-3.084,2.926,-2.524,-1.152,1.304
619.0,-8.948,-3.173,2.882,-2.4,-1.118,1.348
623.0,-8.948,-3.173,2.882,-2.4,-1.118,1.348
627.0,-8.984,-3.303,2.983,-2.274,-1.073,1.394
630.0,-8.984,-3.303,2.983,-2.274,-1.073,1.394
634.0,-8.984,-3.303,2.983,-2.274,-1.073,1.394
638.0,-9.084,-3.428,3.103,-2.139,-1.035,1.436
642.0,-9.084,-3.428,3.103,-2.139,-1.035,1.436
646.0,-9.291,-3.494,3.294,-1.999,-1.003,1.469
650.0,-9.291,-3.494,3.294,-1.999,-1.003,1.469
654.0,-9.291,-3.494,3.294,-1.999,-1.003,1.469
658.0,-9.426,-3.507,3.556,-1.856,-0.984,1.495
662.0,-9.426,-3.507,3.556,-1.856,-0.984,1.495
666.0,-9.482,-3.516,3.704,-1.714,-0.988,1.513
670.0,-9.482,-3.516,3.704,-1.714,-0.988,1.513
673.0,-9.482,-3.516,3.704,-1.714,-0.988,1.513
677.0,-9.462,-3.48,3.697,-1.579,-0.999,1.518
681.0,-9.462,-3.48,3.697,-1.579,-0.999,1.518
685.0,-9.399,-3.373,3.628,-1.579,-0.998,1.507
689.0,-9.399,-3.373,3.628,-1.456,-0.998,1.507
693.0,-9.399,-3.373,3.628,-1.456,-0.998,1.507
697.0,-9.428,-3.228,3.435,-1.345,-0.974,1.485
701.0,-9.428,-3.228,3.435,-1.345,-0.974,1.485
705.0,-9.552,-3.107,3.214,-1.345,-0.974,1.464
709.0,-9.552,-3.107,3.214,-1.255,-0.916,1.464
713.0,-9.552,-3.107,3.214,-1.255,-0.916,1.464
716.0,-9.575,-3.011,3.148,-1.188,-0.827,1.45
720.0,-9.575,-3.011,3.148,-1.188,-0.827,1.45
724.0,-9.418,-2.892,3.322,-1.188,-0.827,1.45
728.0,-9.418,-2.892,3.322,-1.146,-0.725,1.44
732.0,-9.418,-2.892,3.322,-1.146,-0.725,1.44
736.0,-9.363,-2.808,3.537,-1.128,-0.63,1.428
740.0,-9.363,-2.808,3.537,-1.128,-0.63,1.428
744.0,-9.363,-2.808,3.74,-1.128,-0.63,1.428
748.0,-9.29,-2.737,3.74,-1.124,-0.554,1.41
752.0,-9.29,-2.737,3.74,-1.124,-0.554,1.41
755.0,-9.295,-2.658,3.747,-1.133,-0.501,1.395
759.0,-9.295,-2.658,3.747,-1.133,-0.501,1.395
763.0,-9.295,-2.658,3.747,-1.133,-0.501,1.395
767.0,-9.438,-2.649,3.535,-1.152,-0.446,1.395
771.0,-9.438,-2.649,3.535,-1.152,-0.446,1.395
775.0,-9.596,-2.742,3.331,-1.178,-0.367,1.42
779.0,-9.596,-2.742,3.331,-1.178,-0.367,1.42
783.0,-9.596,-2.742,3.331,-1.178,-0.367,1.42
787.0,-9.714,-2.846,3.333,-1.209,-0.269,1.471
791.0,-9.714,-2.846,3.333,-1.209,-0.269,1.471
795.0,-9.715,-2.973,3.432,-1.234,-0.164,1.541
798.0,-9.715,-2.973,3.432,-1.234,-0.164,1.541
802.0,-9.715,-2.973,3.432,-1.234,-0.164,1.541
806.0,-9.812,-3.052,3.642,-1.245,-0.065,1.609
810.0,-9.812,-3.052,3.642,-1.245,-0.065,1.609
814.0,-10.027,-3.083,3.816,-1.235,0.025,1.661
818.0,-10.027,-3.083,3.816,-1.235,0.025,1.661
822.0,-10.027,-3.083,3.816,-1.235,0.025,1.661
826.0,-10.092,-3.082,4.012,-1.199,0.093,1.692
830.0,-10.092,-3.082,4.012,-1.199,0.093,1.692
834.0,-10.153,-3.015,4.186,-1.138,0.132,1.707
838.0,-10.153,-3.015,4.186,-1.138,0.132,1.707
841.0,-10.153,-3.015,4.186,-1.138,0.132,1.707
845.0,-10.235,-2.93,4.231,-1.058,0.154,1.707
849.0,-10.235,-2.93,4.231,-1.058,0.154,1.707
853.0,-10.333,-2.824,4.134,-0.962,0.172,1.696
857.0,-10.333,-2.824,4.134,-0.962,0.172,1.696
861.0,-10.333,-2.824,4.134,-0.962,0.172,1.696
865.0,-10.385,-2.71,4.1,-0.859,0.195,1.674
869.0,-10.385,-2.71,4.1,-0.859,0.195,1.674
873.0,-10.48,-2.618,4.001,-0.859,0.22,1.636
877.0,-10.48,-2.618,4.001,-0.755,0.22,1.636
880.0,-10.48,-2.618,4.001,-0.755,0.22,1.636
884.0,-10.545,-2.496,3.992,-0.655,0.247,1.577
888.0,-10.545,-2.496,3.992,-0.655,0.247,1.577
892.0,-10.674,-2.383,4.036,-0.655,0.247,1.577
896.0,-10.674,-2.383,4.036,-0.568,0.262,1.499
900.0,-10.674,-2.383,4.036,-0.568,0.262,1.499
904.0,-10.87,-2.203,4.231,-0.499,0.266,1.404
908.0,-10.87,-2.203,4.231,-0.499,0.266,1.404
912.0,-11.123,-2.046,4.406,-0.499,0.266,1.404
916.0,-11.123,-2.046,4.406,-0.448,0.254,1.301
920.0,-11.123,-2.046,4.406,-0.448,0.254,1.301
923.0,-11.532,-1.822,4.548,-0.416,0.239,1.195
927.0,-11.532,-1.822,4.548,-0.416,0.239,1.195
931.0,-11.532,-1.822,4.655,-0.416,0.239,1.195
935.0,-11.756,-1.649,4.655,-0.402,0.226,1.096
939.0,-11.756,-1.649,4.655,-0.402,0.226,1.096
943.0,-11.789,-1.411,4.741,-0.405,0.206,0.996
947.0,-11.789,-1.411,4.741,-0.405,0.206,0.996
951.0,-11.789,-1.411,4.741,-0.405,0.206,0.996
955.0,-11.707,-1.201,4.796,-0.42,0.18,0.895
959.0,-11.707,-1.201,4.796,-0.42,0.18,0.895
962.0,-11.532,-0.983,4.707,-0.439,0.145,0.793
966.0,-11.532,-0.983,4.707,-0.439,0.145,0.793
970.0,-11.532,-0.983,4.707,-0.439,0.145,0.793
974.0,-11.348,-0.754,4.563,-0.455,0.112,0.691
978.0,-11.348,-0.754,4.563,-0.455,0.112,0.691
982.0,-11.082,-0.589,4.434,-0.47,0.081,0.59
986.0,-11.082,-0.589,4.434,-0.47,0.081,0.59
990.0,-11.082,-0.589,4.434,-0.47,0.081,0.59
994.0,-10.941,-0.427,4.219,-0.482,0.065,0.493
998.0,-10.941,-0.427,4.219,-0.482,0.065,0.493
1002.0,-10.988,-0.309,4.111,-0.493,0.076,0.409
1006.0,-10.988,-0.309,4.111,-0.493,0.076,0.409
1010.0,-10.988,-0.309,4.111,-0.493,0.076,0.409
1014.0,-10.904,-0.294,4.158,-0.498,0.098,0.346
1018.0,-10.904,-0.294,4.158,-0.498,0.098,0.346
1022.0,-10.833,-0.318,4.371,-0.491,0.115,0.295
1026.0,-10.833,-0.318,4.371,-0.491,0.115,0.295
1030.0,-10.833,-0.318,4.371,-0.491,0.115,0.295
1034.0,-11.104,-0.169,4.676,-0.473,0.126,0.247
1038.0,-11.104,-0.169,4.676,-0.473,0.126,0.247
1041.0,-11.033,-0.026,5.005,-0.446,0.127,0.216
1045.0,-11.033,-0.026,5.005,-0.446,0.127,0.216
1049.0,-11.033,-0.026,5.005,-0.446,0.127,0.216
1053.0,-10.736,0.139,5.418,-0.415,0.104,0.205
1057.0,-10.736,0.139,5.418,-0.415,0.104,0.205
1061.0,-10.296,0.254,5.609,-0.376,0.064,0.202
1065.0,-10.296,0.254,5.609,-0.376,0.064,0.202
1069.0,-10.296,0.254,5.609,-0.376,0.064,0.202
1073.0,-9.808,0.412,5.615,-0.328,0.021,0.19
1077.0,-9.808,0.412,5.615,-0.328,0.021,0.19
1081.0,-9.476,0.678,5.507,-0.283,-0.016,0.164
1085.0,-9.476,0.678,5.507,-0.283,-0.016,0.164
1088.0,-9.476,0.678,5.507,-0.283,-0.016,0.164
1092.0,-9.158,0.936,5.341,-0.251,-0.046,0.128
1096.0,-9.158,0.936,5.341,-0.251,-0.046,0.128
1100.0,-8.996,1.221,5.199,-0.24,-0.065,0.086
1104.0,-8.996,1.221,5.199,-0.24,-0.065,0.086
1108.0,-8.996,1.221,5.199,-0.24,-0.065,0.086
1112.0,-9.01,1.535,5.051,-0.258,-0.072,0.046
1116.0,-9.01,1.535,5.051,-0.258,-0.072,0.046
1120.0,-9.08,1.769,4.972,-0.305,-0.071,0.024
1124.0,-9.08,1.769,4.972,-0.305,-0.071,0.024
1128.0,-9.08,1.769,4.972,-0.305,-0.071,0.024
1131.0,-9.173,1.96,5.059,-0.377,-0.074,0.023
1135.0,-9.173,1.96,5.059,-0.377,-0.074,0.023
1139.0,-9.131,1.984,5.18,-0.377,-0.089,0.045
1143.0,-9.131,1.984,5.18,-0.459,-0.089,0.045
1147.0,-9.131,1.984,5.18,-0.459,-0.089,0.045
1151.0,-9.031,1.918,5.291,-0.541,-0.12,0.077
1155.0,-9.031,1.918,5.291,-0.541,-0.12,0.077
1159.0,-9.045,1.707,5.212,-0.541,-0.12,0.104
1163.0,-9.045,1.707,5.212,-0.615,-0.155,0.104
1167.0,-9.045,1.707,5.212,-0.615,-0.155,0.104
1170.0,-9.333,1.454,4.968,-0.686,-0.177,0.108
1174.0,-9.333,1.454,4.968,-0.686,-0.177,0.108
1178.0,-9.745,1.295,4.713,-0.686,-0.177,0.108
1182.0,-9.745,1.295,4.713,-0.76,-0.168,0.085
1186.0,-9.745,1.295,4.713,-0.76,-0.168,0.085
1190.0,-10.055,1.375,5.021,-0.835,-0.139,0.045
1194.0,-10.055,1.375,5.021,-0.835,-0.139,0.045
1198.0,-10.174,1.348,5.418,-0.835,-0.139,0.045
1202.0,-10.174,1.348,5.418,-0.895,-0.141,0.011
1206.0,-10.174,1.348,5.418,-0.895,-0.141,0.011
1210.0,-10.572,1.324,5.482,-0.939,-0.181,-0.02
1214.0,-10.572,1.324,5.482,-0.939,-0.181,-0.02
1218.0,-11.011,1.299,5.493,-0.939,-0.229,-0.047
1222.0,-11.011,1.299,5.493,-0.972,-0.229,-0.047
1226.0,-11.011,1.299,5.493,-0.972,-0.229,-0.047
1230.0,-11.133,1.153,5.521,-0.992,-0.285,-0.074
1234.0,-11.133,1.153,5.521,-0.992,-0.285,-0.074
1239.0,-11.235,0.997,5.444,-0.995,-0.341,-0.104
1243.0,-11.235,0.997,5.444,-0.995,-0.341,-0.104
1247.0,-11.235,0.997,5.444,-0.995,-0.341,-0.104
1251.0,-11.191,0.89,5.38,-0.98,-0.379,-0.147
1255.0,-11.191,0.89,5.38,-0.98,-0.379,-0.147
1259.0,-11.099,0.841,5.222,-0.951,-0.402,-0.197
1263.0,-11.099,0.841,5.222,-0.951,-0.402,-0.197
1267.0,-11.196,0.888,5.124,-0.951,-0.402,-0.197
1271.0,-11.196,0.888,5.124,-0.918,-0.401,-0.246
1275.0,-11.196,0.888,5.124,-0.918,-0.401,-0.246
1279.0,-11.289,0.948,5.096,-0.882,-0.392,-0.281
1283.0,-11.289,0.948,5.096,-0.882,-0.392,-0.281
1287.0,-11.285,0.97,5.116,-0.834,-0.388,-0.295
1292.0,-11.285,0.97,5.116,-0.834,-0.388,-0.295
1296.0,-11.285,0.97,5.116,-0.834,-0.388,-0.295
1300.0,-11.289,0.977,5.048,-0.771,-0.398,-0.292
1304.0,-11.289,0.977,5.048,-0.771,-0.398,-0.292
1308.0,-11.164,0.968,4.845,-0.693,-0.406,-0.282
1312.0,-11.164,0.968,4.845,-0.693,-0.406,-0.282
1316.0,-11.164,0.968,4.828,-0.693,-0.406,-0.282
1320.0,-10.861,0.989,4.828,-0.604,-0.412,-0.271
1324.0,-10.861,0.989,4.828,-0.604,-0.412,-0.271
1328.0,-10.707,1.107,4.754,-0.513,-0.415,-0.265
1332.0,-10.707,1.107,4.754,-0.513,-0.415,-0.265
1336.0,-10.421,1.187,4.548,-0.513,-0.415,-0.261
1341.0,-10.421,1.187,4.548,-0.427,-0.415,-0.261
1345.0,-10.421,1.187,4.548,-0.427,-0.415,-0.261
1349.0,-10.213,1.327,4.443,-0.358,-0.403,-0.258
1353.0,-10.213,1.327,4.443,-0.358,-0.403,-0.258
1357.0,-10.152,1.442,4.337,-0.303,-0.374,-0.252
1361.0,-10.152,1.442,4.337,-0.303,-0.374,-0.252
1365.0,-10.152,1.442,4.337,-0.303,-0.374,-0.252
1369.0,-10.154,1.466,4.342,-0.257,-0.336,-0.237
1373.0,-10.154,1.466,4.342,-0.257,-0.336,-0.237
1377.0,-10.311,1.525,4.47,-0.217,-0.301,-0.213
1381.0,-10.311,1.525,4.47,-0.217,-0.301,-0.213
1385.0,-10.311,1.539,4.517,-0.217,-0.301,-0.213
1389.0,-10.29,1.539,4.517,-0.177,-0.286,-0.18
1394.0,-10.29,1.539,4.517,-0.177,-0.286,-0.18
1398.0,-10.052,1.536,4.494,-0.14,-0.291,-0.139
1402.0,-10.052,1.536,4.494,-0.14,-0.291,-0.139
1406.0,-9.808,1.497,4.277,-0.14,-0.297,-0.103
1410.0,-9.808,1.497,4.277,-0.114,-0.297,-0.103
1414.0,-9.808,1.497,4.277,-0.114,-0.297,-0.103
1418.0,-9.931,1.539,3.989,-0.107,-0.273,-0.083
1422.0,-9.931,1.539,3.989,-0.107,-0.273,-0.083
1426.0,-10.076,1.551,4.013,-0.12,-0.219,-0.061
1430.0,-10.076,1.551,4.013,-0.12,-0.219,-0.061
1434.0,-10.076,1.551,4.013,-0.12,-0.219,-0.061
1438.0,-10.128,1.582,4.214,-0.142,-0.175,-0.032
1442.0,-10.128,1.582,4.214,-0.142,-0.175,-0.032
1446.0,-10.121,1.643,4.38,-0.165,-0.147,-0.001
1450.0,-10.121,1.643,4.38,-0.165,-0.147,-0.001
1454.0,-10.121,1.643,4.457,-0.165,-0.147,-0.001
1458.0,-10.023,1.628,4.457,-0.19,-0.137,0.028
1462.0,-10.023,1.628,4.457,-0.19,-0.137,0.028
1466.0,-9.911,1.552,4.407,-0.216,-0.135,0.051
1470.0,-9.911,1.552,4.407,-0.216,-0.135,0.051
1474.0,-9.911,1.372,4.067,-0.216,-0.135,0.051
1478.0,-9.842,1.372,4.067,-0.244,-0.131,0.068
1482.0,-9.842,1.372,4.067,-0.244,-0.131,0.068
1486.0,-9.852,1.318,4.017,-0.274,-0.105,0.074
1490.0,-9.852,1.318,4.017,-0.274,-0.105,0.074
1494.0,-9.852,1.318,4.096,-0.274,-0.105,0.074
1498.0,-9.708,1.202,4.096,-0.3,-0.081,0.079
1502.0,-9.708,1.202,4.096,-0.3,-0.081,0.079
1505.0,-9.793,1.073,4.117,-0.319,-0.059,0.079
1509.0,-9.793,1.073,4.117,-0.319,-0.059,0.079
1513.0,-9.793,1.073,4.117,-0.319,-0.059,0.079
1517.0,-10.036,0.979,4.257,-0.331,-0.029,0.075
1521.0,-10.036,0.979,4.257,-0.331,-0.029,0.075
1525.0,-10.1,0.817,4.405,-0.333,-0.014,0.075
1529.0,-10.1,0.817,4.405,-0.333,-0.014,0.075
1533.0,-10.1,0.817,4.405,-0.333,-0.014,0.075
1537.0,-10.129,0.64,4.447,-0.321,-0.018,0.079
1541.0,-10.129,0.64,4.447,-0.321,-0.018,0.079
1545.0,-10.09,0.441,4.54,-0.289,-0.025,0.079
1549.0,-10.09,0.441,4.54,-0.289,-0.025,0.079
1553.0,-10.09,0.441,4.627,-0.289,-0.025,0.079
1557.0,-9.968,0.3,4.627,-0.234,-0.043,0.077
1561.0,-9.968,0.3,4.627,-0.234,-0.043,0.077
1565.0,-9.974,0.26,4.641,-0.166,-0.075,0.076
1569.0,-9.974,0.26,4.641,-0.166,-0.075,0.076
1573.0,-9.974,0.26,4.367,-0.166,-0.075,0.076
1577.0,-10.09,0.228,4.367,-0.103,-0.114,0.08
1581.0,-10.09,0.228,4.367,-0.103,-0.114,0.08
1585.0,-10.262,0.281,4.424,-0.055,-0.14,0.083
1589.0,-10.262,0.281,4.424,-0.055,-0.14,0.083
1593.0,-10.262,0.281,4.592,-0.055,-0.14,0.083
1597.0,-10.154,0.217,4.592,-0.015,-0.183,0.09
1601.0,-10.154,0.217,4.592,-0.015,-0.183,0.09
1605.0,-10.074,0.082,4.27,0.019,-0.243,0.088
1609.0,-10.074,0.082,4.27,0.019,-0.243,0.088
1612.0,-10.074,0.041,3.946,0.019,-0.243,0.088
1616.0,-10.342,0.041,3.946,0.031,-0.266,0.065
1620.0,-10.342,0.041,3.946,0.031,-0.266,0.065
1624.0,-10.757,0.083,3.872,0.015,-0.248,0.035
1628.0,-10.757,0.083,3.872,0.015,-0.248,0.035
1632.0,-10.757,0.083,4.075,0.015,-0.248,0.035
1636.0,-11.071,0.124,4.075,-0.021,-0.216,0.017
1640.0,-11.071,0.124,4.075,-0.021,-0.216,0.017
1644.0,-11.386,0.123,4.354,-0.063,-0.185,0.019
1648.0,-11.386,0.123,4.354,-0.063,-0.185,0.019
1652.0,-11.386,0.123,4.698,-0.063,-0.185,0.019
1656.0,-11.596,0.163,4.698,-0.1,-0.161,0.039
1660.0,-11.596,0.163,4.698,-0.1,-0.161,0.039
1664.0,-11.637,0.093,4.848,-0.132,-0.158,0.082
1668.0,-11.637,0.093,4.848,-0.132,-0.158,0.082
1672.0,-11.56,-0.01,4.753,-0.132,-0.158,0.082
1676.0,-11.56,-0.01,4.753,-0.153,-0.164,0.13
1680.0,-11.56,-0.01,4.753,-0.153,-0.164,0.13
1684.0,-11.135,-0.084,4.667,-0.165,-0.168,0.164
1688.0,-11.135,-0.084,4.667,-0.165,-0.168,0.164
1692.0,-10.601,-0.103,4.549,-0.17,-0.172,0.177
1696.0,-10.601,-0.103,4.549,-0.17,-0.172,0.177
1700.0,-10.601,-0.103,4.549,-0.17,-0.172,0.177
1704.0,-10.159,-0.053,4.412,-0.166,-0.168,0.165
1709.0,-10.159,-0.053,4.412,-0.166,-0.168,0.165
1713.0,-9.692,0.011,4.313,-0.154,-0.158,0.136
1716.0,-9.692,0.011,4.313,-0.154,-0.158,0.136
1720.0,-9.692,0.011,4.313,-0.154,-0.158,0.136
1724.0,-9.27,0.052,4.34,-0.136,-0.151,0.104
1728.0,-9.27,0.052,4.34,-0.136,-0.151,0.104
1732.0,-8.998,0.047,4.391,-0.111,-0.154,0.074
1736.0,-8.998,0.047,4.391,-0.111,-0.154,0.074
1740.0,-8.998,0.047,4.391,-0.111,-0.154,0.074
1744.0,-8.665,-0.026,4.429,-0.073,-0.165,0.049
1748.0,-8.665,-0.026,4.429,-0.073,-0.165,0.049
1752.0,-8.384,-0.117,4.42,-0.026,-0.182,0.034
1756.0,-8.384,-0.117,4.42,-0.026,-0.182,0.034
1760.0,-8.384,-0.117,4.42,-0.026,-0.182,0.034
1764.0,-8.311,-0.2,4.333,0.024,-0.188,0.031
1768.0,-8.311,-0.2,4.333,0.024,-0.188,0.031
1772.0,-8.277,-0.252,4.302,0.077,-0.179,0.037
1776.0,-8.277,-0.252,4.302,0.077,-0.179,0.037
1779.0,-8.277,-0.252,4.302,0.077,-0.179,0.037
1783.0,-8.242,-0.314,4.213,0.129,-0.172,0.055
1787.0,-8.242,-0.314,4.213,0.129,-0.172,0.055
1791.0,-8.188,-0.367,4.1,0.176,-0.173,0.077
1795.0,-8.188,-0.367,4.1,0.176,-0.173,0.077
1799.0,-8.188,-0.367,4.1,0.176,-0.173,0.077
1803.0,-8.111,-0.413,3.945,0.22,-0.183,0.096
1807.0,-8.111,-0.413,3.945,0.22,-0.183,0.096
1811.0,-8.146,-0.417,3.717,0.259,-0.2,0.113
1815.0,-8.146,-0.417,3.717,0.259,-0.2,0.113
1818.0,-8.146,-0.417,3.717,0.259,-0.2,0.113
1822.0,-8.328,-0.39,3.379,0.29,-0.216,0.134
1826.0,-8.328,-0.39,3.379,0.29,-0.216,0.134
1830.0,-8.517,-0.39,2.98,0.29,-0.219,0.164
1834.0,-8.517,-0.39,2.98,0.304,-0.219,0.164
1838.0,-8.517,-0.39,2.98,0.304,-0.219,0.164
1842.0,-8.736,-0.382,2.723,0.295,-0.197,0.198
1846.0,-8.736,-0.382,2.723,0.295,-0.197,0.198
1850.0,-8.946,-0.372,2.768,0.295,-0.197,0.233
1854.0,-8.946,-0.372,2.768,0.268,-0.162,0.233
1858.0,-8.946,-0.372,2.768,0.268,-0.162,0.233
1861.0,-9.048,-0.409,2.954,0.231,-0.142,0.269
1865.0,-9.048,-0.409,2.954,0.231,-0.142,0.269
1869.0,-9.101,-0.477,3.06,0.231,-0.142,0.269
1873.0,-9.101,-0.477,3.06,0.194,-0.145,0.296
1877.0,-9.101,-0.477,3.06,0.194,-0.145,0.296
1881.0,-9.015,-0.563,3.092,0.164,-0.163,0.303
1885.0,-9.015,-0.563,3.092,0.164,-0.163,0.303
1889.0,-9.015,-0.658,3.005,0.164,-0.163,0.303
1893.0,-8.87,-0.658,3.005,0.146,-0.182,0.286
1897.0,-8.87,-0.658,3.005,0.146,-0.182,0.286
1901.0,-8.738,-0.692,2.88,0.144,-0.191,0.249
1904.0,-8.738,-0.692,2.88,0.144,-0.191,0.249
1908.0,-8.738,-0.692,2.822,0.144,-0.191,0.249
1912.0,-8.539,-0.68,2.822,0.156,-0.194,0.199
1916.0,-8.539,-0.68,2.822,0.156,-0.194,0.199
1920.0,-8.407,-0.654,2.687,0.175,-0.195,0.15
1924.0,-8.407,-0.654,2.687,0.175,-0.195,0.15
1928.0,-8.407,-0.654,2.687,0.175,-0.195,0.15
1932.0,-8.472,-0.629,2.548,0.2,-0.18,0.103
1936.0,-8.472,-0.629,2.548,0.2,-0.18,0.103
1940.0,-8.655,-0.614,2.579,0.225,-0.155,0.071
1943.0,-8.655,-0.614,2.579,0.225,-0.155,0.071
1947.0,-8.655,-0.614,2.579,0.225,-0.155,0.071
1951.0,-8.87,-0.709,2.564,0.251,-0.135,0.061
1955.0,-8.87,-0.709,2.564,0.251,-0.135,0.061
1959.0,-9.082,-0.876,2.508,0.281,-0.116,0.069
1963.0,-9.082,-0.876,2.508,0.281,-0.116,0.069
1967.0,-9.082,-0.876,2.508,0.281,-0.116,0.069
1971.0,-9.217,-0.975,2.583,0.314,-0.096,0.082
1975.0,-9.217,-0.975,2.583,0.314,-0.096,0.082
1979.0,-9.215,-1.035,2.687,0.348,-0.084,0.103
1983.0,-9.215,-1.035,2.687,0.348,-0.084,0.103
1986.0,-9.215,-1.035,2.687,0.348,-0.084,0.103
1990.0,-9.168,-1.084,2.691,0.38,-0.075,0.133
1994.0,-9.168,-1.084,2.691,0.38,-0.075,0.133
1998.0,-9.16,-1.073,2.713,0.41,-0.061,0.167
2002.0,-9.16,-1.073,2.713,0.41,-0.061,0.167
2006.0,-9.16,-1.073,2.713,0.41,-0.061,0.167
2010.0,-9.081,-1.039,2.768,0.436,-0.053,0.207
2014.0,-9.081,-1.039,2.768,0.436,-0.053,0.207
2018.0,-8.932,-1.006,2.724,0.436,-0.057,0.248
2022.0,-8.932,-1.006,2.724,0.459,-0.057,0.248
2026.0,-8.932,-1.006,2.724,0.459,-0.057,0.248
2029.0,-8.858,-0.976,2.492,0.476,-0.062,0.282
2033.0,-8.858,-0.976,2.492,0.476,-0.062,0.282
2037.0,-8.937,-0.926,2.305,0.476,-0.062,0.304
2041.0,-8.937,-0.926,2.305,0.485,-0.048,0.304
2045.0,-8.937,-0.926,2.305,0.485,-0.048,0.304
2049.0,-9.065,-0.91,2.226,0.485,-0.021,0.318
2053.0,-9.065,-0.91,2.226,0.485,-0.021,0.318
2057.0,-9.188,-0.866,2.279,0.485,-0.021,0.318
2061.0,-9.188,-0.866,2.279,0.477,0.009,0.327
2064.0,-9.188,-0.866,2.279,0.477,0.009,0.327
2068.0,-9.201,-0.751,2.434,0.465,0.035,0.331
2072.0,-9.201,-0.751,2.434,0.465,0.035,0.331
2076.0,-9.201,-0.751,2.434,0.465,0.035,0.331
2080.0,-9.046,-0.7,2.614,0.451,0.051,0.33
2084.0,-9.046,-0.7,2.614,0.451,0.051,0.33
2087.0,-8.788,-0.686,2.751,0.441,0.046,0.323
2091.0,-8.788,-0.686,2.751,0.441,0.046,0.323
2095.0,-8.788,-0.686,2.751,0.441,0.046,0.323
2099.0,-8.491,-0.683,2.857,0.44,0.024,0.307
2103.0,-8.491,-0.683,2.857,0.44,0.024,0.307
2107.0,-8.182,-0.671,2.874,0.44,-0.009,0.281
2110.0,-8.182,-0.671,2.874,0.45,-0.009,0.281
2114.0,-8.182,-0.671,2.874,0.45,-0.009,0.281
2118.0,-7.938,-0.631,2.799,0.468,-0.043,0.249
2122.0,-7.938,-0.631,2.799,0.468,-0.043,0.249
2126.0,-7.689,-0.551,2.679,0.468,-0.043,0.249
2130.0,-7.689,-0.551,2.679,0.483,-0.069,0.219
2134.0,-7.689,-0.551,2.679,0.483,-0.069,0.219
2138.0,-7.488,-0.507,2.541,0.492,-0.088,0.199
2142.0,-7.488,-0.507,2.541,0.492,-0.088,0.199
2146.0,-7.359,-0.528,2.531,0.492,-0.088,0.199
2149.0,-7.359,-0.528,2.531,0.496,-0.11,0.183
2153.0,-7.359,-0.528,2.531,0.496,-0.11,0.183
2157.0,-7.314,-0.555,2.605,0.5,-0.144,0.165
2161.0,-7.314,-0.555,2.605,0.5,-0.144,0.165
2165.0,-7.314,-0.555,2.634,0.5,-0.144,0.165
2169.0,-7.399,-0.539,2.634,0.499,-0.184,0.147
2173.0,-7.399,-0.539,2.634,0.499,-0.184,0.147
2177.0,-7.567,-0.495,2.614,0.487,-0.22,0.136
2181.0,-7.567,-0.495,2.614,0.487,-0.22,0.136
2185.0,-7.567,-0.495,2.614,0.487,-0.22,0.136
2189.0,-7.669,-0.441,2.687,0.457,-0.244,0.14
2192.0,-7.669,-0.441,2.687,0.457,-0.244,0.14
2196.0,-7.664,-0.43,2.78,0.416,-0.261,0.154
2200.0,-7.664,-0.43,2.78,0.416,-0.261,0.154
2204.0,-7.664,-0.43,2.78,0.416,-0.261,0.154
2208.0,-7.658,-0.467,2.793,0.369,-0.269,0.169
2212.0,-7.658,-0.467,2.793,0.369,-0.269,0.169
2216.0,-7.804,-0.528,2.724,0.319,-0.269,0.188
2220.0,-7.804,-0.528,2.724,0.319,-0.269,0.188
2224.0,-7.804,-0.528,2.724,0.319,-0.269,0.188
2228.0,-7.987,-0.622,2.712,0.269,-0.267,0.211
2231.0,-7.987,-0.622,2.712,0.269,-0.267,0.211
2235.0,-8.124,-0.707,2.755,0.227,-0.27,0.232
2239.0,-8.124,-0.707,2.755,0.227,-0.27,0.232
2243.0,-8.124,-0.707,2.755,0.227,-0.27,0.232
2247.0,-8.213,-0.736,2.824,0.195,-0.277,0.251
2251.0,-8.213,-0.736,2.824,0.195,-0.277,0.251
2255.0,-8.189,-0.76,2.92,0.173,-0.29,0.27
2259.0,-8.189,-0.76,2.92,0.173,-0.29,0.27
2263.0,-8.189,-0.76,2.92,0.173,-0.29,0.27
2267.0,-8.124,-0.775,2.94,0.163,-0.311,0.289
2271.0,-8.124,-0.775,2.94,0.163,-0.311,0.289
2274.0,-8.081,-0.818,2.87,0.163,-0.331,0.301
2278.0,-8.081,-0.818,2.87,0.163,-0.331,0.301
2282.0,-8.081,-0.818,2.87,0.163,-0.331,0.301
2286.0,-8.127,-0.889,2.764,0.166,-0.345,0.299
2290.0,-8.127,-0.889,2.764,0.166,-0.345,0.299
2294.0,-8.161,-0.998,2.679,0.166,-0.345,0.289
2298.0,-8.161,-0.998,2.679,0.171,-0.351,0.289
2302.0,-8.161,-0.998,2.679,0.171,-0.351,0.289
2306.0,-8.166,-1.131,2.675,0.182,-0.345,0.274
2310.0,-8.166,-1.131,2.675,0.182,-0.345,0.274
2314.0,-8.303,-1.296,2.731,0.182,-0.345,0.274
2317.0,-8.303,-1.296,2.731,0.2,-0.334,0.252
2321.0,-8.303,-1.296,2.731,0.2,-0.334,0.252
2325.0,-8.616,-1.446,2.73,0.221,-0.322,0.222
2329.0,-8.616,-1.446,2.73,0.221,-0.322,0.222
2333.0,-8.616,-1.529,2.782,0.221,-0.322,0.222
2337.0,-9.062,-1.529,2.782,0.241,-0.302,0.194
2341.0,-9.062,-1.529,2.782,0.241,-0.302,0.194
2345.0,-9.486,-1.692,2.876,0.258,-0.283,0.181
2349.0,-9.486,-1.692,2.876,0.258,-0.283,0.181
2353.0,-9.486,-1.692,2.983,0.258,-0.283,0.181
2356.0,-9.898,-1.834,2.983,0.271,-0.271,0.183
2360.0,-9.898,-1.834,2.983,0.271,-0.271,0.183
2364.0,-10.163,-1.954,3.08,0.284,-0.264,0.198
2368.0,-10.163,-1.954,3.08,0.284,-0.264,0.198
2372.0,-10.163,-1.954,3.093,0.284,-0.264,0.198
2376.0,-10.232,-2.088,3.093,0.295,-0.256,0.218
2380.0,-10.232,-2.088,3.093,0.295,-0.256,0.218
2384.0,-10.205,-2.212,3.103,0.306,-0.245,0.24
2388.0,-10.205,-2.212,3.103,0.306,-0.245,0.24
2392.0,-10.205,-2.298,3.101,0.306,-0.245,0.24
2396.0,-10.042,-2.298,3.101,0.317,-0.234,0.261
2400.0,-10.042,-2.298,3.101,0.317,-0.234,0.261
2404.0,-9.771,-2.334,3.205,0.333,-0.221,0.275
2408.0,-9.771,-2.334,3.205,0.333,-0.221,0.275
2412.0,-9.771,-2.368,3.355,0.333,-0.221,0.275
2416.0,-9.464,-2.368,3.355,0.354,-0.211,0.278
2420.0,-9.464,-2.368,3.355,0.354,-0.211,0.278
2424.0,-9.347,-2.4,3.444,0.381,-0.2,0.271
2428.0,-9.347,-2.4,3.444,0.381,-0.2,0.271
2432.0,-9.347,-2.4,3.518,0.381,-0.2,0.271
2435.0,-9.466,-2.456,3.518,0.405,-0.188,0.262
2439.0,-9.466,-2.456,3.518,0.405,-0.188,0.262
2443.0,-9.672,-2.494,3.607,0.425,-0.177,0.26
2447.0,-9.672,-2.494,3.607,0.425,-0.177,0.26
2451.0,-9.672,-2.494,3.607,0.425,-0.177,0.26
2455.0,-9.961,-2.572,3.651,0.439,-0.173,0.274
2459.0,-9.961,-2.572,3.651,0.439,-0.173,0.274
2463.0,-10.231,-2.646,3.674,0.444,-0.171,0.305
2467.0,-10.231,-2.646,3.674,0.444,-0.171,0.305
2471.0,-10.231,-2.646,3.674,0.444,-0.171,0.305
2475.0,-10.392,-2.749,3.711,0.438,-0.177,0.353
2479.0,-10.392,-2.749,3.711,0.438,-0.177,0.353
2483.0,-10.519,-2.839,3.654,0.423,-0.188,0.409
2487.0,-10.519,-2.839,3.654,0.423,-0.188,0.409
2491.0,-10.519,-2.839,3.572,0.423,-0.188,0.409
2495.0,-10.547,-2.891,3.572,0.401,-0.198,0.462
2499.0,-10.547,-2.891,3.572,0.401,-0.198,0.462
2503.0,-10.418,-2.888,3.406,0.369,-0.211,0.504
2507.0,-10.418,-2.888,3.406,0.369,-0.211,0.504
2511.0,-10.418,-2.821,3.234,0.369,-0.211,0.504
2515.0,-10.17,-2.821,3.234,0.329,-0.217,0.529
2519.0,-10.17,-2.821,3.234,0.329,-0.217,0.529
2523.0,-9.742,-2.748,3.148,0.286,-0.215,0.533
2527.0,-9.742,-2.748,3.148,0.286,-0.215,0.533
2531.0,-9.476,-2.691,3.071,0.286,-0.215,0.533
2534.0,-9.476,-2.691,3.071,0.242,-0.204,0.517
2538.0,-9.476,-2.691,3.071,0.242,-0.204,0.517
2542.0,-9.464,-2.648,3.075,0.199,-0.176,0.488
2546.0,-9.464,-2.648,3.075,0.199,-0.176,0.488
2550.0,-9.464,-2.648,3.135,0.199,-0.176,0.488
2554.0,-9.597,-2.673,3.135,0.162,-0.141,0.46
2558.0,-9.597,-2.673,3.135,0.162,-0.141,0.46
2562.0,-9.748,-2.742,3.217,0.134,-0.11,0.44
2566.0,-9.748,-2.742,3.217,0.134,-0.11,0.44
2570.0,-9.748,-2.742,3.217,0.134,-0.11,0.44
2574.0,-9.85,-2.853,3.256,0.122,-0.089,0.427
2577.0,-9.85,-2.853,3.256,0.122,-0.089,0.427
2581.0,-9.955,-2.979,3.209,0.127,-0.073,0.42
2585.0,-9.955,-2.979,3.209,0.127,-0.073,0.42
2589.0,-9.955,-2.979,3.209,0.127,-0.073,0.42
2593.0,-10.067,-3.101,3.143,0.146,-0.057,0.415
2597.0,-10.067,-3.101,3.143,0.146,-0.057,0.415
2601.0,-10.119,-3.186,3.08,0.176,-0.04,0.41
2605.0,-10.119,-3.186,3.08,0.176,-0.04,0.41
2609.0,-10.119,-3.186,3.08,0.176,-0.04,0.41
2613.0,-10.107,-3.246,3.045,0.22,-0.026,0.402
2617.0,-10.107,-3.246,3.045,0.22,-0.026,0.402
2621.0,-10.198,-3.291,2.941,0.275,-0.018,0.392
2625.0,-10.198,-3.291,2.941,0.275,-0.018,0.392
2629.0,-10.198,-3.291,2.764,0.275,-0.018,0.392
2633.0,-10.396,-3.296,2.764,0.339,-0.01,0.378
2637.0,-10.396,-3.296,2.764,0.339,-0.01,0.378
2641.0,-10.376,-3.255,2.713,0.404,-0.004,0.36
2645.0,-10.376,-3.255,2.713,0.404,-0.004,0.36
2649.0,-10.376,-3.171,2.737,0.404,-0.004,0.36
2653.0,-10.089,-3.171,2.737,0.467,-0.005,0.335
2657.0,-10.089,-3.171,2.737,0.467,-0.005,0.335
2661.0,-9.788,-3.074,2.714,0.528,-0.003,0.298
2665.0,-9.788,-3.074,2.714,0.528,-0.003,0.298
2669.0,-9.681,-2.931,2.703,0.528,-0.003,0.298
2673.0,-9.681,-2.931,2.703,0.583,0.005,0.253
2676.0,-9.681,-2.931,2.703,0.583,0.005,0.253
2680.0,-9.659,-2.804,2.694,0.628,0.013,0.205
2684.0,-9.659,-2.804,2.694,0.628,0.013,0.205
2688.0,-9.659,-2.804,2.694,0.628,0.013,0.205
2692.0,-9.754,-2.738,2.629,0.658,0.016,0.159
2696.0,-9.754,-2.738,2.629,0.658,0.016,0.159
2699.0,-10.079,-2.683,2.513,0.673,0.026,0.117
2703.0,-10.079,-2.683,2.513,0.673,0.026,0.117
2707.0,-10.079,-2.683,2.513,0.673,0.026,0.117
2711.0,-10.383,-2.658,2.487,0.675,0.043,0.085
2715.0,-10.383,-2.658,2.487,0.675,0.043,0.085
2719.0,-10.414,-2.615,2.559,0.667,0.05,0.064
2723.0,-10.414,-2.615,2.559,0.667,0.05,0.064
2727.0,-10.414,-2.615,2.559,0.667,0.05,0.064
2731.0,-10.351,-2.575,2.664,0.656,0.042,0.047
2735.0,-10.351,-2.575,2.664,0.656,0.042,0.047
2738.0,-10.543,-2.536,2.63,0.646,0.028,0.024
2742.0,-10.543,-2.536,2.63,0.646,0.028,0.024
2746.0,-10.543,-2.536,2.63,0.646,0.028,0.024
2750.0,-10.578,-2.493,2.471,0.633,0.014,-0.005
2754.0,-10.578,-2.493,2.471,0.633,0.014,-0.005
2758.0,-10.069,-2.383,2.346,0.633,-0.002,-0.043
2762.0,-10.069,-2.383,2.346,0.615,-0.002,-0.043
2766.0,-10.069,-2.383,2.346,0.615,-0.002,-0.043
2770.0,-9.161,-2.23,2.28,0.596,-0.016,-0.104
2774.0,-9.161,-2.23,2.28,0.596,-0.016,-0.104
2778.0,-8.216,-2.021,2.341,0.586,-0.016,-0.191
2782.0,-8.216,-2.021,2.341,0.586,-0.016,-0.191
2786.0,-8.216,-2.021,2.341,0.586,-0.016,-0.191
2790.0,-7.631,-1.854,2.338,0.588,-0.003,-0.292
2794.0,-7.631,-1.854,2.338,0.588,-0.003,-0.292
2798.0,-7.636,-1.765,2.233,0.593,0.028,-0.385
2802.0,-7.636,-1.765,2.233,0.593,0.028,-0.385
2806.0,-7.636,-1.765,2.233,0.593,0.028,-0.385
2810.0,-8.46,-1.729,2.025,0.591,0.074,-0.446
2814.0,-8.46,-1.729,2.025,0.591,0.074,-0.446
2818.0,-9.73,-1.854,1.878,0.57,0.133,-0.463
2822.0,-9.73,-1.854,1.878,0.57,0.133,-0.463
2826.0,-9.73,-1.854,1.878,0.57,0.133,-0.463
2830.0,-10.994,-2.05,1.874,0.535,0.188,-0.443
2834.0,-10.994,-2.05,1.874,0.535,0.188,-0.443
2838.0,-11.859,-2.293,2.025,0.496,0.222,-0.396
2842.0,-11.859,-2.293,2.025,0.496,0.222,-0.396
2846.0,-11.859,-2.293,2.025,0.496,0.222,-0.396
2850.0,-12.025,-2.507,2.241,0.467,0.22,-0.343
2854.0,-12.025,-2.507,2.241,0.467,0.22,-0.343
2858.0,-11.363,-2.609,2.346,0.46,0.184,-0.309
2862.0,-11.363,-2.609,2.346,0.46,0.184,-0.309
2866.0,-11.363,-2.609,2.346,0.46,0.184,-0.309
2870.0,-10.488,-2.556,2.237,0.478,0.138,-0.308
2874.0,-10.488,-2.556,2.237,0.478,0.138,-0.308
2877.0,-10.062,-2.408,1.962,0.508,0.116,-0.341
2881.0,-10.062,-2.408,1.962,0.508,0.116,-0.341
2885.0,-10.062,-2.408,1.962,0.508,0.116,-0.341
2889.0,-10.056,-2.192,1.646,0.538,0.128,-0.382
2893.0,-10.056,-2.192,1.646,0.538,0.128,-0.382
2897.0,-10.303,-2.023,1.412,0.553,0.16,-0.409
2901.0,-10.303,-2.023,1.412,0.553,0.16,-0.409
2905.0,-10.303,-2.023,1.32,0.553,0.16,-0.409
2909.0,-10.654,-1.951,1.32,0.553,0.201,-0.415
2913.0,-10.654,-1.951,1.32,0.553,0.201,-0.415
2917.0,-10.99,-1.988,1.382,0.545,0.243,-0.405
2921.0,-10.99,-1.988,1.382,0.545,0.243,-0.405
2925.0,-11.23,-2.121,1.493,0.545,0.243,-0.405
2929.0,-11.23,-2.121,1.493,0.539,0.273,-0.386
2933.0,-11.23,-2.121,1.493,0.539,0.273,-0.386
2937.0,-11.322,-2.233,1.633,0.542,0.286,-0.367
2941.0,-11.322,-2.233,1.633,0.542,0.286,-0.367
2945.0,-11.401,-2.316,1.685,0.542,0.286,-0.357
2949.0,-11.401,-2.316,1.685,0.55,0.283,-0.357
2953.0,-11.401,-2.316,1.685,0.55,0.283,-0.357
2957.0,-11.496,-2.314,1.663,0.558,0.278,-0.358
2961.0,-11.496,-2.314,1.663,0.558,0.278,-0.358
2965.0,-11.511,-2.266,1.585,0.558,0.274,-0.363
2969.0,-11.511,-2.266,1.585,0.559,0.274,-0.363
2973.0,-11.511,-2.266,1.585,0.559,0.274,-0.363
2977.0,-11.45,-2.17,1.536,0.547,0.273,-0.374
2981.0,-11.45,-2.17,1.536,0.547,0.273,-0.374
2985.0,-11.308,-2.11,1.484,0.525,0.278,-0.396
2989.0,-11.308,-2.11,1.484,0.525,0.278,-0.396
2993.0,-11.308,-2.11,1.484,0.525,0.278,-0.396
2997.0,-11.023,-2.064,1.469,0.501,0.285,-0.431
