deltaTime,Acc_X,Acc_Y,Acc_Z,Gyro_X,Gyro_Y,Gyro_Z
0.0,-10.668,-6.148,4.677,0.939,-0.134,0.843
3.0,-9.617,-5.55,5.13,1.157,-0.059,0.727
6.0,-9.617,-5.55,5.13,1.157,-0.059,0.727
9.0,-9.617,-5.55,5.13,1.157,-0.059,0.727
12.0,-9.051,-5.247,5.538,1.157,-0.059,0.727
15.0,-9.051,-5.247,5.538,1.342,-0.036,0.633
18.0,-9.051,-5.247,5.538,1.342,-0.036,0.633
21.0,-9.051,-5.247,5.538,1.342,-0.036,0.633
24.0,-9.031,-4.82,5.565,1.501,-0.087,0.537
27.0,-9.031,-4.82,5.565,1.501,-0.087,0.537
30.0,-9.031,-4.82,5.565,1.501,-0.087,0.537
33.0,-9.299,-4.15,5.314,1.553,-0.158,0.44
36.0,-9.299,-4.15,5.314,1.553,-0.158,0.44
40.0,-9.299,-4.15,5.314,1.553,-0.158,0.44
44.0,-9.582,-3.704,4.968,1.493,-0.25,0.367
47.0,-9.582,-3.704,4.968,1.493,-0.25,0.367
51.0,-9.582,-3.704,4.968,1.493,-0.25,0.367
55.0,-9.296,-3.769,4.464,1.385,-0.362,0.31
59.0,-9.296,-3.769,4.464,1.385,-0.362,0.31
62.0,-8.794,-4.312,3.667,1.364,-0.495,0.265
66.0,-8.794,-4.312,3.667,1.364,-0.495,0.265
70.0,-8.794,-4.312,3.667,1.364,-0.495,0.265
73.0,-8.786,-4.268,2.533,1.485,-0.587,0.216
77.0,-8.786,-4.268,2.533,1.485,-0.587,0.216
81.0,-8.786,-3.756,1.615,1.485,-0.587,0.216
85.0,-9.373,-3.756,1.615,1.617,-0.597,0.165
88.0,-9.373,-3.756,1.615,1.617,-0.597,0.165
92.0,-10.491,-2.621,1.022,1.643,-0.521,0.171
96.0,-10.491,-2.621,1.022,1.643,-0.521,0.171
100.0,-10.491,-2.621,1.022,1.643,-0.521,0.171
104.0,-11.208,-0.778,0.667,1.43,-0.417,0.18
108.0,-11.208,-0.778,0.667,1.43,-0.417,0.18
112.0,-11.064,0.076,0.887,0.984,-0.338,0.17
115.0,-11.064,0.076,0.887,0.984,-0.338,0.17
119.0,-11.064,0.076,0.887,0.984,-0.338,0.17
123.0,-10.929,-0.087,1.255,0.507,-0.278,0.148
127.0,-10.929,-0.087,1.255,0.507,-0.278,0.148
131.0,-10.691,-0.226,1.591,0.507,-0.278,0.109
135.0,-10.691,-0.226,1.591,0.138,-0.232,0.109
139.0,-10.691,-0.226,1.591,0.138,-0.232,0.109
142.0,-10.322,0.143,1.82,-0.141,-0.189,0.036
146.0,-10.322,0.143,1.82,-0.141,-0.189,0.036
150.0,-9.815,0.722,1.971,-0.141,-0.189,0.036
154.0,-9.815,0.722,1.971,-0.399,-0.143,-0.057
158.0,-9.815,0.722,1.971,-0.399,-0.143,-0.057
162.0,-9.274,0.796,1.976,-0.641,-0.093,-0.124
166.0,-9.274,0.796,1.976,-0.641,-0.093,-0.124
170.0,-9.274,0.796,2.038,-0.641,-0.093,-0.124
174.0,-8.685,0.552,2.038,-0.807,-0.019,-0.141
178.0,-8.685,0.552,2.038,-0.807,-0.019,-0.141
181.0,-8.219,0.144,2.174,-0.885,0.074,-0.142
185.0,-8.219,0.144,2.174,-0.885,0.074,-0.142
189.0,-8.219,0.144,2.174,-0.885,0.074,-0.142
193.0,-7.844,-0.227,2.35,-0.893,0.16,-0.149
197.0,-7.844,-0.227,2.35,-0.893,0.16,-0.149
201.0,-7.522,-0.381,2.419,-0.864,0.227,-0.166
205.0,-7.522,-0.381,2.419,-0.864,0.227,-0.166
209.0,-7.522,-0.381,2.419,-0.864,0.227,-0.166
212.0,-7.254,-0.352,2.403,-0.848,0.275,-0.197
216.0,-7.254,-0.352,2.403,-0.848,0.275,-0.197
220.0,-7.071,-0.447,2.368,-0.87,0.311,-0.223
224.0,-7.071,-0.447,2.368,-0.87,0.311,-0.223
228.0,-7.071,-0.447,2.368,-0.87,0.311,-0.223
232.0,-6.941,-0.583,2.356,-0.905,0.34,-0.234
236.0,-6.941,-0.583,2.356,-0.905,0.34,-0.234
240.0,-6.875,-0.519,2.394,-0.945,0.369,-0.232
244.0,-6.875,-0.519,2.394,-0.945,0.369,-0.232
248.0,-6.875,-0.519,2.394,-0.945,0.369,-0.232
252.0,-6.736,-0.264,2.457,-1.02,0.389,-0.221
255.0,-6.736,-0.264,2.457,-1.02,0.389,-0.221
259.0,-6.524,-0.019,2.5,-1.02,0.404,-0.205
263.0,-6.524,-0.019,2.5,-1.147,0.404,-0.205
267.0,-6.524,-0.019,2.5,-1.147,0.404,-0.205
271.0,-6.092,0.122,2.534,-1.314,0.414,-0.19
275.0,-6.092,0.122,2.534,-1.314,0.414,-0.19
279.0,-5.883,0.184,2.681,-1.314,0.414,-0.19
283.0,-5.883,0.184,2.681,-1.489,0.42,-0.184
286.0,-5.883,0.184,2.681,-1.489,0.42,-0.184
290.0,-5.631,0.246,2.886,-1.647,0.406,-0.181
294.0,-5.631,0.246,2.886,-1.647,0.406,-0.181
298.0,-5.631,0.246,2.886,-1.647,0.406,-0.181
302.0,-5.585,0.103,3.064,-1.755,0.379,-0.168
305.0,-5.585,0.103,3.064,-1.755,0.379,-0.168
309.0,-5.582,0.385,3.074,-1.844,0.346,-0.157
313.0,-5.582,0.385,3.074,-1.844,0.346,-0.157
317.0,-5.582,0.385,3.074,-1.844,0.346,-0.157
321.0,-6.108,-0.087,2.982,-1.98,0.32,-0.136
325.0,-6.108,-0.087,2.982,-1.98,0.32,-0.136
329.0,-6.657,-1.421,3.019,-2.012,0.228,-0.094
332.0,-6.657,-1.421,3.019,-2.012,0.228,-0.094
336.0,-6.657,-1.421,3.019,-2.012,0.228,-0.094
340.0,-6.209,-1.828,3.133,-1.863,0.138,-0.034
344.0,-6.209,-1.828,3.133,-1.863,0.138,-0.034
348.0,-5.636,-2.195,2.924,-1.863,0.111,0.01
352.0,-5.636,-2.195,2.924,-1.628,0.111,0.01
356.0,-5.636,-2.195,2.924,-1.628,0.111,0.01
360.0,-5.192,-2.432,2.83,-1.331,0.082,0.029
363.0,-5.192,-2.432,2.83,-1.331,0.082,0.029
367.0,-5.192,-2.432,2.92,-1.331,0.082,0.029
371.0,-4.749,-2.218,2.92,-1.001,0.055,0.022
375.0,-4.749,-2.218,2.92,-1.001,0.055,0.022
379.0,-4.409,-1.475,3.003,-0.708,0.052,-0.02
383.0,-4.409,-1.475,3.003,-0.708,0.052,-0.02
386.0,-4.409,-1.475,3.003,-0.708,0.052,-0.02
390.0,-4.272,-0.635,3.042,-0.523,0.042,-0.093
394.0,-4.272,-0.635,3.042,-0.523,0.042,-0.093
398.0,-4.222,-0.005,3.062,-0.448,-0.001,-0.172
402.0,-4.222,-0.005,3.062,-0.448,-0.001,-0.172
406.0,-4.222,-0.005,3.062,-0.448,-0.001,-0.172
410.0,-4.38,0.361,3.097,-0.445,-0.075,-0.243
414.0,-4.38,0.361,3.097,-0.445,-0.075,-0.243
418.0,-4.589,0.538,3.082,-0.477,-0.165,-0.304
422.0,-4.589,0.538,3.082,-0.477,-0.165,-0.304
426.0,-4.589,0.538,3.082,-0.477,-0.165,-0.304
430.0,-4.985,0.653,3.077,-0.528,-0.259,-0.358
434.0,-4.985,0.653,3.077,-0.528,-0.259,-0.358
437.0,-5.234,0.476,3.123,-0.604,-0.351,-0.422
441.0,-5.234,0.476,3.123,-0.604,-0.351,-0.422
445.0,-5.234,0.476,3.123,-0.604,-0.351,-0.422
449.0,-5.275,0.495,3.046,-0.666,-0.439,-0.468
453.0,-5.275,0.495,3.046,-0.666,-0.439,-0.468
457.0,-5.368,0.523,3.041,-0.715,-0.506,-0.502
461.0,-5.368,0.523,3.041,-0.715,-0.506,-0.502
465.0,-5.368,0.523,3.041,-0.715,-0.506,-0.502
469.0,-5.773,0.519,3.111,-0.749,-0.536,-0.518
473.0,-5.773,0.519,3.111,-0.749,-0.536,-0.518
477.0,-6.462,0.479,3.293,-0.749,-0.549,-0.515
480.0,-6.462,0.479,3.293,-0.767,-0.549,-0.515
484.0,-6.462,0.479,3.293,-0.767,-0.549,-0.515
488.0,-7.251,0.381,3.573,-0.762,-0.565,-0.492
492.0,-7.251,0.381,3.573,-0.762,-0.565,-0.492
496.0,-7.988,0.152,3.881,-0.762,-0.565,-0.463
500.0,-7.988,0.152,3.881,-0.727,-0.587,-0.463
504.0,-7.988,0.152,3.881,-0.727,-0.587,-0.463
508.0,-8.646,-0.132,4.206,-0.672,-0.601,-0.438
512.0,-8.646,-0.132,4.206,-0.672,-0.601,-0.438
516.0,-9.259,-0.284,4.582,-0.672,-0.601,-0.425
520.0,-9.259,-0.284,4.582,-0.602,-0.595,-0.425
524.0,-9.259,-0.284,4.582,-0.602,-0.595,-0.425
528.0,-9.977,-0.364,4.956,-0.529,-0.571,-0.41
532.0,-9.977,-0.364,4.956,-0.529,-0.571,-0.41
536.0,-10.71,-0.245,5.205,-0.529,-0.536,-0.378
540.0,-10.71,-0.245,5.205,-0.473,-0.536,-0.378
544.0,-10.71,-0.245,5.205,-0.473,-0.536,-0.378
548.0,-11.438,-0.095,5.396,-0.455,-0.485,-0.316
552.0,-11.438,-0.095,5.396,-0.455,-0.485,-0.316
556.0,-12.088,0.017,5.484,-0.485,-0.412,-0.211
560.0,-12.088,0.017,5.484,-0.485,-0.412,-0.211
564.0,-12.088,0.017,5.484,-0.485,-0.412,-0.211
568.0,-12.695,0.065,5.529,-0.567,-0.309,-0.067
572.0,-12.695,0.065,5.529,-0.567,-0.309,-0.067
576.0,-13.245,-0.023,5.679,-0.696,-0.176,0.107
580.0,-13.245,-0.023,5.679,-0.696,-0.176,0.107
584.0,-13.245,-0.023,5.679,-0.696,-0.176,0.107
588.0,-13.618,-0.257,5.802,-0.858,-0.03,0.287
592.0,-13.618,-0.257,5.802,-0.858,-0.03,0.287
596.0,-13.584,-0.558,5.8,-1.043,0.115,0.441
600.0,-13.584,-0.558,5.8,-1.043,0.115,0.441
604.0,-13.584,-0.558,5.8,-1.043,0.115,0.441
608.0,-13.183,-0.826,5.917,-1.236,0.266,0.541
612.0,-13.183,-0.826,5.917,-1.236,0.266,0.541
616.0,-12.9,-0.967,6.15,-1.419,0.419,0.582
619.0,-12.9,-0.967,6.15,-1.419,0.419,0.582
623.0,-12.9,-0.967,6.15,-1.419,0.419,0.582
627.0,-12.863,-1.039,6.281,-1.573,0.562,0.586
631.0,-12.863,-1.039,6.281,-1.573,0.562,0.586
635.0,-12.858,-1.15,6.169,-1.698,0.68,0.592
639.0,-12.858,-1.15,6.169,-1.698,0.68,0.592
643.0,-12.858,-1.15,6.169,-1.698,0.68,0.592
647.0,-12.866,-1.411,5.817,-1.801,0.772,0.621
651.0,-12.866,-1.411,5.817,-1.801,0.772,0.621
655.0,-12.905,-1.924,5.311,-1.883,0.856,0.675
659.0,-12.905,-1.924,5.311,-1.883,0.856,0.675
662.0,-12.905,-1.924,5.311,-1.883,0.856,0.675
666.0,-13.013,-2.49,4.788,-1.929,0.946,0.735
670.0,-13.013,-2.49,4.788,-1.929,0.946,0.735
674.0,-13.067,-3.147,4.358,-1.922,1.035,0.79
678.0,-13.067,-3.147,4.358,-1.922,1.035,0.79
682.0,-13.067,-3.147,4.358,-1.922,1.035,0.79
686.0,-13.152,-3.691,3.932,-1.864,1.102,0.825
690.0,-13.152,-3.691,3.932,-1.864,1.102,0.825
694.0,-13.162,-4.128,3.47,-1.864,1.143,0.847
698.0,-13.162,-4.128,3.47,-1.752,1.143,0.847
702.0,-13.162,-4.128,3.47,-1.752,1.143,0.847
705.0,-12.964,-4.349,3.047,-1.598,1.173,0.874
709.0,-12.964,-4.349,3.047,-1.598,1.173,0.874
713.0,-12.475,-4.394,2.887,-1.598,1.173,0.918
717.0,-12.475,-4.394,2.887,-1.413,1.196,0.918
721.0,-12.475,-4.394,2.887,-1.413,1.196,0.918
725.0,-11.686,-4.434,2.991,-1.197,1.202,0.971
729.0,-11.686,-4.434,2.991,-1.197,1.202,0.971
733.0,-10.978,-4.469,2.908,-1.197,1.202,0.971
737.0,-10.978,-4.469,2.908,-0.954,1.188,1.008
741.0,-10.978,-4.469,2.908,-0.954,1.188,1.008
744.0,-10.728,-4.384,2.537,-0.701,1.169,1.017
748.0,-10.728,-4.384,2.537,-0.701,1.169,1.017
752.0,-10.728,-4.252,2.069,-0.701,1.169,1.017
756.0,-10.913,-4.252,2.069,-0.467,1.165,1.02
760.0,-10.913,-4.252,2.069,-0.467,1.165,1.02
764.0,-11.281,-4.128,1.732,-0.277,1.176,1.042
768.0,-11.281,-4.128,1.732,-0.277,1.176,1.042
772.0,-11.281,-4.128,1.701,-0.277,1.176,1.042
776.0,-11.658,-4.091,1.701,-0.139,1.193,1.098
780.0,-11.658,-4.091,1.701,-0.139,1.193,1.098
784.0,-11.904,-4.163,1.966,-0.039,1.2,1.18
787.0,-11.904,-4.163,1.966,-0.039,1.2,1.18
791.0,-11.904,-4.163,1.966,-0.039,1.2,1.18
795.0,-12.133,-4.375,2.356,0.045,1.176,1.271
799.0,-12.133,-4.375,2.356,0.045,1.176,1.271
803.0,-12.258,-4.654,2.556,0.131,1.091,1.346
807.0,-12.258,-4.654,2.556,0.131,1.091,1.346
811.0,-12.258,-4.654,2.556,0.131,1.091,1.346
814.0,-12.233,-4.942,2.65,0.227,0.938,1.381
818.0,-12.233,-4.942,2.65,0.227,0.938,1.381
822.0,-11.992,-5.027,2.529,0.227,0.731,1.354
826.0,-11.992,-5.027,2.529,0.335,0.731,1.354
830.0,-11.992,-5.027,2.529,0.335,0.731,1.354
833.0,-11.587,-4.843,2.277,0.443,0.509,1.279
837.0,-11.587,-4.843,2.277,0.443,0.509,1.279
841.0,-11.587,-4.544,2.034,0.443,0.509,1.279
845.0,-11.122,-4.544,2.034,0.536,0.308,1.184
849.0,-11.122,-4.544,2.034,0.536,0.308,1.184
853.0,-10.705,-4.183,1.634,0.601,0.14,1.093
856.0,-10.705,-4.183,1.634,0.601,0.14,1.093
860.0,-10.705,-4.183,1.634,0.601,0.14,1.093
864.0,-10.458,-3.831,1.186,0.618,0.028,1.024
868.0,-10.458,-3.831,1.186,0.618,0.028,1.024
872.0,-10.365,-3.595,0.909,0.577,-0.024,0.987
876.0,-10.365,-3.595,0.909,0.577,-0.024,0.987
879.0,-10.365,-3.595,0.909,0.577,-0.024,0.987
883.0,-10.28,-3.476,0.888,0.483,-0.038,0.98
887.0,-10.28,-3.476,0.888,0.483,-0.038,0.98
891.0,-10.171,-3.508,1.104,0.348,-0.035,0.989
895.0,-10.171,-3.508,1.104,0.348,-0.035,0.989
899.0,-10.171,-3.508,1.104,0.348,-0.035,0.989
903.0,-10.03,-3.611,1.446,0.181,-0.043,0.993
907.0,-10.03,-3.611,1.446,0.181,-0.043,0.993
911.0,-9.776,-3.625,1.722,0.181,-0.072,0.966
915.0,-9.776,-3.625,1.722,-0.011,-0.072,0.966
918.0,-9.776,-3.625,1.722,-0.011,-0.072,0.966
922.0,-9.386,-3.527,1.914,-0.223,-0.122,0.899
926.0,-9.386,-3.527,1.914,-0.223,-0.122,0.899
930.0,-8.873,-3.358,2.023,-0.223,-0.122,0.899
934.0,-8.873,-3.358,2.023,-0.448,-0.19,0.794
938.0,-8.873,-3.358,2.023,-0.448,-0.19,0.794
942.0,-8.222,-3.197,1.923,-0.684,-0.263,0.659
946.0,-8.222,-3.197,1.923,-0.684,-0.263,0.659
950.0,-8.222,-3.048,1.761,-0.684,-0.263,0.659
954.0,-7.423,-3.048,1.761,-0.925,-0.31,0.5
957.0,-7.423,-3.048,1.761,-0.925,-0.31,0.5
961.0,-6.593,-2.953,1.61,-1.157,-0.32,0.323
965.0,-6.593,-2.953,1.61,-1.157,-0.32,0.323
969.0,-6.593,-2.953,1.49,-1.157,-0.32,0.323
973.0,-5.862,-2.923,1.49,-1.363,-0.292,0.14
977.0,-5.862,-2.923,1.49,-1.363,-0.292,0.14
981.0,-5.348,-2.983,1.472,-1.524,-0.236,-0.032
985.0,-5.348,-2.983,1.472,-1.524,-0.236,-0.032
989.0,-5.348,-2.983,1.542,-1.524,-0.236,-0.032
993.0,-5.074,-3.089,1.542,-1.63,-0.165,-0.167
997.0,-5.074,-3.089,1.542,-1.63,-0.165,-0.167
1001.0,-5.028,-3.23,1.711,-1.68,-0.096,-0.24
1005.0,-5.028,-3.23,1.711,-1.68,-0.096,-0.24
1009.0,-5.18,-3.456,1.981,-1.68,-0.096,-0.24
1013.0,-5.18,-3.456,1.981,-1.676,-0.046,-0.242
1017.0,-5.18,-3.456,1.981,-1.676,-0.046,-0.242
1021.0,-5.457,-3.759,2.203,-1.624,-0.033,-0.19
1025.0,-5.457,-3.759,2.203,-1.624,-0.033,-0.19
1029.0,-5.761,-4.091,2.347,-1.537,-0.056,-0.113
1034.0,-5.761,-4.091,2.347,-1.537,-0.056,-0.113
1038.0,-5.761,-4.091,2.347,-1.537,-0.056,-0.113
1042.0,-5.95,-4.423,2.362,-1.426,-0.107,-0.04
1046.0,-5.95,-4.423,2.362,-1.426,-0.107,-0.04
1050.0,-5.906,-4.664,2.27,-1.304,-0.17,0.009
1054.0,-5.906,-4.664,2.27,-1.304,-0.17,0.009
1058.0,-5.906,-4.664,2.27,-1.304,-0.17,0.009
1062.0,-5.657,-4.797,2.096,-1.176,-0.228,0.032
1066.0,-5.657,-4.797,2.096,-1.176,-0.228,0.032
1070.0,-5.348,-4.868,1.863,-1.05,-0.262,0.029
1074.0,-5.348,-4.868,1.863,-1.05,-0.262,0.029
1078.0,-5.348,-4.868,1.615,-1.05,-0.262,0.029
1082.0,-5.048,-4.852,1.615,-0.931,-0.261,0.007
1086.0,-5.048,-4.852,1.615,-0.931,-0.261,0.007
1090.0,-4.831,-4.775,1.441,-0.817,-0.229,-0.032
1094.0,-4.831,-4.775,1.441,-0.817,-0.229,-0.032
1098.0,-4.697,-4.63,1.47,-0.817,-0.229,-0.032
1102.0,-4.697,-4.63,1.47,-0.697,-0.181,-0.088
1106.0,-4.697,-4.63,1.47,-0.697,-0.181,-0.088
1110.0,-4.639,-4.461,1.618,-0.563,-0.14,-0.157
1114.0,-4.639,-4.461,1.618,-0.563,-0.14,-0.157
1118.0,-4.588,-4.283,1.83,-0.413,-0.119,-0.236
1122.0,-4.588,-4.283,1.83,-0.413,-0.119,-0.236
1127.0,-4.588,-4.283,1.83,-0.413,-0.119,-0.236
1131.0,-4.474,-4.124,2.022,-0.246,-0.119,-0.324
1135.0,-4.474,-4.124,2.022,-0.246,-0.119,-0.324
1139.0,-4.337,-3.975,2.201,-0.068,-0.134,-0.417
1143.0,-4.337,-3.975,2.201,-0.068,-0.134,-0.417
1147.0,-4.337,-3.975,2.308,-0.068,-0.134,-0.417
1151.0,-4.241,-3.852,2.308,0.115,-0.157,-0.508
1155.0,-4.241,-3.852,2.308,0.115,-0.157,-0.508
1159.0,-4.33,-3.773,2.366,0.294,-0.18,-0.591
1163.0,-4.33,-3.773,2.366,0.294,-0.18,-0.591
1167.0,-4.75,-3.683,2.326,0.294,-0.18,-0.591
1171.0,-4.75,-3.683,2.326,0.461,-0.195,-0.652
1175.0,-4.75,-3.683,2.326,0.461,-0.195,-0.652
1179.0,-5.57,-3.715,2.308,0.603,-0.203,-0.684
1183.0,-5.57,-3.715,2.308,0.603,-0.203,-0.684
1187.0,-6.665,-3.89,2.384,0.603,-0.203,-0.684
1191.0,-6.665,-3.89,2.384,0.711,-0.211,-0.688
1195.0,-6.665,-3.89,2.384,0.711,-0.211,-0.688
1199.0,-8.018,-4.155,2.572,0.784,-0.238,-0.673
1203.0,-8.018,-4.155,2.572,0.784,-0.238,-0.673
1207.0,-9.642,-4.53,2.783,0.784,-0.298,-0.646
1211.0,-9.642,-4.53,2.783,0.827,-0.298,-0.646
1215.0,-9.642,-4.53,2.783,0.827,-0.298,-0.646
1219.0,-11.543,-4.979,2.811,0.847,-0.388,-0.618
1223.0,-11.543,-4.979,2.811,0.847,-0.388,-0.618
1227.0,-13.665,-5.343,2.645,0.85,-0.494,-0.599
1231.0,-13.665,-5.343,2.645,0.85,-0.494,-0.599
1235.0,-13.665,-5.343,2.645,0.85,-0.494,-0.599
1239.0,-15.552,-5.563,2.445,0.836,-0.611,-0.602
1243.0,-15.552,-5.563,2.445,0.836,-0.611,-0.602
1247.0,-16.851,-5.648,2.451,0.803,-0.749,-0.643
1252.0,-16.851,-5.648,2.451,0.803,-0.749,-0.643
1256.0,-16.851,-5.648,2.222,0.803,-0.749,-0.643
1260.0,-17.723,-5.858,2.222,0.754,-0.904,-0.737
1264.0,-17.723,-5.858,2.222,0.754,-0.904,-0.737
1268.0,-19.061,-6.666,1.61,0.722,-1.027,-0.893
1272.0,-19.061,-6.666,1.61,0.722,-1.027,-0.893
1276.0,-19.6,-7.51,0.4,0.722,-1.076,-1.106
1280.0,-19.6,-7.51,0.4,0.765,-1.076,-1.106
1284.0,-19.6,-7.51,0.4,0.765,-1.076,-1.106
1288.0,-19.6,-7.985,-0.756,0.906,-1.039,-1.3
1292.0,-19.6,-7.985,-0.756,0.906,-1.039,-1.3
1297.0,-19.6,-8.068,-0.862,1.12,-0.966,-1.391
1301.0,-19.6,-8.068,-0.862,1.12,-0.966,-1.391
1305.0,-19.6,-8.068,-0.354,1.12,-0.966,-1.391
1309.0,-19.6,-7.925,-0.354,1.37,-0.93,-1.373
1313.0,-19.6,-7.925,-0.354,1.37,-0.93,-1.373
1317.0,-19.6,-7.46,0.054,1.634,-0.943,-1.305
1321.0,-19.6,-7.46,0.054,1.634,-0.943,-1.305
1326.0,-19.6,-6.781,0.237,1.877,-0.97,-1.215
1330.0,-19.6,-6.781,0.237,1.877,-0.97,-1.215
1334.0,-19.6,-6.781,0.237,1.877,-0.97,-1.215
1338.0,-19.531,-6.011,0.237,2.057,-0.994,-1.096
1342.0,-19.531,-6.011,0.237,2.057,-0.994,-1.096
1346.0,-17.645,-5.199,0.193,2.14,-0.992,-0.954
1350.0,-17.645,-5.199,0.193,2.14,-0.992,-0.954
1354.0,-17.645,-5.199,0.193,2.14,-0.992,-0.954
1358.0,-14.852,-4.418,0.329,2.122,-0.948,-0.808
1362.0,-14.852,-4.418,0.329,2.122,-0.948,-0.808
1366.0,-12.31,-3.632,0.61,2.014,-0.873,-0.676
1370.0,-12.31,-3.632,0.61,2.014,-0.873,-0.676
1375.0,-10.102,-2.852,0.961,2.014,-0.873,-0.564
1379.0,-10.102,-2.852,0.961,1.847,-0.787,-0.564
1383.0,-10.102,-2.852,0.961,1.847,-0.787,-0.564
1387.0,-8.156,-2.115,1.177,1.651,-0.711,-0.465
1391.0,-8.156,-2.115,1.177,1.651,-0.711,-0.465
1395.0,-6.504,-1.4,1.238,1.458,-0.643,-0.376
1399.0,-6.504,-1.4,1.238,1.458,-0.643,-0.376
1403.0,-6.504,-1.4,1.238,1.458,-0.643,-0.376
1407.0,-5.222,-0.741,1.124,1.28,-0.573,-0.277
1411.0,-5.222,-0.741,1.124,1.28,-0.573,-0.277
1415.0,-4.293,-0.199,0.89,1.112,-0.49,-0.151
1419.0,-4.293,-0.199,0.89,1.112,-0.49,-0.151
1423.0,-4.293,-0.199,0.89,1.112,-0.49,-0.151
1427.0,-3.656,0.177,0.62,0.933,-0.378,0.006
1430.0,-3.656,0.177,0.62,0.933,-0.378,0.006
1434.0,-3.345,0.354,0.499,0.726,-0.223,0.183
1438.0,-3.345,0.354,0.499,0.726,-0.223,0.183
1442.0,-3.345,0.354,0.499,0.726,-0.223,0.183
1446.0,-3.307,0.281,0.543,0.498,-0.039,0.372
1450.0,-3.307,0.281,0.543,0.498,-0.039,0.372
1453.0,-3.509,-0.212,0.663,0.498,-0.039,0.372
1457.0,-3.509,-0.212,0.663,0.286,0.147,0.557
1461.0,-3.509,-0.212,0.663,0.286,0.147,0.557
1465.0,-3.98,-0.808,0.757,0.146,0.305,0.713
1469.0,-3.98,-0.808,0.757,0.146,0.305,0.713
1473.0,-3.98,-0.808,0.794,0.146,0.305,0.713
1476.0,-4.626,-1.315,0.794,0.096,0.421,0.821
1480.0,-4.626,-1.315,0.794,0.096,0.421,0.821
1484.0,-5.325,-1.664,0.826,0.124,0.508,0.877
1488.0,-5.325,-1.664,0.826,0.124,0.508,0.877
1492.0,-5.325,-1.664,0.826,0.124,0.508,0.877
1496.0,-5.935,-1.784,0.815,0.195,0.578,0.899
1499.0,-5.935,-1.784,0.815,0.195,0.578,0.899
1503.0,-6.389,-1.607,0.867,0.195,0.649,0.919
1507.0,-6.389,-1.607,0.867,0.28,0.649,0.919
1511.0,-6.389,-1.607,0.867,0.28,0.649,0.919
1515.0,-6.799,-1.278,0.982,0.364,0.724,0.966
1518.0,-6.799,-1.278,0.982,0.364,0.724,0.966
1522.0,-6.799,-0.867,1.015,0.364,0.724,0.966
1526.0,-7.278,-0.867,1.015,0.432,0.801,1.042
1530.0,-7.278,-0.867,1.015,0.432,0.801,1.042
1534.0,-7.743,-0.461,0.936,0.467,0.878,1.136
1538.0,-7.743,-0.461,0.936,0.467,0.878,1.136
1541.0,-7.743,-0.461,0.936,0.467,0.878,1.136
1545.0,-7.976,-0.072,0.919,0.459,0.956,1.226
1549.0,-7.976,-0.072,0.919,0.459,0.956,1.226
1553.0,-7.985,0.376,1.007,0.407,1.026,1.294
1557.0,-7.985,0.376,1.007,0.407,1.026,1.294
1560.0,-7.985,0.376,1.007,0.407,1.026,1.294
1564.0,-7.916,0.755,1.107,0.318,1.09,1.333
1568.0,-7.916,0.755,1.107,0.318,1.09,1.333
1571.0,-7.916,0.755,1.213,0.318,1.09,1.333
1575.0,-7.765,1.003,1.213,0.198,1.15,1.343
1579.0,-7.765,1.003,1.213,0.198,1.15,1.343
1583.0,-7.582,1.169,1.362,0.053,1.196,1.328
1586.0,-7.582,1.169,1.362,0.053,1.196,1.328
1590.0,-7.582,1.169,1.362,0.053,1.196,1.328
1594.0,-7.405,1.244,1.447,-0.113,1.224,1.295
1598.0,-7.405,1.244,1.447,-0.113,1.224,1.295
1602.0,-7.213,1.239,1.51,-0.113,1.224,1.295
1605.0,-7.213,1.239,1.51,-0.298,1.237,1.25
1609.0,-7.213,1.239,1.51,-0.298,1.237,1.25
1613.0,-6.983,1.202,1.594,-0.499,1.233,1.198
1617.0,-6.983,1.202,1.594,-0.499,1.233,1.198
1621.0,-6.983,1.202,1.594,-0.499,1.233,1.198
1624.0,-6.84,1.156,1.649,-0.715,1.211,1.14
1628.0,-6.84,1.156,1.649,-0.715,1.211,1.14
1632.0,-6.87,1.1,1.598,-0.944,1.18,1.077
1636.0,-6.87,1.1,1.598,-0.944,1.18,1.077
1640.0,-6.87,1.1,1.598,-0.944,1.18,1.077
1644.0,-6.931,1.003,1.527,-1.182,1.144,1.013
1647.0,-6.931,1.003,1.527,-1.182,1.144,1.013
1651.0,-6.926,0.875,1.479,-1.182,1.096,0.944
1655.0,-6.926,0.875,1.479,-1.419,1.096,0.944
1659.0,-6.926,0.875,1.479,-1.419,1.096,0.944
1663.0,-6.831,0.76,1.439,-1.65,1.035,0.869
1666.0,-6.831,0.76,1.439,-1.65,1.035,0.869
1670.0,-6.831,0.682,1.406,-1.65,1.035,0.869
1674.0,-6.625,0.682,1.406,-1.867,0.962,0.79
1678.0,-6.625,0.682,1.406,-1.867,0.962,0.79
1682.0,-6.36,0.59,1.4,-2.066,0.884,0.708
1686.0,-6.36,0.59,1.4,-2.066,0.884,0.708
1689.0,-6.36,0.59,1.4,-2.066,0.884,0.708
1693.0,-6.022,0.511,1.452,-2.242,0.796,0.628
1697.0,-6.022,0.511,1.452,-2.242,0.796,0.628
1701.0,-5.679,0.438,1.534,-2.39,0.699,0.55
1705.0,-5.679,0.438,1.534,-2.39,0.699,0.55
1708.0,-5.679,0.438,1.534,-2.39,0.699,0.55
1712.0,-5.32,0.349,1.645,-2.508,0.588,0.476
1716.0,-5.32,0.349,1.645,-2.508,0.588,0.476
1720.0,-4.941,0.239,1.753,-2.508,0.588,0.476
1724.0,-4.941,0.239,1.753,-2.591,0.463,0.408
1728.0,-4.941,0.239,1.753,-2.591,0.463,0.408
1731.0,-4.533,0.123,1.839,-2.64,0.325,0.339
1735.0,-4.533,0.123,1.839,-2.64,0.325,0.339
1739.0,-4.533,0.123,1.839,-2.64,0.325,0.339
1743.0,-4.18,0.013,1.806,-2.66,0.186,0.266
1747.0,-4.18,0.013,1.806,-2.66,0.186,0.266
1750.0,-3.927,-0.12,1.692,-2.658,0.067,0.187
1754.0,-3.927,-0.12,1.692,-2.658,0.067,0.187
1758.0,-3.927,-0.12,1.692,-2.658,0.067,0.187
1762.0,-3.746,-0.226,1.607,-2.641,-0.021,0.106
1766.0,-3.746,-0.226,1.607,-2.641,-0.021,0.106
1770.0,-3.687,-0.298,1.54,-2.611,-0.077,0.026
1774.0,-3.687,-0.298,1.54,-2.611,-0.077,0.026
1778.0,-3.687,-0.298,1.54,-2.611,-0.077,0.026
1782.0,-3.748,-0.379,1.537,-2.569,-0.095,-0.052
1786.0,-3.748,-0.379,1.537,-2.569,-0.095,-0.052
1790.0,-3.942,-0.472,1.587,-2.52,-0.074,-0.127
1794.0,-3.942,-0.472,1.587,-2.52,-0.074,-0.127
1798.0,-3.942,-0.472,1.949,-2.52,-0.074,-0.127
1803.0,-4.37,-0.537,1.949,-2.46,-0.01,-0.208
1807.0,-4.37,-0.537,1.949,-2.46,-0.01,-0.208
1811.0,-5.252,-0.513,2.567,-2.373,0.09,-0.297
1815.0,-5.252,-0.513,2.567,-2.373,0.09,-0.297
1819.0,-6.603,-0.477,3.322,-2.373,0.09,-0.297
1823.0,-6.603,-0.477,3.322,-2.252,0.193,-0.376
1827.0,-6.603,-0.477,3.322,-2.252,0.193,-0.376
1831.0,-8.498,-0.461,3.983,-2.091,0.281,-0.45
1835.0,-8.498,-0.461,3.983,-2.091,0.281,-0.45
1839.0,-11.07,-0.477,4.092,-2.091,0.381,-0.529
1843.0,-11.07,-0.477,4.092,-1.889,0.381,-0.529
1847.0,-11.07,-0.477,4.092,-1.889,0.381,-0.529
1851.0,-14.238,-0.526,4.091,-1.664,0.494,-0.603
1855.0,-14.238,-0.526,4.091,-1.664,0.494,-0.603
1859.0,-16.638,-0.221,4.459,-1.428,0.57,-0.63
1863.0,-16.638,-0.221,4.459,-1.428,0.57,-0.63
1867.0,-16.638,-0.221,4.459,-1.428,0.57,-0.63
1871.0,-16.901,0.216,4.844,-1.205,0.566,-0.558
1875.0,-16.901,0.216,4.844,-1.205,0.566,-0.558
1879.0,-15.718,0.427,4.902,-1.018,0.543,-0.408
1883.0,-15.718,0.427,4.902,-1.018,0.543,-0.408
1887.0,-15.718,0.427,4.851,-1.018,0.543,-0.408
1891.0,-14.529,0.371,4.851,-0.865,0.58,-0.227
1895.0,-14.529,0.371,4.851,-0.865,0.58,-0.227
1899.0,-13.654,0.341,4.594,-0.739,0.701,-0.036
1903.0,-13.654,0.341,4.594,-0.739,0.701,-0.036
1907.0,-13.654,0.295,4.404,-0.739,0.701,-0.036
1911.0,-13.392,0.295,4.404,-0.653,0.908,0.166
1915.0,-13.392,0.295,4.404,-0.653,0.908,0.166
1919.0,-13.47,0.173,4.436,-0.606,1.163,0.373
1923.0,-13.47,0.173,4.436,-0.606,1.163,0.373
1927.0,-13.47,0.173,4.621,-0.606,1.163,0.373
1931.0,-13.798,-0.044,4.621,-0.588,1.42,0.573
1935.0,-13.798,-0.044,4.621,-0.588,1.42,0.573
1939.0,-14.552,-0.255,4.865,-0.581,1.641,0.757
1943.0,-14.552,-0.255,4.865,-0.581,1.641,0.757
1947.0,-14.552,-0.352,5.073,-0.581,1.641,0.757
1951.0,-15.523,-0.352,5.073,-0.573,1.799,0.921
1955.0,-15.523,-0.352,5.073,-0.573,1.799,0.921
1959.0,-16.189,-0.364,5.115,-0.563,1.885,1.075
1963.0,-16.189,-0.364,5.115,-0.563,1.885,1.075
1967.0,-16.231,-0.386,5.081,-0.563,1.885,1.075
1971.0,-16.231,-0.386,5.081,-0.553,1.917,1.224
1975.0,-16.231,-0.386,5.081,-0.553,1.917,1.224
1979.0,-15.756,-0.474,4.887,-0.536,1.917,1.353
1983.0,-15.756,-0.474,4.887,-0.536,1.917,1.353
1987.0,-15.103,-0.596,4.754,-0.536,1.917,1.446
1991.0,-15.103,-0.596,4.754,-0.495,1.901,1.446
1995.0,-15.103,-0.596,4.754,-0.495,1.901,1.446
1999.0,-14.343,-0.827,4.541,-0.416,1.857,1.492
2003.0,-14.343,-0.827,4.541,-0.416,1.857,1.492
2007.0,-13.777,-1.031,4.213,-0.292,1.765,1.485
2011.0,-13.777,-1.031,4.213,-0.292,1.765,1.485
2015.0,-13.777,-1.031,4.213,-0.292,1.765,1.485
2019.0,-13.616,-1.152,3.817,-0.132,1.629,1.428
2023.0,-13.616,-1.152,3.817,-0.132,1.629,1.428
2027.0,-13.784,-1.165,3.508,0.045,1.462,1.343
2030.0,-13.784,-1.165,3.508,0.045,1.462,1.343
2034.0,-13.784,-1.165,3.508,0.045,1.462,1.343
2038.0,-13.732,-1.177,3.398,0.233,1.264,1.26
2042.0,-13.732,-1.177,3.398,0.233,1.264,1.26
2046.0,-13.232,-1.251,3.592,0.42,1.02,1.196
2050.0,-13.232,-1.251,3.592,0.42,1.02,1.196
2054.0,-13.232,-1.251,3.592,0.42,1.02,1.196
2058.0,-12.385,-1.426,3.474,0.604,0.725,1.136
2062.0,-12.385,-1.426,3.474,0.604,0.725,1.136
2066.0,-11.526,-1.52,2.913,0.604,0.725,1.057
2070.0,-11.526,-1.52,2.913,0.769,0.412,1.057
2073.0,-11.526,-1.52,2.913,0.769,0.412,1.057
2077.0,-10.848,-1.514,2.026,0.889,0.132,0.951
2081.0,-10.848,-1.514,2.026,0.889,0.132,0.951
2085.0,-10.61,-1.43,1.366,0.889,0.132,0.951
2089.0,-10.61,-1.43,1.366,0.938,-0.073,0.828
2093.0,-10.61,-1.43,1.366,0.938,-0.073,0.828
2097.0,-10.985,-1.358,0.894,0.915,-0.218,0.716
2101.0,-10.985,-1.358,0.894,0.915,-0.218,0.716
2105.0,-11.785,-1.472,0.537,0.915,-0.218,0.639
2109.0,-11.785,-1.472,0.537,0.839,-0.33,0.639
2113.0,-11.785,-1.472,0.537,0.839,-0.33,0.639
2117.0,-12.59,-1.611,0.319,0.734,-0.434,0.586
2121.0,-12.59,-1.611,0.319,0.734,-0.434,0.586
2125.0,-13.435,-1.81,0.189,0.734,-0.554,0.538
2129.0,-13.435,-1.81,0.189,0.614,-0.554,0.538
2133.0,-13.435,-1.81,0.189,0.614,-0.554,0.538
2137.0,-14.005,-1.922,-0.005,0.496,-0.706,0.469
2141.0,-14.005,-1.922,-0.005,0.496,-0.706,0.469
2145.0,-13.826,-1.921,-0.328,0.384,-0.881,0.369
2149.0,-13.826,-1.921,-0.328,0.384,-0.881,0.369
2153.0,-13.826,-1.921,-0.328,0.384,-0.881,0.369
2157.0,-13.094,-1.799,-0.368,0.276,-1.054,0.23
2161.0,-13.094,-1.799,-0.368,0.276,-1.054,0.23
2166.0,-11.887,-1.705,-0.693,0.179,-1.206,0.055
2170.0,-11.887,-1.705,-0.693,0.179,-1.206,0.055
2174.0,-11.887,-1.434,-0.801,0.179,-1.206,0.055
2178.0,-10.792,-1.434,-0.801,0.087,-1.301,-0.143
2182.0,-10.792,-1.434,-0.801,0.087,-1.301,-0.143
2186.0,-9.869,-1.189,-0.865,-0.008,-1.336,-0.334
2190.0,-9.869,-1.189,-0.865,-0.008,-1.336,-0.334
2194.0,-9.235,-0.943,-0.799,-0.105,-1.325,-0.496
2199.0,-9.235,-0.943,-0.799,-0.105,-1.325,-0.496
2203.0,-9.235,-0.943,-0.799,-0.105,-1.325,-0.496
2207.0,-8.853,-0.787,-0.589,-0.207,-1.284,-0.624
2211.0,-8.853,-0.787,-0.589,-0.207,-1.284,-0.624
2215.0,-8.656,-0.763,-0.339,-0.312,-1.234,-0.723
2219.0,-8.656,-0.763,-0.339,-0.312,-1.234,-0.723
2224.0,-8.547,-0.833,-0.141,-0.312,-1.192,-0.8
2228.0,-8.547,-0.833,-0.141,-0.411,-1.192,-0.8
2232.0,-8.547,-0.833,-0.141,-0.411,-1.192,-0.8
2236.0,-8.489,-1.004,0.023,-0.5,-1.16,-0.87
2240.0,-8.489,-1.004,0.023,-0.5,-1.16,-0.87
2244.0,-8.479,-1.22,0.145,-0.573,-1.136,-0.936
2248.0,-8.479,-1.22,0.145,-0.573,-1.136,-0.936
2252.0,-8.479,-1.22,0.185,-0.573,-1.136,-0.936
2257.0,-8.441,-1.449,0.185,-0.626,-1.117,-0.999
2261.0,-8.441,-1.449,0.185,-0.626,-1.117,-0.999
2265.0,-8.219,-1.688,0.127,-0.66,-1.103,-1.059
2269.0,-8.219,-1.688,0.127,-0.66,-1.103,-1.059
2273.0,-7.869,-1.868,0.071,-0.66,-1.103,-1.117
2277.0,-7.869,-1.868,0.071,-0.674,-1.09,-1.117
2281.0,-7.869,-1.868,0.071,-0.674,-1.09,-1.117
2285.0,-7.482,-1.994,0.068,-0.669,-1.073,-1.177
2289.0,-7.482,-1.994,0.068,-0.669,-1.073,-1.177
2293.0,-7.109,-2.082,0.065,-0.641,-1.054,-1.236
2297.0,-7.109,-2.082,0.065,-0.641,-1.054,-1.236
2301.0,-7.109,-2.082,0.065,-0.641,-1.054,-1.236
2305.0,-6.641,-2.148,0.022,-0.588,-1.032,-1.297
2310.0,-6.641,-2.148,0.022,-0.588,-1.032,-1.297
2314.0,-6.123,-2.181,-0.022,-0.508,-1.008,-1.359
2318.0,-6.123,-2.181,-0.022,-0.508,-1.008,-1.359
2322.0,-5.646,-2.156,0.011,-0.508,-1.008,-1.359
2326.0,-5.646,-2.156,0.011,-0.404,-0.982,-1.42
2330.0,-5.646,-2.156,0.011,-0.404,-0.982,-1.42
2334.0,-5.305,-2.122,0.08,-0.276,-0.951,-1.472
2338.0,-5.305,-2.122,0.08,-0.276,-0.951,-1.472
2342.0,-5.056,-2.115,0.112,-0.124,-0.915,-1.51
2346.0,-5.056,-2.115,0.112,-0.124,-0.915,-1.51
2351.0,-5.056,-2.115,0.112,-0.124,-0.915,-1.51
2355.0,-4.861,-2.111,0.164,0.049,-0.873,-1.525
2359.0,-4.861,-2.111,0.164,0.049,-0.873,-1.525
2363.0,-4.8,-2.116,0.255,0.238,-0.83,-1.523
2367.0,-4.8,-2.116,0.255,0.238,-0.83,-1.523
2371.0,-4.8,-2.116,0.255,0.238,-0.83,-1.523
2375.0,-4.823,-2.176,0.326,0.44,-0.791,-1.502
2379.0,-4.823,-2.176,0.326,0.44,-0.791,-1.502
2383.0,-4.836,-2.255,0.339,0.652,-0.758,-1.47
2387.0,-4.836,-2.255,0.339,0.652,-0.758,-1.47
2391.0,-4.836,-2.255,0.339,0.652,-0.758,-1.47
2395.0,-4.863,-2.283,0.341,0.871,-0.731,-1.431
2399.0,-4.863,-2.283,0.341,0.871,-0.731,-1.431
2403.0,-5.044,-2.261,0.401,1.085,-0.709,-1.384
2407.0,-5.044,-2.261,0.401,1.085,-0.709,-1.384
2411.0,-5.044,-2.261,0.464,1.085,-0.709,-1.384
2415.0,-5.349,-2.354,0.464,1.29,-0.69,-1.318
2419.0,-5.349,-2.354,0.464,1.29,-0.69,-1.318
2423.0,-5.579,-2.41,0.385,1.492,-0.679,-1.238
2426.0,-5.579,-2.41,0.385,1.492,-0.679,-1.238
2430.0,-5.759,-2.389,0.33,1.492,-0.679,-1.238
2434.0,-5.759,-2.389,0.33,1.671,-0.678,-1.172
2438.0,-5.759,-2.389,0.33,1.671,-0.678,-1.172
2442.0,-5.989,-2.438,0.328,1.813,-0.685,-1.12
2446.0,-5.989,-2.438,0.328,1.813,-0.685,-1.12
2450.0,-6.352,-2.429,0.281,1.813,-0.685,-1.12
2454.0,-6.352,-2.429,0.281,1.92,-0.698,-1.088
2458.0,-6.352,-2.429,0.281,1.92,-0.698,-1.088
2462.0,-6.943,-2.411,0.185,1.991,-0.708,-1.072
2466.0,-6.943,-2.411,0.185,1.991,-0.708,-1.072
2470.0,-7.685,-2.52,0.05,1.991,-0.705,-1.069
2474.0,-7.685,-2.52,0.05,2.021,-0.705,-1.069
2478.0,-7.685,-2.52,0.05,2.021,-0.705,-1.069
2482.0,-8.643,-2.605,-0.051,2.014,-0.684,-1.076
2486.0,-8.643,-2.605,-0.051,2.014,-0.684,-1.076
2491.0,-9.897,-2.656,-0.269,1.977,-0.634,-1.071
2495.0,-9.897,-2.656,-0.269,1.977,-0.634,-1.071
2499.0,-9.897,-2.656,-0.269,1.977,-0.634,-1.071
2503.0,-11.557,-2.685,-0.453,1.914,-0.554,-1.029
2507.0,-11.557,-2.685,-0.453,1.914,-0.554,-1.029
2511.0,-13.737,-2.814,-0.577,1.82,-0.444,-0.919
2515.0,-13.737,-2.814,-0.577,1.82,-0.444,-0.919
2519.0,-16.28,-3.09,-0.525,1.82,-0.444,-0.919
2524.0,-16.28,-3.09,-0.525,1.696,-0.316,-0.724
2528.0,-16.28,-3.09,-0.525,1.696,-0.316,-0.724
2532.0,-18.597,-3.439,-0.25,1.557,-0.204,-0.436
2536.0,-18.597,-3.439,-0.25,1.557,-0.204,-0.436
2540.0,-19.579,-3.93,0.152,1.413,-0.14,-0.082
2544.0,-19.579,-3.93,0.152,1.413,-0.14,-0.082
2548.0,-19.579,-3.93,0.152,1.413,-0.14,-0.082
2553.0,-19.6,-4.396,0.455,1.275,-0.132,0.258
2557.0,-19.6,-4.396,0.455,1.275,-0.132,0.258
2561.0,-19.6,-4.64,0.443,1.158,-0.164,0.495
2565.0,-19.6,-4.64,0.443,1.158,-0.164,0.495
2569.0,-19.6,-4.64,0.295,1.158,-0.164,0.495
2573.0,-19.6,-4.562,0.295,1.06,-0.209,0.612
2576.0,-19.6,-4.562,0.295,1.06,-0.209,0.612
2580.0,-19.53,-4.197,-0.086,0.967,-0.244,0.651
2585.0,-19.53,-4.197,-0.086,0.967,-0.244,0.651
2589.0,-19.556,-3.706,-0.397,0.967,-0.244,0.651
2593.0,-19.556,-3.706,-0.397,0.866,-0.248,0.67
2597.0,-19.556,-3.706,-0.397,0.866,-0.248,0.67
2601.0,-19.527,-3.266,-0.538,0.75,-0.212,0.705
2605.0,-19.527,-3.266,-0.538,0.75,-0.212,0.705
2609.0,-18.714,-2.966,-0.515,0.631,-0.16,0.764
2613.0,-18.714,-2.966,-0.515,0.631,-0.16,0.764
2617.0,-18.714,-2.966,-0.515,0.631,-0.16,0.764
2621.0,-17.377,-2.825,-0.131,0.518,-0.102,0.824
2625.0,-17.377,-2.825,-0.131,0.518,-0.102,0.824
2629.0,-15.506,-2.719,0.242,0.43,-0.059,0.845
2633.0,-15.506,-2.719,0.242,0.43,-0.059,0.845
2637.0,-15.506,-2.719,0.415,0.43,-0.059,0.845
2641.0,-13.659,-2.561,0.415,0.376,-0.045,0.811
2645.0,-13.659,-2.561,0.415,0.376,-0.045,0.811
2649.0,-12.429,-2.337,0.608,0.346,-0.033,0.724
2653.0,-12.429,-2.337,0.608,0.346,-0.033,0.724
2657.0,-12.429,-2.099,0.68,0.346,-0.033,0.724
2661.0,-11.719,-2.099,0.68,0.334,-0.013,0.602
2665.0,-11.719,-2.099,0.68,0.334,-0.013,0.602
2669.0,-11.381,-1.918,0.734,0.335,0.011,0.48
2673.0,-11.381,-1.918,0.734,0.335,0.011,0.48
2677.0,-11.381,-1.775,0.721,0.335,0.011,0.48
2681.0,-11.479,-1.775,0.721,0.336,0.043,0.393
2685.0,-11.479,-1.775,0.721,0.336,0.043,0.393
2689.0,-11.664,-1.774,0.702,0.328,0.08,0.353
2693.0,-11.664,-1.774,0.702,0.328,0.08,0.353
2697.0,-11.664,-1.774,0.739,0.328,0.08,0.353
2701.0,-11.438,-1.874,0.739,0.312,0.11,0.344
2705.0,-11.438,-1.874,0.739,0.312,0.11,0.344
2708.0,-11.036,-1.941,0.727,0.296,0.118,0.332
2712.0,-11.036,-1.941,0.727,0.296,0.118,0.332
2716.0,-11.036,-1.941,0.727,0.296,0.118,0.332
2720.0,-11.173,-1.907,0.552,0.282,0.12,0.293
2724.0,-11.173,-1.907,0.552,0.282,0.12,0.293
2728.0,-11.831,-1.742,0.213,0.264,0.139,0.232
2732.0,-11.831,-1.742,0.213,0.264,0.139,0.232
2736.0,-11.831,-1.742,0.213,0.264,0.139,0.232
2740.0,-12.233,-1.572,-0.066,0.236,0.168,0.174
2744.0,-12.233,-1.572,-0.066,0.236,0.168,0.174
2748.0,-12.185,-1.382,-0.147,0.191,0.191,0.141
2752.0,-12.185,-1.382,-0.147,0.191,0.191,0.141
2756.0,-12.185,-1.382,-0.147,0.191,0.191,0.141
2760.0,-11.813,-1.231,-0.138,0.14,0.217,0.129
2764.0,-11.813,-1.231,-0.138,0.14,0.217,0.129
2768.0,-11.232,-1.058,-0.115,0.096,0.256,0.125
2772.0,-11.232,-1.058,-0.115,0.096,0.256,0.125
2776.0,-11.232,-1.058,-0.116,0.096,0.256,0.125
2780.0,-10.582,-0.852,-0.116,0.065,0.317,0.115
2784.0,-10.582,-0.852,-0.116,0.065,0.317,0.115
2788.0,-10.055,-0.595,-0.05,0.044,0.401,0.101
2792.0,-10.055,-0.595,-0.05,0.044,0.401,0.101
2796.0,-10.055,-0.363,0.039,0.044,0.401,0.101
2799.0,-9.566,-0.363,0.039,0.035,0.506,0.09
2803.0,-9.566,-0.363,0.039,0.035,0.506,0.09
2807.0,-9.019,-0.172,0.141,0.038,0.625,0.093
2811.0,-9.019,-0.172,0.141,0.038,0.625,0.093
2815.0,-9.019,-0.172,0.141,0.038,0.625,0.093
2819.0,-8.527,0.06,0.355,0.054,0.756,0.107
2822.0,-8.527,0.06,0.355,0.054,0.756,0.107
2826.0,-8.149,0.236,0.577,0.076,0.889,0.133
2830.0,-8.149,0.236,0.577,0.076,0.889,0.133
2834.0,-8.149,0.236,0.577,0.076,0.889,0.133
2837.0,-7.847,0.307,0.806,0.103,1.011,0.162
2841.0,-7.847,0.307,0.806,0.103,1.011,0.162
2845.0,-7.847,0.307,1.043,0.103,1.011,0.162
2848.0,-7.577,0.31,1.043,0.131,1.104,0.186
2852.0,-7.577,0.31,1.043,0.131,1.104,0.186
2856.0,-7.369,0.301,1.289,0.16,1.154,0.199
2860.0,-7.369,0.301,1.289,0.16,1.154,0.199
2863.0,-7.369,0.301,1.289,0.16,1.154,0.199
2867.0,-7.184,0.291,1.464,0.191,1.154,0.205
2871.0,-7.184,0.291,1.464,0.191,1.154,0.205
2875.0,-7.184,0.303,1.501,0.191,1.154,0.205
2878.0,-6.981,0.303,1.501,0.218,1.108,0.202
2882.0,-6.981,0.303,1.501,0.218,1.108,0.202
2886.0,-6.708,0.324,1.447,0.235,1.031,0.199
2890.0,-6.708,0.324,1.447,0.235,1.031,0.199
2893.0,-6.708,0.324,1.447,0.235,1.031,0.199
2897.0,-6.337,0.376,1.34,0.237,0.933,0.201
2901.0,-6.337,0.376,1.34,0.237,0.933,0.201
2904.0,-5.886,0.425,1.174,0.237,0.933,0.201
2908.0,-5.886,0.425,1.174,0.221,0.828,0.212
2912.0,-5.886,0.425,1.174,0.221,0.828,0.212
2916.0,-5.382,0.456,0.993,0.183,0.732,0.232
2919.0,-5.382,0.456,0.993,0.183,0.732,0.232
2923.0,-5.382,0.456,0.993,0.183,0.732,0.232
2927.0,-4.844,0.511,0.853,0.121,0.659,0.262
2931.0,-4.844,0.511,0.853,0.121,0.659,0.262
2934.0,-4.335,0.542,0.772,0.121,0.659,0.301
2938.0,-4.335,0.542,0.772,0.034,0.613,0.301
2942.0,-4.335,0.542,0.772,0.034,0.613,0.301
2946.0,-3.938,0.56,0.721,-0.076,0.6,0.351
2949.0,-3.938,0.56,0.721,-0.076,0.6,0.351
2953.0,-3.938,0.56,0.721,-0.076,0.6,0.351
2957.0,-3.649,0.557,0.727,-0.207,0.62,0.406
2961.0,-3.649,0.557,0.727,-0.207,0.62,0.406
2965.0,-3.497,0.522,0.805,-0.354,0.663,0.462
2968.0,-3.497,0.522,0.805,-0.354,0.663,0.462
2972.0,-3.497,0.522,0.805,-0.354,0.663,0.462
2976.0,-3.527,0.469,0.955,-0.514,0.714,0.519
2980.0,-3.527,0.469,0.955,-0.514,0.714,0.519
2984.0,-3.744,0.408,1.153,-0.514,0.714,0.573
2988.0,-3.744,0.408,1.153,-0.679,0.762,0.573
2991.0,-3.744,0.408,1.153,-0.679,0.762,0.573
2995.0,-4.085,0.314,1.275,-0.841,0.793,0.619
2999.0,-4.085,0.314,1.275,-0.841,0.793,0.619
