deltaTime,Acc_X,Acc_Y,Acc_Z,Gyro_X,Gyro_Y,Gyro_Z
0.0,-9.584,-5.929,2.408,-0.262,0.503,0.232
3.0,-10.021,-6.457,2.792,-0.114,0.505,0.32
6.0,-10.021,-6.457,2.792,-0.114,0.505,0.32
9.0,-10.021,-6.457,2.792,-0.114,0.505,0.32
12.0,-9.109,-6.659,3.167,0.132,0.474,0.374
15.0,-9.109,-6.659,3.167,0.132,0.474,0.374
18.0,-9.109,-6.659,3.167,0.132,0.474,0.374
21.0,-9.109,-6.659,3.441,0.132,0.474,0.374
24.0,-7.877,-6.651,3.441,0.431,0.413,0.352
27.0,-7.877,-6.651,3.441,0.431,0.413,0.352
30.0,-7.877,-6.651,3.441,0.431,0.413,0.352
33.0,-7.564,-6.22,3.668,0.75,0.368,0.299
36.0,-7.564,-6.22,3.668,0.75,0.368,0.299
39.0,-7.564,-6.22,3.668,0.75,0.368,0.299
43.0,-7.775,-5.048,3.587,1.019,0.34,0.239
46.0,-7.775,-5.048,3.587,1.019,0.34,0.239
50.0,-7.775,-5.048,3.587,1.019,0.34,0.239
54.0,-7.909,-3.842,3.348,1.131,0.326,0.194
57.0,-7.909,-3.842,3.348,1.131,0.326,0.194
61.0,-8.094,-2.969,3.32,1.131,0.326,0.201
65.0,-8.094,-2.969,3.32,1.089,0.32,0.201
68.0,-8.094,-2.969,3.32,1.089,0.32,0.201
72.0,-8.515,-2.361,3.482,0.939,0.308,0.242
76.0,-8.515,-2.361,3.482,0.939,0.308,0.242
79.0,-8.515,-2.361,3.482,0.939,0.308,0.242
83.0,-9.027,-2.011,3.619,0.703,0.279,0.305
87.0,-9.027,-2.011,3.619,0.703,0.279,0.305
90.0,-9.027,-2.271,3.957,0.703,0.279,0.305
94.0,-9.589,-2.271,3.957,0.436,0.202,0.4
98.0,-9.589,-2.271,3.957,0.436,0.202,0.4
101.0,-9.562,-2.861,4.315,0.235,0.085,0.494
105.0,-9.562,-2.861,4.315,0.235,0.085,0.494
109.0,-9.562,-2.861,4.315,0.235,0.085,0.494
112.0,-9.095,-3.017,4.326,0.136,-0.05,0.559
116.0,-9.095,-3.017,4.326,0.136,-0.05,0.559
120.0,-9.164,-2.951,4.123,0.136,-0.05,0.559
124.0,-9.164,-2.951,4.123,0.056,-0.143,0.608
128.0,-9.164,-2.951,4.123,0.056,-0.143,0.608
131.0,-8.614,-2.978,3.973,-0.041,-0.183,0.64
135.0,-8.614,-2.978,3.973,-0.041,-0.183,0.64
139.0,-8.614,-2.978,3.973,-0.041,-0.183,0.64
143.0,-7.81,-3.266,4.786,-0.07,-0.203,0.646
147.0,-7.81,-3.266,4.786,-0.07,-0.203,0.646
151.0,-7.762,-3.286,5.313,0.058,-0.28,0.633
155.0,-7.762,-3.286,5.313,0.058,-0.28,0.633
159.0,-7.762,-3.286,5.313,0.058,-0.28,0.633
162.0,-8.012,-3.249,4.78,0.276,-0.372,0.65
166.0,-8.012,-3.249,4.78,0.276,-0.372,0.65
170.0,-8.366,-3.066,4.018,0.464,-0.393,0.723
174.0,-8.366,-3.066,4.018,0.464,-0.393,0.723
178.0,-8.366,-3.066,4.018,0.464,-0.393,0.723
182.0,-9.463,-2.65,3.491,0.526,-0.345,0.832
185.0,-9.463,-2.65,3.491,0.526,-0.345,0.832
189.0,-10.886,-2.648,3.191,0.526,-0.345,0.832
193.0,-10.886,-2.648,3.191,0.434,-0.284,0.947
197.0,-10.886,-2.648,3.191,0.434,-0.284,0.947
201.0,-11.41,-3.074,2.912,0.277,-0.246,1.07
205.0,-11.41,-3.074,2.912,0.277,-0.246,1.07
209.0,-11.41,-3.608,2.845,0.277,-0.246,1.07
213.0,-11.372,-3.608,2.845,0.116,-0.214,1.176
217.0,-11.372,-3.608,2.845,0.116,-0.214,1.176
220.0,-11.338,-4.234,2.853,-0.025,-0.184,1.236
224.0,-11.338,-4.234,2.853,-0.025,-0.184,1.236
228.0,-11.338,-4.616,2.882,-0.025,-0.184,1.236
232.0,-11.307,-4.616,2.882,-0.104,-0.166,1.247
236.0,-11.307,-4.616,2.882,-0.104,-0.166,1.247
240.0,-11.133,-4.65,2.888,-0.122,-0.167,1.226
244.0,-11.133,-4.65,2.888,-0.122,-0.167,1.226
248.0,-10.942,-4.398,2.618,-0.122,-0.167,1.226
252.0,-10.942,-4.398,2.618,-0.117,-0.183,1.187
256.0,-10.942,-4.398,2.618,-0.117,-0.183,1.187
260.0,-10.543,-4.07,2.226,-0.133,-0.185,1.143
264.0,-10.543,-4.07,2.226,-0.133,-0.185,1.143
268.0,-10.175,-3.648,1.804,-0.133,-0.185,1.106
272.0,-10.175,-3.648,1.804,-0.193,-0.165,1.106
276.0,-10.175,-3.648,1.804,-0.193,-0.165,1.106
280.0,-9.933,-2.947,1.634,-0.326,-0.123,1.067
284.0,-9.933,-2.947,1.634,-0.326,-0.123,1.067
288.0,-9.645,-2.463,1.57,-0.326,-0.123,1.023
292.0,-9.645,-2.463,1.57,-0.563,-0.079,1.023
296.0,-9.645,-2.463,1.57,-0.563,-0.079,1.023
300.0,-9.514,-2.33,1.491,-0.88,-0.045,0.991
304.0,-9.514,-2.33,1.491,-0.88,-0.045,0.991
308.0,-10.387,-3.304,1.488,-0.88,-0.045,0.991
312.0,-10.387,-3.304,1.488,-1.185,-0.041,0.99
316.0,-10.387,-3.304,1.488,-1.185,-0.041,0.99
320.0,-9.574,-2.957,1.19,-1.358,-0.135,0.969
324.0,-9.574,-2.957,1.19,-1.358,-0.135,0.969
327.0,-9.961,-3.131,1.141,-1.358,-0.135,0.969
331.0,-9.961,-3.131,1.141,-1.599,-0.053,0.951
335.0,-9.961,-3.131,1.141,-1.599,-0.053,0.951
339.0,-9.846,-3.038,1.324,-1.816,-0.04,0.895
343.0,-9.846,-3.038,1.324,-1.816,-0.04,0.895
347.0,-9.907,-3.108,1.588,-1.816,-0.04,0.895
351.0,-9.907,-3.108,1.588,-2.028,-0.018,0.823
355.0,-9.907,-3.108,1.588,-2.028,-0.018,0.823
359.0,-9.86,-3.038,1.744,-2.194,-0.013,0.742
363.0,-9.86,-3.038,1.744,-2.194,-0.013,0.742
367.0,-9.86,-3.038,1.786,-2.194,-0.013,0.742
370.0,-9.982,-3.094,1.786,-2.319,-0.023,0.652
374.0,-9.982,-3.094,1.786,-2.319,-0.023,0.652
378.0,-10.138,-3.204,1.709,-2.382,-0.06,0.577
382.0,-10.138,-3.204,1.709,-2.382,-0.06,0.577
386.0,-10.138,-3.204,1.645,-2.382,-0.06,0.577
390.0,-10.083,-3.394,1.645,-2.385,-0.126,0.529
394.0,-10.083,-3.394,1.645,-2.385,-0.126,0.529
398.0,-9.753,-3.711,1.46,-2.307,-0.218,0.511
402.0,-9.753,-3.711,1.46,-2.307,-0.218,0.511
406.0,-9.753,-3.711,1.168,-2.307,-0.218,0.511
410.0,-9.573,-4.028,1.168,-2.14,-0.321,0.519
414.0,-9.573,-4.028,1.168,-2.14,-0.321,0.519
418.0,-9.596,-4.331,1.028,-1.899,-0.401,0.552
422.0,-9.596,-4.331,1.028,-1.899,-0.401,0.552
426.0,-9.596,-4.331,1.028,-1.899,-0.401,0.552
429.0,-9.551,-4.439,1.072,-1.597,-0.419,0.577
433.0,-9.551,-4.439,1.072,-1.597,-0.419,0.577
437.0,-9.428,-4.319,1.038,-1.283,-0.395,0.591
441.0,-9.428,-4.319,1.038,-1.283,-0.395,0.591
445.0,-9.428,-4.319,1.038,-1.283,-0.395,0.591
449.0,-9.568,-4.126,0.961,-0.995,-0.361,0.601
453.0,-9.568,-4.126,0.961,-0.995,-0.361,0.601
457.0,-9.727,-3.916,1.123,-0.741,-0.321,0.624
461.0,-9.727,-3.916,1.123,-0.741,-0.321,0.624
465.0,-9.727,-3.916,1.123,-0.741,-0.321,0.624
469.0,-9.502,-3.739,1.226,-0.516,-0.297,0.654
472.0,-9.502,-3.739,1.226,-0.516,-0.297,0.654
476.0,-9.331,-3.681,1.175,-0.319,-0.285,0.68
480.0,-9.331,-3.681,1.175,-0.319,-0.285,0.68
484.0,-9.331,-3.681,1.175,-0.319,-0.285,0.68
488.0,-9.393,-3.551,1.217,-0.131,-0.25,0.708
492.0,-9.393,-3.551,1.217,-0.131,-0.25,0.708
496.0,-9.62,-3.329,1.124,0.038,-0.187,0.738
500.0,-9.62,-3.329,1.124,0.038,-0.187,0.738
503.0,-9.62,-3.329,1.124,0.038,-0.187,0.738
507.0,-9.909,-3.09,1.106,0.164,-0.112,0.786
511.0,-9.909,-3.09,1.106,0.164,-0.112,0.786
515.0,-9.831,-2.855,1.372,0.164,-0.112,0.786
519.0,-9.831,-2.855,1.372,0.244,-0.057,0.848
523.0,-9.831,-2.855,1.372,0.244,-0.057,0.848
526.0,-9.031,-2.673,1.54,0.297,-0.057,0.906
530.0,-9.031,-2.673,1.54,0.297,-0.057,0.906
534.0,-9.031,-2.673,1.54,0.297,-0.057,0.906
538.0,-8.002,-2.509,1.51,0.334,-0.096,0.931
542.0,-8.002,-2.509,1.51,0.334,-0.096,0.931
546.0,-7.099,-2.3,1.477,0.373,-0.125,0.912
549.0,-7.099,-2.3,1.477,0.373,-0.125,0.912
553.0,-7.099,-2.3,1.477,0.373,-0.125,0.912
557.0,-6.321,-2.062,1.336,0.418,-0.138,0.864
561.0,-6.321,-2.062,1.336,0.418,-0.138,0.864
565.0,-5.737,-1.797,1.08,0.418,-0.14,0.806
568.0,-5.737,-1.797,1.08,0.455,-0.14,0.806
572.0,-5.737,-1.797,1.08,0.455,-0.14,0.806
576.0,-5.489,-1.515,0.753,0.468,-0.113,0.756
580.0,-5.489,-1.515,0.753,0.468,-0.113,0.756
584.0,-5.489,-1.515,0.436,0.468,-0.113,0.756
588.0,-5.889,-1.296,0.436,0.449,-0.035,0.73
591.0,-5.889,-1.296,0.436,0.449,-0.035,0.73
595.0,-6.98,-1.219,0.266,0.396,0.093,0.739
599.0,-6.98,-1.219,0.266,0.396,0.093,0.739
603.0,-6.98,-1.219,0.266,0.396,0.093,0.739
606.0,-8.367,-1.26,0.335,0.318,0.237,0.792
610.0,-8.367,-1.26,0.335,0.318,0.237,0.792
614.0,-9.581,-1.416,0.649,0.318,0.237,0.891
618.0,-9.581,-1.416,0.649,0.229,0.339,0.891
621.0,-9.581,-1.416,0.649,0.229,0.339,0.891
625.0,-10.359,-1.596,1.069,0.14,0.365,1.014
629.0,-10.359,-1.596,1.069,0.14,0.365,1.014
633.0,-10.359,-1.596,1.069,0.14,0.365,1.014
636.0,-10.466,-1.77,1.382,0.06,0.315,1.123
640.0,-10.466,-1.77,1.382,0.06,0.315,1.123
644.0,-10.236,-1.846,1.378,-0.009,0.228,1.191
648.0,-10.236,-1.846,1.378,-0.009,0.228,1.191
652.0,-10.236,-1.846,1.378,-0.009,0.228,1.191
656.0,-10.268,-1.722,1.14,-0.076,0.164,1.211
660.0,-10.268,-1.722,1.14,-0.076,0.164,1.211
664.0,-10.385,-1.471,0.836,-0.159,0.148,1.207
668.0,-10.385,-1.471,0.836,-0.159,0.148,1.207
671.0,-10.385,-1.471,0.836,-0.159,0.148,1.207
675.0,-10.36,-1.178,0.653,-0.272,0.16,1.203
679.0,-10.36,-1.178,0.653,-0.272,0.16,1.203
683.0,-10.334,-0.902,0.558,-0.272,0.188,1.2
687.0,-10.334,-0.902,0.558,-0.415,0.188,1.2
691.0,-10.334,-0.902,0.558,-0.415,0.188,1.2
695.0,-10.219,-0.737,0.594,-0.577,0.228,1.189
699.0,-10.219,-0.737,0.594,-0.577,0.228,1.189
703.0,-9.953,-0.667,0.68,-0.577,0.228,1.162
707.0,-9.953,-0.667,0.68,-0.742,0.262,1.162
710.0,-9.953,-0.667,0.68,-0.742,0.262,1.162
714.0,-9.99,-0.617,0.724,-0.902,0.287,1.114
718.0,-9.99,-0.617,0.724,-0.902,0.287,1.114
722.0,-9.99,-0.617,0.76,-0.902,0.287,1.114
726.0,-10.496,-0.63,0.76,-1.052,0.33,1.053
730.0,-10.496,-0.63,0.76,-1.052,0.33,1.053
733.0,-10.859,-0.691,0.876,-1.188,0.376,0.99
737.0,-10.859,-0.691,0.876,-1.188,0.376,0.99
741.0,-10.859,-0.691,0.876,-1.188,0.376,0.99
745.0,-11.041,-0.813,1.064,-1.311,0.392,0.941
749.0,-11.041,-0.813,1.064,-1.311,0.392,0.941
753.0,-11.341,-0.995,1.04,-1.411,0.391,0.892
757.0,-11.341,-0.995,1.04,-1.411,0.391,0.892
761.0,-11.341,-0.995,1.04,-1.411,0.391,0.892
765.0,-11.518,-1.216,0.993,-1.482,0.393,0.834
769.0,-11.518,-1.216,0.993,-1.482,0.393,0.834
773.0,-11.483,-1.369,0.999,-1.529,0.382,0.767
776.0,-11.483,-1.369,0.999,-1.529,0.382,0.767
780.0,-11.483,-1.369,0.999,-1.529,0.382,0.767
784.0,-11.367,-1.488,0.918,-1.554,0.365,0.688
788.0,-11.367,-1.488,0.918,-1.554,0.365,0.688
792.0,-11.107,-1.536,0.921,-1.557,0.356,0.596
796.0,-11.107,-1.536,0.921,-1.557,0.356,0.596
800.0,-11.107,-1.536,0.921,-1.557,0.356,0.596
804.0,-10.472,-1.521,1.07,-1.537,0.341,0.498
808.0,-10.472,-1.521,1.07,-1.537,0.341,0.498
812.0,-9.799,-1.513,1.197,-1.495,0.309,0.398
815.0,-9.799,-1.513,1.197,-1.495,0.309,0.398
819.0,-9.799,-1.513,1.197,-1.495,0.309,0.398
823.0,-9.206,-1.529,1.314,-1.429,0.277,0.294
827.0,-9.206,-1.529,1.314,-1.429,0.277,0.294
831.0,-9.206,-1.549,1.427,-1.429,0.277,0.294
834.0,-8.66,-1.549,1.427,-1.337,0.246,0.191
838.0,-8.66,-1.549,1.427,-1.337,0.246,0.191
842.0,-8.375,-1.59,1.377,-1.227,0.213,0.097
846.0,-8.375,-1.59,1.377,-1.227,0.213,0.097
850.0,-8.375,-1.59,1.377,-1.227,0.213,0.097
854.0,-8.526,-1.661,1.133,-1.106,0.204,0.015
857.0,-8.526,-1.661,1.133,-1.106,0.204,0.015
861.0,-8.98,-1.767,0.943,-0.98,0.23,-0.048
865.0,-8.98,-1.767,0.943,-0.98,0.23,-0.048
869.0,-8.98,-1.767,0.943,-0.98,0.23,-0.048
873.0,-9.461,-1.847,0.826,-0.854,0.264,-0.08
877.0,-9.461,-1.847,0.826,-0.854,0.264,-0.08
881.0,-10.04,-1.933,0.719,-0.737,0.294,-0.083
885.0,-10.04,-1.933,0.719,-0.737,0.294,-0.083
889.0,-10.04,-1.933,0.719,-0.737,0.294,-0.083
893.0,-10.814,-2.052,0.673,-0.626,0.336,-0.056
897.0,-10.814,-2.052,0.673,-0.626,0.336,-0.056
901.0,-11.629,-2.149,0.8,-0.524,0.389,-0.003
905.0,-11.629,-2.149,0.8,-0.524,0.389,-0.003
909.0,-11.629,-2.149,0.8,-0.524,0.389,-0.003
913.0,-12.203,-2.262,1.015,-0.43,0.43,0.081
917.0,-12.203,-2.262,1.015,-0.43,0.43,0.081
921.0,-12.29,-2.405,1.262,-0.346,0.449,0.185
924.0,-12.29,-2.405,1.262,-0.346,0.449,0.185
928.0,-12.29,-2.405,1.262,-0.346,0.449,0.185
932.0,-11.881,-2.527,1.455,-0.264,0.453,0.28
936.0,-11.881,-2.527,1.455,-0.264,0.453,0.28
940.0,-11.235,-2.536,1.617,-0.18,0.452,0.35
944.0,-11.235,-2.536,1.617,-0.18,0.452,0.35
948.0,-11.235,-2.536,1.617,-0.18,0.452,0.35
952.0,-10.541,-2.43,1.65,-0.099,0.458,0.388
956.0,-10.541,-2.43,1.65,-0.099,0.458,0.388
960.0,-9.954,-2.28,1.655,-0.099,0.474,0.404
963.0,-9.954,-2.28,1.655,-0.024,0.474,0.404
967.0,-9.954,-2.28,1.655,-0.024,0.474,0.404
971.0,-9.531,-2.115,1.606,0.049,0.497,0.408
975.0,-9.531,-2.115,1.606,0.049,0.497,0.408
978.0,-9.531,-2.115,1.557,0.049,0.497,0.408
982.0,-9.151,-1.96,1.557,0.121,0.516,0.406
986.0,-9.151,-1.96,1.557,0.121,0.516,0.406
990.0,-8.764,-1.892,1.564,0.194,0.518,0.402
993.0,-8.764,-1.892,1.564,0.194,0.518,0.402
997.0,-8.764,-1.892,1.564,0.194,0.518,0.402
1001.0,-8.306,-1.862,1.545,0.276,0.5,0.392
1005.0,-8.306,-1.862,1.545,0.276,0.5,0.392
1009.0,-7.927,-1.86,1.535,0.276,0.5,0.392
1012.0,-7.927,-1.86,1.535,0.364,0.476,0.373
1016.0,-7.927,-1.86,1.535,0.364,0.476,0.373
1020.0,-7.589,-1.857,1.563,0.456,0.449,0.346
1024.0,-7.589,-1.857,1.563,0.456,0.449,0.346
1028.0,-7.589,-1.857,1.563,0.456,0.449,0.346
1031.0,-7.217,-1.812,1.546,0.549,0.411,0.313
1035.0,-7.217,-1.812,1.546,0.549,0.411,0.313
1039.0,-6.934,-1.719,1.567,0.629,0.363,0.27
1043.0,-6.934,-1.719,1.567,0.629,0.363,0.27
1047.0,-6.934,-1.719,1.567,0.629,0.363,0.27
1051.0,-6.87,-1.596,1.501,0.689,0.314,0.223
1054.0,-6.87,-1.596,1.501,0.689,0.314,0.223
1058.0,-7.049,-1.472,1.329,0.689,0.28,0.179
1062.0,-7.049,-1.472,1.329,0.719,0.28,0.179
1066.0,-7.049,-1.472,1.329,0.719,0.28,0.179
1070.0,-7.433,-1.381,1.158,0.717,0.268,0.146
1073.0,-7.433,-1.381,1.158,0.717,0.268,0.146
1077.0,-7.433,-1.381,1.089,0.717,0.268,0.146
1081.0,-8.068,-1.366,1.089,0.678,0.281,0.123
1085.0,-8.068,-1.366,1.089,0.678,0.281,0.123
1089.0,-8.93,-1.399,1.105,0.614,0.309,0.107
1093.0,-8.93,-1.399,1.105,0.614,0.309,0.107
1096.0,-8.93,-1.399,1.105,0.614,0.309,0.107
1100.0,-10.06,-1.479,1.354,0.536,0.346,0.101
1104.0,-10.06,-1.479,1.354,0.536,0.346,0.101
1108.0,-11.096,-1.582,1.726,0.457,0.357,0.104
1112.0,-11.096,-1.582,1.726,0.457,0.357,0.104
1116.0,-11.096,-1.582,1.726,0.457,0.357,0.104
1120.0,-11.672,-1.635,2.099,0.381,0.311,0.112
1124.0,-11.672,-1.635,2.099,0.381,0.311,0.112
1128.0,-11.546,-1.702,2.309,0.31,0.207,0.101
1131.0,-11.546,-1.702,2.309,0.31,0.207,0.101
1135.0,-11.546,-1.702,2.309,0.31,0.207,0.101
1139.0,-10.853,-1.649,2.273,0.245,0.084,0.05
1143.0,-10.853,-1.649,2.273,0.245,0.084,0.05
1147.0,-10.051,-1.554,2.056,0.245,-0.02,-0.054
1151.0,-10.051,-1.554,2.056,0.184,-0.02,-0.054
1155.0,-10.051,-1.554,2.056,0.184,-0.02,-0.054
1159.0,-9.458,-1.403,1.713,0.121,-0.085,-0.201
1163.0,-9.458,-1.403,1.713,0.121,-0.085,-0.201
1167.0,-9.282,-1.256,1.448,0.056,-0.106,-0.371
1171.0,-9.282,-1.256,1.448,0.056,-0.106,-0.371
1175.0,-9.282,-1.256,1.448,0.056,-0.106,-0.371
1179.0,-9.346,-1.123,1.353,-0.006,-0.099,-0.545
1183.0,-9.346,-1.123,1.353,-0.006,-0.099,-0.545
1187.0,-9.157,-1.031,1.464,-0.053,-0.11,-0.702
1192.0,-9.157,-1.031,1.464,-0.053,-0.11,-0.702
1196.0,-9.157,-1.031,1.464,-0.053,-0.11,-0.702
1200.0,-8.615,-0.991,1.599,-0.079,-0.164,-0.84
1204.0,-8.615,-0.991,1.599,-0.079,-0.164,-0.84
1208.0,-8.01,-1.016,1.621,-0.08,-0.235,-0.969
1212.0,-8.01,-1.016,1.621,-0.08,-0.235,-0.969
1216.0,-7.665,-1.127,1.456,-0.08,-0.235,-1.098
1220.0,-7.665,-1.127,1.456,-0.057,-0.278,-1.098
1224.0,-7.665,-1.127,1.456,-0.057,-0.278,-1.098
1228.0,-7.901,-1.232,1.332,-0.015,-0.269,-1.222
1232.0,-7.901,-1.232,1.332,-0.015,-0.269,-1.222
1236.0,-8.522,-1.324,1.296,0.034,-0.231,-1.327
1240.0,-8.522,-1.324,1.296,0.034,-0.231,-1.327
1244.0,-8.522,-1.324,1.296,0.034,-0.231,-1.327
1248.0,-9.287,-1.434,1.336,0.082,-0.195,-1.407
1252.0,-9.287,-1.434,1.336,0.082,-0.195,-1.407
1256.0,-10.13,-1.609,1.359,0.133,-0.172,-1.47
1260.0,-10.13,-1.609,1.359,0.133,-0.172,-1.47
1265.0,-10.13,-1.609,1.359,0.133,-0.172,-1.47
1269.0,-11.284,-1.783,1.448,0.191,-0.14,-1.521
1273.0,-11.284,-1.783,1.448,0.191,-0.14,-1.521
1277.0,-12.637,-1.947,1.758,0.263,-0.105,-1.549
1281.0,-12.637,-1.947,1.758,0.263,-0.105,-1.549
1285.0,-13.332,-2.134,1.929,0.263,-0.105,-1.549
1289.0,-13.332,-2.134,1.929,0.355,-0.118,-1.537
1293.0,-13.332,-2.134,1.929,0.355,-0.118,-1.537
1297.0,-13.354,-2.236,2.078,0.46,-0.182,-1.493
1301.0,-13.354,-2.236,2.078,0.46,-0.182,-1.493
1305.0,-12.785,-2.284,2.119,0.574,-0.262,-1.443
1309.0,-12.785,-2.284,2.119,0.574,-0.262,-1.443
1313.0,-12.785,-2.284,2.119,0.574,-0.262,-1.443
1318.0,-11.746,-2.252,1.969,0.699,-0.338,-1.412
1322.0,-11.746,-2.252,1.969,0.699,-0.338,-1.412
1326.0,-10.806,-2.066,1.682,0.817,-0.389,-1.406
1330.0,-10.806,-2.066,1.682,0.817,-0.389,-1.406
1334.0,-10.806,-2.066,1.424,0.817,-0.389,-1.406
1338.0,-10.175,-1.807,1.424,0.919,-0.401,-1.421
1342.0,-10.175,-1.807,1.424,0.919,-0.401,-1.421
1346.0,-9.693,-1.565,1.22,1.004,-0.396,-1.444
1350.0,-9.693,-1.565,1.22,1.004,-0.396,-1.444
1354.0,-9.369,-1.359,1.103,1.004,-0.396,-1.444
1358.0,-9.369,-1.359,1.103,1.074,-0.39,-1.466
1362.0,-9.369,-1.359,1.103,1.074,-0.39,-1.466
1366.0,-9.285,-1.241,0.997,1.133,-0.376,-1.48
1370.0,-9.285,-1.241,0.997,1.133,-0.376,-1.48
1374.0,-9.402,-1.248,1.019,1.133,-0.376,-1.484
1378.0,-9.402,-1.248,1.019,1.188,-0.353,-1.484
1382.0,-9.402,-1.248,1.019,1.188,-0.353,-1.484
1386.0,-9.605,-1.335,1.088,1.242,-0.335,-1.475
1390.0,-9.605,-1.335,1.088,1.242,-0.335,-1.475
1394.0,-9.821,-1.462,1.091,1.291,-0.327,-1.458
1398.0,-9.821,-1.462,1.091,1.291,-0.327,-1.458
1402.0,-9.821,-1.462,1.091,1.291,-0.327,-1.458
1406.0,-10.126,-1.56,1.114,1.332,-0.319,-1.442
1410.0,-10.126,-1.56,1.114,1.332,-0.319,-1.442
1414.0,-10.414,-1.668,1.233,1.365,-0.312,-1.424
1418.0,-10.414,-1.668,1.233,1.365,-0.312,-1.424
1422.0,-10.414,-1.668,1.233,1.365,-0.312,-1.424
1426.0,-10.624,-1.811,1.353,1.387,-0.32,-1.409
1430.0,-10.624,-1.811,1.353,1.387,-0.32,-1.409
1435.0,-10.705,-1.848,1.332,1.398,-0.345,-1.402
1439.0,-10.705,-1.848,1.332,1.398,-0.345,-1.402
1443.0,-10.705,-1.868,1.244,1.398,-0.345,-1.402
1447.0,-10.685,-1.868,1.244,1.4,-0.373,-1.401
1451.0,-10.685,-1.868,1.244,1.4,-0.373,-1.401
1455.0,-10.772,-1.807,1.161,1.4,-0.388,-1.402
1459.0,-10.772,-1.807,1.161,1.4,-0.388,-1.402
1463.0,-10.741,-1.753,1.102,1.393,-0.404,-1.4
1467.0,-10.741,-1.753,1.102,1.393,-0.404,-1.4
1471.0,-10.741,-1.753,1.102,1.393,-0.404,-1.4
1475.0,-10.479,-1.761,1.049,1.382,-0.433,-1.387
1479.0,-10.479,-1.761,1.049,1.382,-0.433,-1.387
1484.0,-10.268,-1.815,0.947,1.373,-0.465,-1.371
1488.0,-10.268,-1.815,0.947,1.373,-0.465,-1.371
1492.0,-10.268,-1.815,0.947,1.373,-0.465,-1.371
1496.0,-10.397,-1.928,0.812,1.37,-0.482,-1.355
1500.0,-10.397,-1.928,0.812,1.37,-0.482,-1.355
1504.0,-10.804,-2.081,0.636,1.376,-0.477,-1.331
1508.0,-10.804,-2.081,0.636,1.376,-0.477,-1.331
1512.0,-11.267,-2.179,0.693,1.376,-0.477,-1.331
1516.0,-11.267,-2.179,0.693,1.389,-0.452,-1.289
1520.0,-11.267,-2.179,0.693,1.389,-0.452,-1.289
1524.0,-11.402,-2.268,0.876,1.403,-0.423,-1.218
1528.0,-11.402,-2.268,0.876,1.403,-0.423,-1.218
1532.0,-11.189,-2.382,1.003,1.417,-0.411,-1.126
1537.0,-11.189,-2.382,1.003,1.417,-0.411,-1.126
1541.0,-11.189,-2.382,1.003,1.417,-0.411,-1.126
1545.0,-11.093,-2.464,0.989,1.43,-0.408,-1.045
1549.0,-11.093,-2.464,0.989,1.43,-0.408,-1.045
1553.0,-11.21,-2.472,0.931,1.439,-0.391,-0.994
1557.0,-11.21,-2.472,0.931,1.439,-0.391,-0.994
1561.0,-11.21,-2.472,0.949,1.439,-0.391,-0.994
1565.0,-11.366,-2.404,0.949,1.432,-0.359,-0.956
1569.0,-11.366,-2.404,0.949,1.432,-0.359,-0.956
1573.0,-11.227,-2.283,1.028,1.406,-0.33,-0.909
1577.0,-11.227,-2.283,1.028,1.406,-0.33,-0.909
1581.0,-10.887,-2.203,1.076,1.406,-0.309,-0.858
1586.0,-10.887,-2.203,1.076,1.359,-0.309,-0.858
1590.0,-10.887,-2.203,1.076,1.359,-0.309,-0.858
1594.0,-10.615,-2.109,1.107,1.294,-0.283,-0.821
1598.0,-10.615,-2.109,1.107,1.294,-0.283,-0.821
1602.0,-10.308,-1.98,1.149,1.215,-0.25,-0.804
1606.0,-10.308,-1.98,1.149,1.215,-0.25,-0.804
1610.0,-10.308,-1.98,1.149,1.215,-0.25,-0.804
1614.0,-9.789,-1.83,1.177,1.125,-0.232,-0.793
1618.0,-9.789,-1.83,1.177,1.125,-0.232,-0.793
1622.0,-9.162,-1.683,1.224,1.03,-0.229,-0.792
1626.0,-9.162,-1.683,1.224,1.03,-0.229,-0.792
1630.0,-9.162,-1.683,1.189,1.03,-0.229,-0.792
1634.0,-8.572,-1.538,1.189,0.935,-0.229,-0.805
1638.0,-8.572,-1.538,1.189,0.935,-0.229,-0.805
1642.0,-8.127,-1.421,1.125,0.842,-0.216,-0.832
1646.0,-8.127,-1.421,1.125,0.842,-0.216,-0.832
1650.0,-8.127,-1.327,1.097,0.842,-0.216,-0.832
1654.0,-7.783,-1.327,1.097,0.749,-0.191,-0.867
1658.0,-7.783,-1.327,1.097,0.749,-0.191,-0.867
1662.0,-7.47,-1.253,1.053,0.653,-0.166,-0.894
1666.0,-7.47,-1.253,1.053,0.653,-0.166,-0.894
1670.0,-7.253,-1.238,1.026,0.653,-0.166,-0.894
1674.0,-7.253,-1.238,1.026,0.553,-0.139,-0.907
1678.0,-7.253,-1.238,1.026,0.553,-0.139,-0.907
1682.0,-7.187,-1.269,0.96,0.458,-0.102,-0.902
1686.0,-7.187,-1.269,0.96,0.458,-0.102,-0.902
1690.0,-7.26,-1.351,0.907,0.458,-0.102,-0.877
1694.0,-7.26,-1.351,0.907,0.369,-0.05,-0.877
1698.0,-7.26,-1.351,0.907,0.369,-0.05,-0.877
1702.0,-7.549,-1.404,0.832,0.28,0.022,-0.827
1706.0,-7.549,-1.404,0.832,0.28,0.022,-0.827
1710.0,-8.067,-1.446,0.767,0.28,0.123,-0.745
1714.0,-8.067,-1.446,0.767,0.184,0.123,-0.745
1718.0,-8.067,-1.446,0.767,0.184,0.123,-0.745
1721.0,-8.76,-1.49,0.854,0.078,0.247,-0.624
1725.0,-8.76,-1.49,0.854,0.078,0.247,-0.624
1729.0,-9.427,-1.542,1.034,0.078,0.247,-0.624
1733.0,-9.427,-1.542,1.034,-0.033,0.38,-0.455
1737.0,-9.427,-1.542,1.034,-0.033,0.38,-0.455
1741.0,-9.896,-1.622,1.355,-0.147,0.498,-0.246
1745.0,-9.896,-1.622,1.355,-0.147,0.498,-0.246
1749.0,-9.862,-1.772,1.7,-0.147,0.498,-0.022
1753.0,-9.862,-1.772,1.7,-0.249,0.573,-0.022
1757.0,-9.862,-1.772,1.7,-0.249,0.573,-0.022
1761.0,-9.462,-1.915,1.939,-0.329,0.591,0.18
1765.0,-9.462,-1.915,1.939,-0.329,0.591,0.18
1769.0,-9.231,-2.014,1.966,-0.329,0.591,0.33
1773.0,-9.231,-2.014,1.966,-0.379,0.584,0.33
1777.0,-9.231,-2.014,1.966,-0.379,0.584,0.33
1781.0,-9.264,-1.97,1.769,-0.406,0.581,0.437
1785.0,-9.264,-1.97,1.769,-0.406,0.581,0.437
1788.0,-9.421,-1.831,1.549,-0.406,0.581,0.437
1792.0,-9.421,-1.831,1.549,-0.425,0.593,0.533
1796.0,-9.421,-1.831,1.549,-0.425,0.593,0.533
1800.0,-9.546,-1.718,1.419,-0.444,0.615,0.648
1804.0,-9.546,-1.718,1.419,-0.444,0.615,0.648
1808.0,-9.546,-1.624,1.35,-0.444,0.615,0.648
1812.0,-9.651,-1.624,1.35,-0.462,0.642,0.78
1816.0,-9.651,-1.624,1.35,-0.462,0.642,0.78
1820.0,-9.76,-1.594,1.376,-0.473,0.667,0.918
1824.0,-9.76,-1.594,1.376,-0.473,0.667,0.918
1828.0,-9.76,-1.594,1.443,-0.473,0.667,0.918
1831.0,-9.716,-1.603,1.443,-0.471,0.678,1.047
1835.0,-9.716,-1.603,1.443,-0.471,0.678,1.047
1839.0,-9.622,-1.607,1.531,-0.452,0.667,1.153
1843.0,-9.622,-1.607,1.531,-0.452,0.667,1.153
1847.0,-9.622,-1.607,1.531,-0.452,0.667,1.153
1851.0,-9.562,-1.591,1.603,-0.418,0.642,1.226
1855.0,-9.562,-1.591,1.603,-0.418,0.642,1.226
1859.0,-9.518,-1.539,1.691,-0.372,0.611,1.267
1863.0,-9.518,-1.539,1.691,-0.372,0.611,1.267
1867.0,-9.518,-1.539,1.691,-0.372,0.611,1.267
1870.0,-9.487,-1.465,1.77,-0.319,0.574,1.284
1874.0,-9.487,-1.465,1.77,-0.319,0.574,1.284
1878.0,-9.434,-1.374,1.851,-0.266,0.525,1.286
1882.0,-9.434,-1.374,1.851,-0.266,0.525,1.286
1886.0,-9.434,-1.374,1.851,-0.266,0.525,1.286
1890.0,-9.377,-1.253,1.853,-0.216,0.469,1.275
1894.0,-9.377,-1.253,1.853,-0.216,0.469,1.275
1898.0,-9.489,-1.142,1.829,-0.178,0.415,1.253
1902.0,-9.489,-1.142,1.829,-0.178,0.415,1.253
1906.0,-9.489,-1.142,1.829,-0.178,0.415,1.253
1910.0,-9.655,-1.041,1.871,-0.148,0.364,1.226
1913.0,-9.655,-1.041,1.871,-0.148,0.364,1.226
1917.0,-9.497,-0.937,1.885,-0.123,0.298,1.204
1921.0,-9.497,-0.937,1.885,-0.123,0.298,1.204
1925.0,-9.497,-0.937,1.885,-0.123,0.298,1.204
1929.0,-9.247,-0.832,1.892,-0.114,0.218,1.183
1933.0,-9.247,-0.832,1.892,-0.114,0.218,1.183
1937.0,-9.095,-0.715,1.865,-0.114,0.143,1.15
1941.0,-9.095,-0.715,1.865,-0.119,0.143,1.15
1945.0,-9.095,-0.715,1.865,-0.119,0.143,1.15
1949.0,-8.895,-0.574,1.808,-0.141,0.072,1.105
1953.0,-8.895,-0.574,1.808,-0.141,0.072,1.105
1956.0,-8.588,-0.352,1.685,-0.141,0.072,1.047
1960.0,-8.588,-0.352,1.685,-0.192,0.007,1.047
1964.0,-8.588,-0.352,1.685,-0.192,0.007,1.047
1968.0,-8.707,-0.194,1.348,-0.288,-0.024,0.977
1972.0,-8.707,-0.194,1.348,-0.288,-0.024,0.977
1976.0,-9.62,0.106,1.321,-0.288,-0.024,0.907
1980.0,-9.62,0.106,1.321,-0.432,0.015,0.907
1984.0,-9.62,0.106,1.321,-0.432,0.015,0.907
1988.0,-11.24,0.377,1.468,-0.634,0.123,0.844
1992.0,-11.24,0.377,1.468,-0.634,0.123,0.844
1995.0,-11.24,0.381,1.601,-0.634,0.123,0.844
1999.0,-13.372,0.381,1.601,-0.889,0.21,0.834
2003.0,-13.372,0.381,1.601,-0.889,0.21,0.834
2007.0,-15.392,0.402,2.06,-1.18,0.246,0.885
2011.0,-15.392,0.402,2.06,-1.18,0.246,0.885
2015.0,-15.392,0.402,2.533,-1.18,0.246,0.885
2019.0,-16.778,0.336,2.533,-1.502,0.243,0.969
2023.0,-16.778,0.336,2.533,-1.502,0.243,0.969
2027.0,-16.856,0.2,2.894,-1.846,0.17,1.078
2031.0,-16.856,0.2,2.894,-1.846,0.17,1.078
2035.0,-16.856,0.2,2.894,-1.846,0.17,1.078
2038.0,-15.478,0.096,2.999,-2.208,0.035,1.183
2042.0,-15.478,0.096,2.999,-2.208,0.035,1.183
2046.0,-13.698,-0.057,2.559,-2.579,-0.097,1.229
2050.0,-13.698,-0.057,2.559,-2.579,-0.097,1.229
2054.0,-13.698,-0.057,2.559,-2.579,-0.097,1.229
2059.0,-12.505,-0.261,1.878,-2.915,-0.198,1.214
2063.0,-12.505,-0.261,1.878,-2.915,-0.198,1.214
2067.0,-11.642,-0.429,1.26,-3.189,-0.272,1.166
2071.0,-11.642,-0.429,1.26,-3.189,-0.272,1.166
2075.0,-10.933,-0.675,0.778,-3.189,-0.272,1.112
2079.0,-10.933,-0.675,0.778,-3.392,-0.317,1.112
2083.0,-10.933,-0.675,0.778,-3.392,-0.317,1.112
2087.0,-10.302,-0.973,0.541,-3.504,-0.336,1.068
2091.0,-10.302,-0.973,0.541,-3.504,-0.336,1.068
2095.0,-9.71,-1.222,0.619,-3.528,-0.339,1.048
2099.0,-9.71,-1.222,0.619,-3.528,-0.339,1.048
2103.0,-9.71,-1.222,0.619,-3.528,-0.339,1.048
2107.0,-9.186,-1.487,0.819,-3.484,-0.341,1.051
2111.0,-9.186,-1.487,0.819,-3.484,-0.341,1.051
2115.0,-8.777,-1.823,1.001,-3.389,-0.355,1.067
2119.0,-8.777,-1.823,1.001,-3.389,-0.355,1.067
2123.0,-8.777,-1.823,1.001,-3.389,-0.355,1.067
2127.0,-8.509,-2.17,1.135,-3.254,-0.375,1.082
2131.0,-8.509,-2.17,1.135,-3.254,-0.375,1.082
2135.0,-8.381,-2.486,1.258,-3.087,-0.395,1.092
2139.0,-8.381,-2.486,1.258,-3.087,-0.395,1.092
2143.0,-8.381,-2.486,1.258,-3.087,-0.395,1.092
2147.0,-8.344,-2.752,1.403,-2.896,-0.415,1.103
2151.0,-8.344,-2.752,1.403,-2.896,-0.415,1.103
2155.0,-8.317,-2.993,1.413,-2.687,-0.439,1.116
2159.0,-8.317,-2.993,1.413,-2.687,-0.439,1.116
2163.0,-8.317,-2.993,1.366,-2.687,-0.439,1.116
2167.0,-8.474,-3.152,1.366,-2.47,-0.452,1.127
2171.0,-8.474,-3.152,1.366,-2.47,-0.452,1.127
2175.0,-8.956,-3.249,1.403,-2.249,-0.439,1.133
2179.0,-8.956,-3.249,1.403,-2.249,-0.439,1.133
2183.0,-8.956,-3.287,1.515,-2.249,-0.439,1.133
2187.0,-9.451,-3.287,1.515,-2.022,-0.427,1.147
2191.0,-9.451,-3.287,1.515,-2.022,-0.427,1.147
2195.0,-9.675,-3.252,1.586,-1.792,-0.44,1.175
2199.0,-9.675,-3.252,1.586,-1.792,-0.44,1.175
2203.0,-9.751,-3.176,1.629,-1.792,-0.44,1.175
2207.0,-9.751,-3.176,1.629,-1.567,-0.47,1.208
2211.0,-9.751,-3.176,1.629,-1.567,-0.47,1.208
2215.0,-9.899,-3.05,1.573,-1.353,-0.492,1.233
2219.0,-9.899,-3.05,1.573,-1.353,-0.492,1.233
2223.0,-10.083,-2.904,1.437,-1.353,-0.492,1.248
2227.0,-10.083,-2.904,1.437,-1.159,-0.498,1.248
2231.0,-10.083,-2.904,1.437,-1.159,-0.498,1.248
2235.0,-10.273,-2.787,1.257,-0.994,-0.489,1.256
2239.0,-10.273,-2.787,1.257,-0.994,-0.489,1.256
2243.0,-10.464,-2.663,1.098,-0.862,-0.465,1.254
2247.0,-10.464,-2.663,1.098,-0.862,-0.465,1.254
2252.0,-10.464,-2.663,1.098,-0.862,-0.465,1.254
2256.0,-10.739,-2.555,0.93,-0.761,-0.425,1.241
2260.0,-10.739,-2.555,0.93,-0.761,-0.425,1.241
2264.0,-11.155,-2.484,0.842,-0.692,-0.364,1.221
2268.0,-11.155,-2.484,0.842,-0.692,-0.364,1.221
2272.0,-11.155,-2.412,0.847,-0.692,-0.364,1.221
2276.0,-11.708,-2.412,0.847,-0.65,-0.287,1.201
2280.0,-11.708,-2.412,0.847,-0.65,-0.287,1.201
2284.0,-12.076,-2.374,0.968,-0.637,-0.211,1.183
2288.0,-12.076,-2.374,0.968,-0.637,-0.211,1.183
2292.0,-12.112,-2.367,1.076,-0.646,-0.153,1.16
2296.0,-12.112,-2.367,1.076,-0.646,-0.153,1.16
2301.0,-12.112,-2.367,1.076,-0.646,-0.153,1.16
2305.0,-12.048,-2.358,1.178,-0.671,-0.102,1.119
2309.0,-12.048,-2.358,1.178,-0.671,-0.102,1.119
2313.0,-11.922,-2.317,1.343,-0.703,-0.044,1.052
2317.0,-11.922,-2.317,1.343,-0.703,-0.044,1.052
2321.0,-11.922,-2.317,1.343,-0.703,-0.044,1.052
2325.0,-11.544,-2.244,1.494,-0.736,0.009,0.965
2329.0,-11.544,-2.244,1.494,-0.736,0.009,0.965
2333.0,-11.075,-2.126,1.612,-0.772,0.046,0.865
2337.0,-11.075,-2.126,1.612,-0.772,0.046,0.865
2341.0,-11.075,-2.018,1.703,-0.772,0.046,0.865
2345.0,-10.592,-2.018,1.703,-0.811,0.08,0.755
2349.0,-10.592,-2.018,1.703,-0.811,0.08,0.755
2353.0,-9.961,-1.935,1.781,-0.843,0.103,0.639
2357.0,-9.961,-1.935,1.781,-0.843,0.103,0.639
2361.0,-9.961,-1.863,1.823,-0.843,0.103,0.639
2365.0,-9.195,-1.863,1.823,-0.861,0.105,0.52
2369.0,-9.195,-1.863,1.823,-0.861,0.105,0.52
2372.0,-8.404,-1.798,1.775,-0.861,0.089,0.396
2376.0,-8.404,-1.798,1.775,-0.861,0.089,0.396
2380.0,-8.404,-1.798,1.777,-0.861,0.089,0.396
2384.0,-7.707,-1.707,1.777,-0.845,0.074,0.272
2388.0,-7.707,-1.707,1.777,-0.845,0.074,0.272
2392.0,-7.149,-1.533,1.803,-0.821,0.054,0.152
2396.0,-7.149,-1.533,1.803,-0.821,0.054,0.152
2400.0,-7.149,-1.533,1.803,-0.821,0.054,0.152
2404.0,-6.704,-1.317,1.786,-0.807,0.025,0.045
2408.0,-6.704,-1.317,1.786,-0.807,0.025,0.045
2412.0,-6.425,-1.123,1.67,-0.821,-0.005,-0.05
2416.0,-6.425,-1.123,1.67,-0.821,-0.005,-0.05
2420.0,-6.425,-1.123,1.488,-0.821,-0.005,-0.05
2424.0,-6.303,-0.984,1.488,-0.87,-0.024,-0.13
2428.0,-6.303,-0.984,1.488,-0.87,-0.024,-0.13
2432.0,-6.455,-0.934,1.368,-0.955,-0.017,-0.196
2436.0,-6.455,-0.934,1.368,-0.955,-0.017,-0.196
2440.0,-6.842,-0.982,1.363,-0.955,-0.017,-0.24
2444.0,-6.842,-0.982,1.363,-1.065,0.012,-0.24
2448.0,-6.842,-0.982,1.363,-1.065,0.012,-0.24
2452.0,-7.346,-1.116,1.46,-1.184,0.041,-0.264
2456.0,-7.346,-1.116,1.46,-1.184,0.041,-0.264
2460.0,-7.746,-1.318,1.667,-1.294,0.054,-0.272
2464.0,-7.746,-1.318,1.667,-1.294,0.054,-0.272
2468.0,-7.746,-1.318,1.667,-1.294,0.054,-0.272
2472.0,-7.943,-1.531,1.849,-1.382,0.035,-0.272
2476.0,-7.943,-1.531,1.849,-1.382,0.035,-0.272
2480.0,-8.059,-1.705,1.873,-1.448,-0.004,-0.278
2484.0,-8.059,-1.705,1.873,-1.448,-0.004,-0.278
2488.0,-8.059,-1.705,1.873,-1.448,-0.004,-0.278
2492.0,-8.335,-1.829,1.762,-1.497,-0.03,-0.289
2496.0,-8.335,-1.829,1.762,-1.497,-0.03,-0.289
2501.0,-8.933,-1.942,1.641,-1.533,-0.013,-0.301
2505.0,-8.933,-1.942,1.641,-1.533,-0.013,-0.301
2509.0,-8.933,-1.942,1.685,-1.533,-0.013,-0.301
2513.0,-9.801,-2.069,1.685,-1.558,0.04,-0.297
2517.0,-9.801,-2.069,1.685,-1.558,0.04,-0.297
2521.0,-10.827,-2.27,1.881,-1.561,0.103,-0.275
2525.0,-10.827,-2.27,1.881,-1.561,0.103,-0.275
2529.0,-11.769,-2.538,2.143,-1.561,0.103,-0.239
2533.0,-11.769,-2.538,2.143,-1.53,0.147,-0.239
2537.0,-11.769,-2.538,2.143,-1.53,0.147,-0.239
2541.0,-12.413,-2.837,2.461,-1.453,0.159,-0.207
2545.0,-12.413,-2.837,2.461,-1.453,0.159,-0.207
2549.0,-12.494,-3.088,2.697,-1.321,0.138,-0.192
2553.0,-12.494,-3.088,2.697,-1.321,0.138,-0.192
2557.0,-12.494,-3.088,2.697,-1.321,0.138,-0.192
2562.0,-11.925,-3.242,2.782,-1.133,0.099,-0.208
2566.0,-11.925,-3.242,2.782,-1.133,0.099,-0.208
2570.0,-10.926,-3.26,2.874,-0.899,0.075,-0.264
2574.0,-10.926,-3.26,2.874,-0.899,0.075,-0.264
2578.0,-10.926,-3.26,3.532,-0.899,0.075,-0.264
2582.0,-9.264,-2.763,3.532,-0.621,0.121,-0.39
2586.0,-9.264,-2.763,3.532,-0.621,0.121,-0.39
2590.0,-7.862,-1.503,4.581,-0.344,0.286,-0.599
2594.0,-7.862,-1.503,4.581,-0.344,0.286,-0.599
2598.0,-8.634,-0.717,4.938,-0.344,0.286,-0.599
2602.0,-8.634,-0.717,4.938,-0.175,0.433,-0.792
2606.0,-8.634,-0.717,4.938,-0.175,0.433,-0.792
2610.0,-9.893,-1.247,4.451,-0.075,0.325,-0.85
2614.0,-9.893,-1.247,4.451,-0.075,0.325,-0.85
2618.0,-9.532,-1.976,3.915,-0.075,0.325,-0.875
2622.0,-9.532,-1.976,3.915,0.105,0.121,-0.875
2626.0,-9.532,-1.976,3.915,0.105,0.121,-0.875
2630.0,-8.399,-2.51,3.257,0.404,-0.01,-0.951
2634.0,-8.399,-2.51,3.257,0.404,-0.01,-0.951
2638.0,-7.267,-2.775,2.603,0.404,-0.074,-1.05
2642.0,-7.267,-2.775,2.603,0.768,-0.074,-1.05
2646.0,-7.267,-2.775,2.603,0.768,-0.074,-1.05
2650.0,-6.604,-2.821,1.958,1.143,-0.074,-1.132
2654.0,-6.604,-2.821,1.958,1.143,-0.074,-1.132
2658.0,-6.65,-2.793,1.363,1.493,-0.005,-1.178
2662.0,-6.65,-2.793,1.363,1.493,-0.005,-1.178
2666.0,-6.65,-2.793,1.363,1.493,-0.005,-1.178
2670.0,-7.502,-2.795,1.037,1.808,0.117,-1.179
2674.0,-7.502,-2.795,1.037,1.808,0.117,-1.179
2677.0,-8.808,-2.895,0.994,2.094,0.252,-1.129
2681.0,-8.808,-2.895,0.994,2.094,0.252,-1.129
2685.0,-8.808,-2.895,0.994,2.094,0.252,-1.129
2689.0,-10.231,-3.031,1.111,2.362,0.356,-1.031
2693.0,-10.231,-3.031,1.111,2.362,0.356,-1.031
2697.0,-11.526,-3.172,1.421,2.626,0.406,-0.898
2701.0,-11.526,-3.172,1.421,2.626,0.406,-0.898
2705.0,-11.526,-3.172,1.421,2.626,0.406,-0.898
2709.0,-12.154,-3.257,1.81,2.891,0.384,-0.744
2713.0,-12.154,-3.257,1.81,2.891,0.384,-0.744
2717.0,-11.63,-3.182,2.081,3.154,0.279,-0.595
2721.0,-11.63,-3.182,2.081,3.154,0.279,-0.595
2725.0,-11.63,-3.182,2.081,3.154,0.279,-0.595
2729.0,-10.388,-2.996,2.118,3.396,0.128,-0.482
2733.0,-10.388,-2.996,2.118,3.396,0.128,-0.482
2737.0,-9.282,-2.692,1.958,3.602,-0.008,-0.425
2741.0,-9.282,-2.692,1.958,3.602,-0.008,-0.425
2745.0,-9.282,-2.692,1.958,3.602,-0.008,-0.425
2749.0,-8.549,-2.298,1.661,3.765,-0.102,-0.407
2753.0,-8.549,-2.298,1.661,3.765,-0.102,-0.407
2757.0,-8.058,-1.863,1.302,3.876,-0.161,-0.404
2761.0,-8.058,-1.863,1.302,3.876,-0.161,-0.404
2765.0,-8.058,-1.863,1.302,3.876,-0.161,-0.404
2769.0,-7.739,-1.47,0.903,3.926,-0.201,-0.403
2773.0,-7.739,-1.47,0.903,3.926,-0.201,-0.403
2777.0,-7.647,-1.158,0.581,3.916,-0.223,-0.404
2781.0,-7.647,-1.158,0.581,3.916,-0.223,-0.404
2785.0,-7.647,-1.158,0.359,3.916,-0.223,-0.404
2789.0,-7.716,-0.913,0.359,3.856,-0.233,-0.408
2793.0,-7.716,-0.913,0.359,3.856,-0.233,-0.408
2797.0,-7.778,-0.748,0.142,3.757,-0.24,-0.411
2801.0,-7.778,-0.748,0.142,3.757,-0.24,-0.411
2805.0,-7.778,-0.639,-0.026,3.757,-0.24,-0.411
2809.0,-7.915,-0.639,-0.026,3.625,-0.236,-0.414
2813.0,-7.915,-0.639,-0.026,3.625,-0.236,-0.414
2817.0,-8.353,-0.55,-0.038,3.465,-0.209,-0.417
2821.0,-8.353,-0.55,-0.038,3.465,-0.209,-0.417
2825.0,-9.025,-0.476,-0.026,3.465,-0.164,-0.418
2829.0,-9.025,-0.476,-0.026,3.282,-0.164,-0.418
2834.0,-9.025,-0.476,-0.026,3.282,-0.164,-0.418
2838.0,-9.93,-0.418,-0.004,3.075,-0.105,-0.409
2842.0,-9.93,-0.418,-0.004,3.075,-0.105,-0.409
2846.0,-11.371,-0.363,0.252,2.84,-0.017,-0.384
2850.0,-11.371,-0.363,0.252,2.84,-0.017,-0.384
2854.0,-11.371,-0.363,0.252,2.84,-0.017,-0.384
2858.0,-13.056,-0.298,0.734,2.59,0.073,-0.335
2862.0,-13.056,-0.298,0.734,2.59,0.073,-0.335
2866.0,-13.866,-0.287,1.149,2.331,0.099,-0.249
2870.0,-13.866,-0.287,1.149,2.331,0.099,-0.249
2874.0,-13.866,-0.287,1.393,2.331,0.099,-0.249
2878.0,-13.789,-0.385,1.393,2.066,0.052,-0.144
2882.0,-13.789,-0.385,1.393,2.066,0.052,-0.144
2886.0,-13.766,-0.459,1.469,1.8,0.002,-0.068
2890.0,-13.766,-0.459,1.469,1.8,0.002,-0.068
2894.0,-13.36,-0.38,1.369,1.8,0.002,-0.068
2898.0,-13.36,-0.38,1.369,1.541,-0.027,-0.037
2902.0,-13.36,-0.38,1.369,1.541,-0.027,-0.037
2906.0,-12.094,-0.215,1.179,1.284,-0.067,-0.031
2910.0,-12.094,-0.215,1.179,1.284,-0.067,-0.031
2914.0,-10.835,-0.088,1.015,1.284,-0.108,-0.049
2918.0,-10.835,-0.088,1.015,1.019,-0.108,-0.049
2922.0,-10.835,-0.088,1.015,1.019,-0.108,-0.049
2926.0,-9.844,0.042,0.843,0.753,-0.125,-0.104
2930.0,-9.844,0.042,0.843,0.753,-0.125,-0.104
2934.0,-9.017,0.149,0.695,0.497,-0.124,-0.186
2938.0,-9.017,0.149,0.695,0.497,-0.124,-0.186
2942.0,-9.017,0.149,0.695,0.497,-0.124,-0.186
2946.0,-8.398,0.197,0.653,0.253,-0.105,-0.278
2950.0,-8.398,0.197,0.653,0.253,-0.105,-0.278
2954.0,-8.006,0.141,0.645,0.032,-0.075,-0.37
2958.0,-8.006,0.141,0.645,0.032,-0.075,-0.37
2962.0,-8.006,0.141,0.645,0.032,-0.075,-0.37
2966.0,-7.824,0.039,0.692,-0.16,-0.033,-0.454
2970.0,-7.824,0.039,0.692,-0.16,-0.033,-0.454
2974.0,-7.874,-0.043,0.848,-0.323,0.015,-0.527
2978.0,-7.874,-0.043,0.848,-0.323,0.015,-0.527
2982.0,-7.874,-0.043,0.848,-0.323,0.015,-0.527
2985.0,-8.014,-0.217,1.044,-0.455,0.058,-0.576
2989.0,-8.014,-0.217,1.044,-0.455,0.058,-0.576
2993.0,-8.1,-0.418,1.226,-0.557,0.083,-0.6
2997.0,-8.1,-0.418,1.226,-0.557,0.083,-0.6
