deltaTime,Acc_X,Acc_Y,Acc_Z,Gyro_X,Gyro_Y,Gyro_Z
0.0,-9.785,-1.644,2.56,0.354,-0.03,0.075
3.0,-9.785,-1.644,2.56,0.354,-0.03,0.075
6.0,-9.785,-1.644,2.63,0.354,-0.03,0.075
9.0,-9.741,-1.478,2.63,0.549,-0.051,0.031
12.0,-9.741,-1.478,2.63,0.549,-0.051,0.031
15.0,-9.741,-1.478,2.63,0.549,-0.051,0.031
18.0,-9.206,-1.052,2.442,0.699,-0.092,0.002
21.0,-9.206,-1.052,2.442,0.699,-0.092,0.002
24.0,-9.206,-1.052,2.442,0.699,-0.092,0.002
27.0,-8.789,-0.296,2.228,0.754,-0.142,-0.034
30.0,-8.789,-0.296,2.228,0.754,-0.142,-0.034
33.0,-8.789,-0.296,2.228,0.754,-0.142,-0.034
36.0,-8.898,0.066,2.151,0.754,-0.142,-0.062
40.0,-8.898,0.066,2.151,0.687,-0.174,-0.062
44.0,-8.898,0.066,2.151,0.687,-0.174,-0.062
48.0,-8.886,0.074,1.914,0.571,-0.203,-0.056
51.0,-8.886,0.074,1.914,0.571,-0.203,-0.056
55.0,-8.886,0.074,1.914,0.571,-0.203,-0.056
59.0,-9.072,0.203,1.674,0.426,-0.198,-0.035
63.0,-9.072,0.203,1.674,0.426,-0.198,-0.035
66.0,-9.176,0.601,1.875,0.426,-0.17,-0.012
70.0,-9.176,0.601,1.875,0.228,-0.17,-0.012
74.0,-9.176,0.601,1.875,0.228,-0.17,-0.012
77.0,-8.909,0.858,1.947,-0.037,-0.161,0.017
81.0,-8.909,0.858,1.947,-0.037,-0.161,0.017
85.0,-8.909,0.858,1.947,-0.037,-0.161,0.017
89.0,-8.795,0.713,1.817,-0.35,-0.147,0.059
92.0,-8.795,0.713,1.817,-0.35,-0.147,0.059
96.0,-9.325,0.331,1.888,-0.66,-0.094,0.111
100.0,-9.325,0.331,1.888,-0.66,-0.094,0.111
104.0,-9.325,0.331,1.888,-0.66,-0.094,0.111
107.0,-9.856,-0.004,2.178,-0.922,-0.046,0.176
111.0,-9.856,-0.004,2.178,-0.922,-0.046,0.176
115.0,-10.02,-0.182,2.296,-0.922,-0.046,0.176
119.0,-10.02,-0.182,2.296,-1.126,-0.046,0.241
123.0,-10.02,-0.182,2.296,-1.126,-0.046,0.241
127.0,-10.1,-0.431,2.005,-1.297,-0.056,0.29
131.0,-10.1,-0.431,2.005,-1.297,-0.056,0.29
135.0,-10.475,-0.308,2.226,-1.297,-0.016,0.316
139.0,-10.475,-0.308,2.226,-1.462,-0.016,0.316
143.0,-10.475,-0.308,2.226,-1.462,-0.016,0.316
147.0,-10.594,-0.163,2.628,-1.622,0.002,0.339
151.0,-10.594,-0.163,2.628,-1.622,0.002,0.339
155.0,-10.443,-0.278,2.573,-1.622,-0.036,0.365
159.0,-10.443,-0.278,2.573,-1.751,-0.036,0.365
163.0,-10.443,-0.278,2.573,-1.751,-0.036,0.365
167.0,-10.616,-0.467,2.554,-1.834,-0.04,0.372
171.0,-10.616,-0.467,2.554,-1.834,-0.04,0.372
175.0,-11.099,-0.485,2.734,-1.883,0.001,0.373
179.0,-11.099,-0.485,2.734,-1.883,0.001,0.373
183.0,-11.099,-0.485,2.734,-1.883,0.001,0.373
187.0,-11.471,-0.473,2.902,-1.937,0.034,0.364
191.0,-11.471,-0.473,2.902,-1.937,0.034,0.364
195.0,-11.862,-0.723,3.077,-1.937,0.051,0.359
198.0,-11.862,-0.723,3.077,-1.987,0.051,0.359
202.0,-11.862,-0.723,3.077,-1.987,0.051,0.359
206.0,-12.014,-0.994,3.39,-1.985,0.047,0.361
210.0,-12.014,-0.994,3.39,-1.985,0.047,0.361
214.0,-11.76,-1.297,3.517,-1.985,0.047,0.369
218.0,-11.76,-1.297,3.517,-1.912,0.006,0.369
222.0,-11.76,-1.297,3.517,-1.912,0.006,0.369
226.0,-11.347,-1.513,3.333,-1.784,-0.078,0.38
230.0,-11.347,-1.513,3.333,-1.784,-0.078,0.38
234.0,-11.109,-1.613,3.126,-1.784,-0.078,0.383
238.0,-11.109,-1.613,3.126,-1.631,-0.169,0.383
242.0,-11.109,-1.613,3.126,-1.631,-0.169,0.383
246.0,-10.83,-1.576,3.017,-1.465,-0.249,0.354
250.0,-10.83,-1.576,3.017,-1.465,-0.249,0.354
254.0,-10.288,-1.158,2.788,-1.465,-0.313,0.293
258.0,-10.288,-1.158,2.788,-1.319,-0.313,0.293
262.0,-10.288,-1.158,2.788,-1.319,-0.313,0.293
266.0,-10.061,-0.94,2.518,-1.24,-0.372,0.209
270.0,-10.061,-0.94,2.518,-1.24,-0.372,0.209
274.0,-9.851,-0.894,2.277,-1.201,-0.447,0.156
278.0,-9.851,-0.894,2.277,-1.201,-0.447,0.156
282.0,-9.851,-0.894,2.277,-1.201,-0.447,0.156
285.0,-9.559,-0.854,2.088,-1.173,-0.516,0.125
289.0,-9.559,-0.854,2.088,-1.173,-0.516,0.125
293.0,-9.189,-0.849,1.973,-1.173,-0.561,0.1
297.0,-9.189,-0.849,1.973,-1.157,-0.561,0.1
301.0,-9.189,-0.849,1.973,-1.157,-0.561,0.1
305.0,-8.913,-0.899,1.836,-1.152,-0.581,0.087
309.0,-8.913,-0.899,1.836,-1.152,-0.581,0.087
313.0,-8.918,-0.965,1.697,-1.152,-0.581,0.09
317.0,-8.918,-0.965,1.697,-1.155,-0.584,0.09
321.0,-8.918,-0.965,1.697,-1.155,-0.584,0.09
325.0,-9.038,-1.002,1.645,-1.167,-0.574,0.108
328.0,-9.038,-1.002,1.645,-1.167,-0.574,0.108
332.0,-9.191,-1.035,1.543,-1.167,-0.574,0.108
336.0,-9.191,-1.035,1.543,-1.189,-0.564,0.136
340.0,-9.191,-1.035,1.543,-1.189,-0.564,0.136
344.0,-9.427,-1.034,1.558,-1.22,-0.547,0.174
348.0,-9.427,-1.034,1.558,-1.22,-0.547,0.174
352.0,-9.427,-1.125,1.586,-1.22,-0.547,0.174
356.0,-9.711,-1.125,1.586,-1.259,-0.527,0.226
360.0,-9.711,-1.125,1.586,-1.259,-0.527,0.226
364.0,-9.904,-1.221,1.503,-1.305,-0.507,0.291
367.0,-9.904,-1.221,1.503,-1.305,-0.507,0.291
371.0,-9.904,-1.221,1.451,-1.305,-0.507,0.291
375.0,-9.965,-1.281,1.451,-1.355,-0.484,0.365
379.0,-9.965,-1.281,1.451,-1.355,-0.484,0.365
383.0,-9.968,-1.296,1.512,-1.412,-0.461,0.444
387.0,-9.968,-1.296,1.512,-1.412,-0.461,0.444
391.0,-9.968,-1.296,1.512,-1.412,-0.461,0.444
395.0,-9.923,-1.391,1.552,-1.469,-0.443,0.525
399.0,-9.923,-1.391,1.552,-1.469,-0.443,0.525
403.0,-10.047,-1.451,1.562,-1.524,-0.423,0.599
407.0,-10.047,-1.451,1.562,-1.524,-0.423,0.599
411.0,-10.047,-1.451,1.562,-1.524,-0.423,0.599
415.0,-10.162,-1.415,1.495,-1.575,-0.403,0.661
419.0,-10.162,-1.415,1.495,-1.575,-0.403,0.661
423.0,-10.15,-1.349,1.393,-1.628,-0.389,0.711
427.0,-10.15,-1.349,1.393,-1.628,-0.389,0.711
431.0,-10.15,-1.349,1.298,-1.628,-0.389,0.711
435.0,-9.97,-1.281,1.298,-1.68,-0.378,0.751
438.0,-9.97,-1.281,1.298,-1.68,-0.378,0.751
442.0,-9.847,-1.26,1.131,-1.729,-0.363,0.781
446.0,-9.847,-1.26,1.131,-1.729,-0.363,0.781
450.0,-9.847,-1.26,1.131,-1.729,-0.363,0.781
454.0,-9.923,-1.25,0.991,-1.773,-0.329,0.797
458.0,-9.923,-1.25,0.991,-1.773,-0.329,0.797
462.0,-10.015,-1.279,0.913,-1.81,-0.287,0.803
466.0,-10.015,-1.279,0.913,-1.81,-0.287,0.803
470.0,-10.015,-1.279,0.913,-1.81,-0.287,0.803
474.0,-10.186,-1.344,0.872,-1.84,-0.247,0.806
478.0,-10.186,-1.344,0.872,-1.84,-0.247,0.806
482.0,-10.456,-1.406,0.94,-1.86,-0.21,0.808
486.0,-10.456,-1.406,0.94,-1.86,-0.21,0.808
490.0,-10.456,-1.406,1.037,-1.86,-0.21,0.808
494.0,-10.662,-1.488,1.037,-1.861,-0.189,0.807
498.0,-10.662,-1.488,1.037,-1.861,-0.189,0.807
502.0,-10.76,-1.563,1.077,-1.848,-0.186,0.798
506.0,-10.76,-1.563,1.077,-1.848,-0.186,0.798
510.0,-10.76,-1.566,1.088,-1.848,-0.186,0.798
514.0,-10.756,-1.566,1.088,-1.824,-0.194,0.775
518.0,-10.756,-1.566,1.088,-1.824,-0.194,0.775
522.0,-10.551,-1.554,1.115,-1.797,-0.21,0.739
526.0,-10.551,-1.554,1.115,-1.797,-0.21,0.739
530.0,-10.25,-1.552,1.075,-1.797,-0.21,0.739
534.0,-10.25,-1.552,1.075,-1.769,-0.228,0.693
538.0,-10.25,-1.552,1.075,-1.769,-0.228,0.693
542.0,-10.15,-1.551,0.906,-1.741,-0.234,0.636
546.0,-10.15,-1.551,0.906,-1.741,-0.234,0.636
550.0,-10.306,-1.527,0.801,-1.741,-0.234,0.571
554.0,-10.306,-1.527,0.801,-1.712,-0.211,0.571
558.0,-10.306,-1.527,0.801,-1.712,-0.211,0.571
562.0,-10.543,-1.51,0.808,-1.68,-0.176,0.508
566.0,-10.543,-1.51,0.808,-1.68,-0.176,0.508
570.0,-10.704,-1.527,0.848,-1.68,-0.147,0.459
574.0,-10.704,-1.527,0.848,-1.642,-0.147,0.459
578.0,-10.704,-1.527,0.848,-1.642,-0.147,0.459
582.0,-10.772,-1.548,0.969,-1.596,-0.124,0.419
586.0,-10.772,-1.548,0.969,-1.596,-0.124,0.419
590.0,-10.714,-1.574,1.085,-1.541,-0.111,0.383
594.0,-10.714,-1.574,1.085,-1.541,-0.111,0.383
598.0,-10.714,-1.574,1.085,-1.541,-0.111,0.383
602.0,-10.402,-1.568,1.223,-1.479,-0.112,0.35
606.0,-10.402,-1.568,1.223,-1.479,-0.112,0.35
610.0,-9.924,-1.578,1.268,-1.413,-0.126,0.318
614.0,-9.924,-1.578,1.268,-1.413,-0.126,0.318
617.0,-9.924,-1.578,1.268,-1.413,-0.126,0.318
621.0,-9.611,-1.586,1.198,-1.345,-0.134,0.285
625.0,-9.611,-1.586,1.198,-1.345,-0.134,0.285
629.0,-9.566,-1.569,1.056,-1.276,-0.119,0.254
633.0,-9.566,-1.569,1.056,-1.276,-0.119,0.254
637.0,-9.566,-1.569,1.056,-1.276,-0.119,0.254
641.0,-9.75,-1.557,1.014,-1.208,-0.088,0.234
645.0,-9.75,-1.557,1.014,-1.208,-0.088,0.234
649.0,-9.979,-1.571,0.963,-1.138,-0.055,0.233
653.0,-9.979,-1.571,0.963,-1.138,-0.055,0.233
657.0,-9.979,-1.571,0.963,-1.138,-0.055,0.233
660.0,-10.274,-1.604,0.971,-1.07,-0.018,0.25
664.0,-10.274,-1.604,0.971,-1.07,-0.018,0.25
668.0,-10.563,-1.656,1.073,-1.07,0.02,0.284
672.0,-10.563,-1.656,1.073,-1.002,0.02,0.284
676.0,-10.563,-1.656,1.073,-1.002,0.02,0.284
680.0,-10.757,-1.688,1.22,-0.934,0.05,0.334
684.0,-10.757,-1.688,1.22,-0.934,0.05,0.334
688.0,-10.729,-1.749,1.351,-0.934,0.05,0.397
692.0,-10.729,-1.749,1.351,-0.864,0.065,0.397
696.0,-10.729,-1.749,1.351,-0.864,0.065,0.397
700.0,-10.558,-1.799,1.443,-0.793,0.069,0.461
704.0,-10.558,-1.799,1.443,-0.793,0.069,0.461
707.0,-10.299,-1.776,1.528,-0.793,0.069,0.461
711.0,-10.299,-1.776,1.528,-0.72,0.066,0.517
715.0,-10.299,-1.776,1.528,-0.72,0.066,0.517
719.0,-9.998,-1.714,1.528,-0.653,0.058,0.56
723.0,-9.998,-1.714,1.528,-0.653,0.058,0.56
727.0,-9.998,-1.714,1.409,-0.653,0.058,0.56
731.0,-9.704,-1.619,1.409,-0.594,0.05,0.588
734.0,-9.704,-1.619,1.409,-0.594,0.05,0.588
738.0,-9.676,-1.464,1.266,-0.55,0.054,0.604
742.0,-9.676,-1.464,1.266,-0.55,0.054,0.604
746.0,-9.676,-1.464,1.266,-0.55,0.054,0.604
750.0,-9.957,-1.33,1.176,-0.522,0.074,0.616
754.0,-9.957,-1.33,1.176,-0.522,0.074,0.616
757.0,-10.328,-1.251,1.28,-0.507,0.097,0.639
761.0,-10.328,-1.251,1.28,-0.507,0.097,0.639
765.0,-10.328,-1.251,1.28,-0.507,0.097,0.639
769.0,-10.442,-1.271,1.397,-0.499,0.097,0.677
773.0,-10.442,-1.271,1.397,-0.499,0.097,0.677
777.0,-10.516,-1.309,1.463,-0.499,0.078,0.715
781.0,-10.516,-1.309,1.463,-0.49,0.078,0.715
785.0,-10.516,-1.309,1.463,-0.49,0.078,0.715
789.0,-10.716,-1.317,1.545,-0.483,0.054,0.741
793.0,-10.716,-1.317,1.545,-0.483,0.054,0.741
796.0,-10.62,-1.329,1.576,-0.483,0.054,0.763
800.0,-10.62,-1.329,1.576,-0.48,0.014,0.763
804.0,-10.62,-1.329,1.576,-0.48,0.014,0.763
808.0,-10.358,-1.317,1.515,-0.486,-0.04,0.776
812.0,-10.358,-1.317,1.515,-0.486,-0.04,0.776
816.0,-10.327,-1.25,1.483,-0.486,-0.04,0.777
820.0,-10.327,-1.25,1.483,-0.499,-0.084,0.777
824.0,-10.327,-1.25,1.483,-0.499,-0.084,0.777
828.0,-10.456,-1.2,1.432,-0.519,-0.121,0.768
832.0,-10.456,-1.2,1.432,-0.519,-0.121,0.768
836.0,-10.632,-1.186,1.244,-0.519,-0.162,0.755
840.0,-10.632,-1.186,1.244,-0.548,-0.162,0.755
844.0,-10.632,-1.186,1.244,-0.548,-0.162,0.755
848.0,-11.003,-1.167,1.044,-0.588,-0.189,0.735
852.0,-11.003,-1.167,1.044,-0.588,-0.189,0.735
856.0,-11.596,-1.153,0.978,-0.638,-0.194,0.712
860.0,-11.596,-1.153,0.978,-0.638,-0.194,0.712
864.0,-11.596,-1.153,0.978,-0.638,-0.194,0.712
868.0,-12.194,-1.192,0.93,-0.69,-0.191,0.694
872.0,-12.194,-1.192,0.93,-0.69,-0.191,0.694
876.0,-12.674,-1.238,0.943,-0.742,-0.191,0.684
880.0,-12.674,-1.238,0.943,-0.742,-0.191,0.684
884.0,-12.674,-1.238,0.943,-0.742,-0.191,0.684
888.0,-13.07,-1.285,0.983,-0.789,-0.192,0.677
892.0,-13.07,-1.285,0.983,-0.789,-0.192,0.677
896.0,-13.21,-1.3,1.09,-0.834,-0.197,0.673
900.0,-13.21,-1.3,1.09,-0.834,-0.197,0.673
904.0,-13.21,-1.3,1.09,-0.834,-0.197,0.673
908.0,-12.951,-1.369,1.137,-0.876,-0.212,0.673
912.0,-12.951,-1.369,1.137,-0.876,-0.212,0.673
916.0,-12.461,-1.375,1.208,-0.917,-0.225,0.667
920.0,-12.461,-1.375,1.208,-0.917,-0.225,0.667
924.0,-12.461,-1.375,1.208,-0.917,-0.225,0.667
928.0,-11.867,-1.366,1.183,-0.953,-0.236,0.652
932.0,-11.867,-1.366,1.183,-0.953,-0.236,0.652
936.0,-11.385,-1.359,1.087,-0.982,-0.242,0.63
940.0,-11.385,-1.359,1.087,-0.982,-0.242,0.63
944.0,-11.385,-1.359,1.098,-0.982,-0.242,0.63
948.0,-11.021,-1.342,1.098,-1.004,-0.235,0.607
952.0,-11.021,-1.342,1.098,-1.004,-0.235,0.607
956.0,-10.58,-1.356,1.15,-1.013,-0.23,0.588
960.0,-10.58,-1.356,1.15,-1.013,-0.23,0.588
964.0,-10.58,-1.42,1.075,-1.013,-0.23,0.588
968.0,-10.069,-1.42,1.075,-1.008,-0.233,0.572
972.0,-10.069,-1.42,1.075,-1.008,-0.233,0.572
976.0,-9.72,-1.473,1.015,-0.991,-0.222,0.547
980.0,-9.72,-1.473,1.015,-0.991,-0.222,0.547
984.0,-9.658,-1.507,1.131,-0.991,-0.222,0.547
988.0,-9.658,-1.507,1.131,-0.961,-0.199,0.52
992.0,-9.658,-1.507,1.131,-0.961,-0.199,0.52
995.0,-9.696,-1.612,1.167,-0.915,-0.184,0.505
999.0,-9.696,-1.612,1.167,-0.915,-0.184,0.505
1003.0,-9.696,-1.612,1.234,-0.915,-0.184,0.505
1007.0,-9.946,-1.689,1.234,-0.851,-0.165,0.505
1011.0,-9.946,-1.689,1.234,-0.851,-0.165,0.505
1015.0,-10.355,-1.775,1.323,-0.772,-0.149,0.52
1019.0,-10.355,-1.775,1.323,-0.772,-0.149,0.52
1023.0,-10.716,-1.858,1.463,-0.772,-0.149,0.52
1027.0,-10.716,-1.858,1.463,-0.68,-0.145,0.554
1032.0,-10.716,-1.858,1.463,-0.68,-0.145,0.554
1036.0,-10.928,-1.966,1.615,-0.577,-0.156,0.603
1040.0,-10.928,-1.966,1.615,-0.577,-0.156,0.603
1044.0,-11.005,-2.051,1.717,-0.465,-0.182,0.656
1048.0,-11.005,-2.051,1.717,-0.465,-0.182,0.656
1052.0,-11.005,-2.051,1.717,-0.465,-0.182,0.656
1056.0,-10.996,-2.051,1.674,-0.345,-0.217,0.697
1060.0,-10.996,-2.051,1.674,-0.345,-0.217,0.697
1064.0,-10.808,-1.965,1.592,-0.226,-0.251,0.72
1068.0,-10.808,-1.965,1.592,-0.226,-0.251,0.72
1072.0,-10.808,-1.965,1.583,-0.226,-0.251,0.72
1076.0,-10.379,-1.792,1.583,-0.116,-0.283,0.727
1080.0,-10.379,-1.792,1.583,-0.116,-0.283,0.727
1085.0,-9.952,-1.591,1.589,-0.02,-0.311,0.72
1089.0,-9.952,-1.591,1.589,-0.02,-0.311,0.72
1093.0,-9.668,-1.414,1.604,-0.02,-0.311,0.703
1097.0,-9.668,-1.414,1.604,0.065,-0.333,0.703
1100.0,-9.668,-1.414,1.604,0.065,-0.333,0.703
1104.0,-9.467,-1.303,1.589,0.139,-0.356,0.683
1108.0,-9.467,-1.303,1.589,0.139,-0.356,0.683
1112.0,-9.286,-1.203,1.612,0.139,-0.356,0.683
1116.0,-9.286,-1.203,1.612,0.201,-0.383,0.66
1120.0,-9.286,-1.203,1.612,0.201,-0.383,0.66
1124.0,-9.179,-1.126,1.628,0.251,-0.412,0.634
1128.0,-9.179,-1.126,1.628,0.251,-0.412,0.634
1132.0,-9.179,-1.04,1.729,0.251,-0.412,0.634
1136.0,-9.067,-1.04,1.729,0.29,-0.444,0.604
1140.0,-9.067,-1.04,1.729,0.29,-0.444,0.604
1143.0,-8.886,-0.954,1.778,0.318,-0.486,0.571
1147.0,-8.886,-0.954,1.778,0.318,-0.486,0.571
1151.0,-8.886,-0.954,1.817,0.318,-0.486,0.571
1155.0,-8.783,-0.853,1.817,0.332,-0.533,0.534
1159.0,-8.783,-0.853,1.817,0.332,-0.533,0.534
1163.0,-8.843,-0.74,1.795,0.33,-0.579,0.496
1167.0,-8.843,-0.74,1.795,0.33,-0.579,0.496
1171.0,-8.843,-0.74,1.795,0.33,-0.579,0.496
1175.0,-9.197,-0.663,1.741,0.31,-0.616,0.464
1179.0,-9.197,-0.663,1.741,0.31,-0.616,0.464
1182.0,-9.735,-0.601,1.631,0.275,-0.643,0.44
1186.0,-9.735,-0.601,1.631,0.275,-0.643,0.44
1190.0,-9.735,-0.601,1.631,0.275,-0.643,0.44
1194.0,-10.339,-0.54,1.598,0.226,-0.654,0.425
1198.0,-10.339,-0.54,1.598,0.226,-0.654,0.425
1202.0,-10.772,-0.487,1.66,0.167,-0.663,0.421
1206.0,-10.772,-0.487,1.66,0.167,-0.663,0.421
1210.0,-10.772,-0.487,1.66,0.167,-0.663,0.421
1214.0,-10.963,-0.441,1.793,0.103,-0.681,0.427
1218.0,-10.963,-0.441,1.793,0.103,-0.681,0.427
1222.0,-10.936,-0.366,1.968,0.036,-0.707,0.439
1226.0,-10.936,-0.366,1.968,0.036,-0.707,0.439
1230.0,-10.936,-0.366,2.173,0.036,-0.707,0.439
1234.0,-10.529,-0.315,2.173,-0.03,-0.743,0.452
1238.0,-10.529,-0.315,2.173,-0.03,-0.743,0.452
1242.0,-9.918,-0.3,2.208,-0.093,-0.793,0.456
1246.0,-9.918,-0.3,2.208,-0.093,-0.793,0.456
1250.0,-9.603,-0.243,2.116,-0.093,-0.793,0.456
1254.0,-9.603,-0.243,2.116,-0.154,-0.827,0.444
1258.0,-9.603,-0.243,2.116,-0.154,-0.827,0.444
1262.0,-9.456,-0.153,2.042,-0.215,-0.836,0.422
1266.0,-9.456,-0.153,2.042,-0.215,-0.836,0.422
1270.0,-9.197,-0.038,2.042,-0.215,-0.836,0.401
1274.0,-9.197,-0.038,2.042,-0.275,-0.837,0.401
1278.0,-9.197,-0.038,2.042,-0.275,-0.837,0.401
1282.0,-8.95,0.068,2.044,-0.335,-0.835,0.383
1286.0,-8.95,0.068,2.044,-0.335,-0.835,0.383
1290.0,-8.78,0.252,2.164,-0.335,-0.835,0.371
1294.0,-8.78,0.252,2.164,-0.389,-0.822,0.371
1298.0,-8.78,0.252,2.164,-0.389,-0.822,0.371
1302.0,-8.523,0.53,2.283,-0.434,-0.812,0.386
1306.0,-8.523,0.53,2.283,-0.434,-0.812,0.386
1310.0,-8.081,0.791,2.289,-0.434,-0.812,0.386
1313.0,-8.081,0.791,2.289,-0.473,-0.811,0.447
1317.0,-8.081,0.791,2.289,-0.473,-0.811,0.447
1321.0,-7.668,1.001,2.164,-0.504,-0.795,0.553
1325.0,-7.668,1.001,2.164,-0.504,-0.795,0.553
1329.0,-7.668,1.082,2.056,-0.504,-0.795,0.553
1333.0,-7.348,1.082,2.056,-0.526,-0.744,0.69
1337.0,-7.348,1.082,2.056,-0.526,-0.744,0.69
1341.0,-7.071,1.005,2.046,-0.544,-0.664,0.844
1345.0,-7.071,1.005,2.046,-0.544,-0.664,0.844
1349.0,-7.071,1.005,2.126,-0.544,-0.664,0.844
1353.0,-6.968,0.775,2.126,-0.565,-0.572,0.998
1356.0,-6.968,0.775,2.126,-0.565,-0.572,0.998
1360.0,-7.148,0.428,2.187,-0.589,-0.48,1.13
1364.0,-7.148,0.428,2.187,-0.589,-0.48,1.13
1368.0,-7.148,0.428,2.187,-0.589,-0.48,1.13
1372.0,-7.71,0.105,2.203,-0.622,-0.395,1.229
1376.0,-7.71,0.105,2.203,-0.622,-0.395,1.229
1380.0,-8.277,-0.124,2.29,-0.661,-0.326,1.295
1384.0,-8.277,-0.124,2.29,-0.661,-0.326,1.295
1388.0,-8.277,-0.124,2.29,-0.661,-0.326,1.295
1392.0,-8.495,-0.264,2.443,-0.705,-0.292,1.336
1396.0,-8.495,-0.264,2.443,-0.705,-0.292,1.336
1400.0,-8.654,-0.409,2.457,-0.74,-0.289,1.359
1404.0,-8.654,-0.409,2.457,-0.74,-0.289,1.359
1408.0,-8.654,-0.409,2.365,-0.74,-0.289,1.359
1412.0,-9.051,-0.513,2.365,-0.757,-0.282,1.36
1416.0,-9.051,-0.513,2.365,-0.757,-0.282,1.36
1420.0,-9.484,-0.539,2.337,-0.749,-0.264,1.354
1424.0,-9.484,-0.539,2.337,-0.749,-0.264,1.354
1428.0,-9.484,-0.594,2.276,-0.749,-0.264,1.354
1432.0,-9.906,-0.594,2.276,-0.723,-0.253,1.359
1436.0,-9.906,-0.594,2.276,-0.723,-0.253,1.359
1440.0,-10.278,-0.622,2.212,-0.68,-0.24,1.369
1444.0,-10.278,-0.622,2.212,-0.68,-0.24,1.369
1448.0,-10.515,-0.642,2.192,-0.68,-0.24,1.378
1452.0,-10.515,-0.642,2.192,-0.627,-0.225,1.378
1456.0,-10.515,-0.642,2.192,-0.627,-0.225,1.378
1460.0,-10.484,-0.654,2.212,-0.571,-0.214,1.378
1464.0,-10.484,-0.654,2.212,-0.571,-0.214,1.378
1468.0,-10.234,-0.687,2.16,-0.515,-0.211,1.366
1472.0,-10.234,-0.687,2.16,-0.515,-0.211,1.366
1476.0,-10.234,-0.687,2.16,-0.515,-0.211,1.366
1481.0,-10.01,-0.742,2.094,-0.467,-0.198,1.34
1485.0,-10.01,-0.742,2.094,-0.467,-0.198,1.34
1489.0,-9.723,-0.799,2.122,-0.427,-0.167,1.297
1493.0,-9.723,-0.799,2.122,-0.427,-0.167,1.297
1497.0,-9.723,-0.799,2.229,-0.427,-0.167,1.297
1501.0,-9.256,-0.904,2.229,-0.394,-0.138,1.248
1505.0,-9.256,-0.904,2.229,-0.394,-0.138,1.248
1509.0,-8.749,-0.989,2.275,-0.367,-0.116,1.191
1513.0,-8.749,-0.989,2.275,-0.367,-0.116,1.191
1517.0,-8.749,-1.099,2.263,-0.367,-0.116,1.191
1521.0,-8.445,-1.099,2.263,-0.351,-0.09,1.13
1525.0,-8.445,-1.099,2.263,-0.351,-0.09,1.13
1529.0,-8.347,-1.17,2.263,-0.345,-0.053,1.072
1533.0,-8.347,-1.17,2.263,-0.345,-0.053,1.072
1537.0,-8.406,-1.196,2.299,-0.345,-0.053,1.072
1541.0,-8.406,-1.196,2.299,-0.349,-0.011,1.026
1545.0,-8.406,-1.196,2.299,-0.349,-0.011,1.026
1549.0,-8.454,-1.224,2.378,-0.365,0.023,1.002
1553.0,-8.454,-1.224,2.378,-0.365,0.023,1.002
1556.0,-8.538,-1.284,2.329,-0.365,0.023,1.002
1560.0,-8.538,-1.284,2.329,-0.39,0.05,1.002
1564.0,-8.538,-1.284,2.329,-0.39,0.05,1.002
1568.0,-8.724,-1.363,2.27,-0.425,0.089,1.018
1572.0,-8.724,-1.363,2.27,-0.425,0.089,1.018
1576.0,-8.752,-1.463,2.329,-0.425,0.089,1.018
1580.0,-8.752,-1.463,2.329,-0.466,0.138,1.045
1584.0,-8.752,-1.463,2.329,-0.466,0.138,1.045
1588.0,-8.578,-1.58,2.396,-0.502,0.175,1.078
1592.0,-8.578,-1.58,2.396,-0.502,0.175,1.078
1596.0,-8.578,-1.58,2.39,-0.502,0.175,1.078
1599.0,-8.518,-1.706,2.39,-0.536,0.213,1.108
1603.0,-8.518,-1.706,2.39,-0.536,0.213,1.108
1607.0,-8.649,-1.802,2.392,-0.562,0.262,1.128
1611.0,-8.649,-1.802,2.392,-0.562,0.262,1.128
1615.0,-8.649,-1.802,2.392,-0.562,0.262,1.128
1619.0,-8.824,-1.894,2.46,-0.578,0.309,1.143
1623.0,-8.824,-1.894,2.46,-0.578,0.309,1.143
1627.0,-9.042,-2.011,2.49,-0.579,0.344,1.153
1631.0,-9.042,-2.011,2.49,-0.579,0.344,1.153
1635.0,-9.042,-2.011,2.49,-0.579,0.344,1.153
1638.0,-9.494,-2.133,2.578,-0.565,0.373,1.146
1642.0,-9.494,-2.133,2.578,-0.565,0.373,1.146
1646.0,-9.729,-2.268,2.76,-0.53,0.384,1.117
1650.0,-9.729,-2.268,2.76,-0.53,0.384,1.117
1654.0,-9.729,-2.268,2.76,-0.53,0.384,1.117
1658.0,-9.482,-2.337,2.778,-0.472,0.357,1.059
1662.0,-9.482,-2.337,2.778,-0.472,0.357,1.059
1666.0,-9.195,-2.34,2.755,-0.401,0.323,0.967
1670.0,-9.195,-2.34,2.755,-0.401,0.323,0.967
1674.0,-9.195,-2.34,2.755,-0.401,0.323,0.967
1678.0,-8.806,-2.292,2.803,-0.318,0.294,0.845
1681.0,-8.806,-2.292,2.803,-0.318,0.294,0.845
1685.0,-8.28,-2.204,2.791,-0.229,0.258,0.71
1689.0,-8.28,-2.204,2.791,-0.229,0.258,0.71
1693.0,-8.28,-2.204,2.791,-0.229,0.258,0.71
1697.0,-7.812,-2.097,2.736,-0.138,0.226,0.566
1701.0,-7.812,-2.097,2.736,-0.138,0.226,0.566
1705.0,-7.457,-1.999,2.678,-0.138,0.203,0.414
1709.0,-7.457,-1.999,2.678,-0.048,0.203,0.414
1713.0,-7.457,-1.999,2.678,-0.048,0.203,0.414
1717.0,-7.24,-1.895,2.614,0.039,0.185,0.262
1720.0,-7.24,-1.895,2.614,0.039,0.185,0.262
1724.0,-7.259,-1.801,2.543,0.039,0.185,0.262
1728.0,-7.259,-1.801,2.543,0.12,0.177,0.118
1732.0,-7.259,-1.801,2.543,0.12,0.177,0.118
1736.0,-7.504,-1.764,2.492,0.194,0.178,-0.017
1740.0,-7.504,-1.764,2.492,0.194,0.178,-0.017
1744.0,-7.504,-1.764,2.353,0.194,0.178,-0.017
1747.0,-8.064,-1.787,2.353,0.257,0.181,-0.135
1751.0,-8.064,-1.787,2.353,0.257,0.181,-0.135
1755.0,-8.99,-1.848,2.337,0.301,0.194,-0.235
1759.0,-8.99,-1.848,2.337,0.301,0.194,-0.235
1763.0,-8.99,-1.848,2.337,0.301,0.194,-0.235
1767.0,-9.974,-1.933,2.457,0.333,0.208,-0.322
1771.0,-9.974,-1.933,2.457,0.333,0.208,-0.322
1775.0,-10.902,-1.967,2.713,0.357,0.201,-0.402
1779.0,-10.902,-1.967,2.713,0.357,0.201,-0.402
1783.0,-10.902,-1.967,2.713,0.357,0.201,-0.402
1787.0,-11.246,-1.953,3.086,0.381,0.149,-0.479
1791.0,-11.246,-1.953,3.086,0.381,0.149,-0.479
1795.0,-10.945,-1.914,3.105,0.412,0.05,-0.572
1799.0,-10.945,-1.914,3.105,0.412,0.05,-0.572
1803.0,-10.945,-1.914,2.884,0.412,0.05,-0.572
1807.0,-10.62,-1.764,2.884,0.445,-0.037,-0.689
1811.0,-10.62,-1.764,2.884,0.445,-0.037,-0.689
1815.0,-10.358,-1.56,2.758,0.481,-0.078,-0.812
1819.0,-10.358,-1.56,2.758,0.481,-0.078,-0.812
1823.0,-10.153,-1.353,2.509,0.481,-0.078,-0.914
1827.0,-10.153,-1.353,2.509,0.514,-0.101,-0.914
1831.0,-10.153,-1.353,2.509,0.514,-0.101,-0.914
1835.0,-10.321,-1.18,2.309,0.539,-0.09,-0.997
1839.0,-10.321,-1.18,2.309,0.539,-0.09,-0.997
1843.0,-10.656,-1.053,2.255,0.556,-0.057,-1.063
1847.0,-10.656,-1.053,2.255,0.556,-0.057,-1.063
1852.0,-10.656,-1.053,2.255,0.556,-0.057,-1.063
1856.0,-10.746,-0.9,2.267,0.567,-0.034,-1.103
1860.0,-10.746,-0.9,2.267,0.567,-0.034,-1.103
1864.0,-10.528,-0.745,2.313,0.579,-0.026,-1.112
1868.0,-10.528,-0.745,2.313,0.579,-0.026,-1.112
1872.0,-10.528,-0.616,2.25,0.579,-0.026,-1.112
1876.0,-10.245,-0.616,2.25,0.597,-0.018,-1.098
1880.0,-10.245,-0.616,2.25,0.597,-0.018,-1.098
1884.0,-10.27,-0.514,2.109,0.621,0.016,-1.062
1888.0,-10.27,-0.514,2.109,0.621,0.016,-1.062
1892.0,-10.464,-0.507,2.17,0.621,0.016,-0.998
1896.0,-10.464,-0.507,2.17,0.65,0.076,-0.998
1900.0,-10.464,-0.507,2.17,0.65,0.076,-0.998
1904.0,-10.355,-0.601,2.31,0.687,0.12,-0.915
1908.0,-10.355,-0.601,2.31,0.687,0.12,-0.915
1912.0,-10.201,-0.739,2.304,0.687,0.127,-0.832
1916.0,-10.201,-0.739,2.304,0.732,0.127,-0.832
1920.0,-10.201,-0.739,2.304,0.732,0.127,-0.832
1924.0,-10.272,-0.91,2.142,0.787,0.118,-0.779
1928.0,-10.272,-0.91,2.142,0.787,0.118,-0.779
1932.0,-10.623,-1.046,1.875,0.849,0.101,-0.761
1936.0,-10.623,-1.046,1.875,0.849,0.101,-0.761
1940.0,-10.623,-1.046,1.875,0.849,0.101,-0.761
1944.0,-11.064,-1.041,1.559,0.915,0.08,-0.768
1948.0,-11.064,-1.041,1.559,0.915,0.08,-0.768
1952.0,-11.298,-0.887,1.401,0.981,0.058,-0.779
1956.0,-11.298,-0.887,1.401,0.981,0.058,-0.779
1960.0,-11.298,-0.887,1.401,0.981,0.058,-0.779
1964.0,-11.096,-0.722,1.333,1.051,0.018,-0.784
1968.0,-11.096,-0.722,1.333,1.051,0.018,-0.784
1972.0,-10.758,-0.57,1.115,1.127,-0.037,-0.799
1976.0,-10.758,-0.57,1.115,1.127,-0.037,-0.799
1980.0,-10.758,-0.57,1.115,1.127,-0.037,-0.799
1984.0,-10.92,-0.374,0.774,1.202,-0.067,-0.831
1988.0,-10.92,-0.374,0.774,1.202,-0.067,-0.831
1992.0,-11.291,-0.117,0.629,1.264,-0.06,-0.867
1997.0,-11.291,-0.117,0.629,1.264,-0.06,-0.867
2001.0,-11.069,0.113,0.785,1.264,-0.06,-0.867
2005.0,-11.069,0.113,0.785,1.313,-0.06,-0.885
2009.0,-11.069,0.113,0.785,1.313,-0.06,-0.885
2013.0,-10.262,0.23,0.919,1.351,-0.104,-0.892
2017.0,-10.262,0.23,0.919,1.351,-0.104,-0.892
2021.0,-9.716,0.289,0.736,1.351,-0.155,-0.917
2024.0,-9.716,0.289,0.736,1.38,-0.155,-0.917
2028.0,-9.716,0.289,0.736,1.38,-0.155,-0.917
2032.0,-9.715,0.346,0.526,1.39,-0.163,-0.965
2036.0,-9.715,0.346,0.526,1.39,-0.163,-0.965
2040.0,-9.879,0.404,0.537,1.39,-0.163,-0.965
2044.0,-9.879,0.404,0.537,1.371,-0.143,-1.009
2048.0,-9.879,0.404,0.537,1.371,-0.143,-1.009
2052.0,-9.894,0.431,0.581,1.327,-0.128,-1.03
2056.0,-9.894,0.431,0.581,1.327,-0.128,-1.03
2060.0,-9.899,0.368,0.61,1.327,-0.128,-1.03
2064.0,-9.899,0.368,0.61,1.273,-0.117,-1.03
2067.0,-9.899,0.368,0.61,1.273,-0.117,-1.03
2071.0,-9.946,0.239,0.721,1.217,-0.101,-1.024
2075.0,-9.946,0.239,0.721,1.217,-0.101,-1.024
2079.0,-9.946,0.239,0.837,1.217,-0.101,-1.024
2083.0,-9.846,0.088,0.837,1.166,-0.096,-1.01
2087.0,-9.846,0.088,0.837,1.166,-0.096,-1.01
2091.0,-9.69,-0.1,0.87,1.124,-0.104,-0.991
2095.0,-9.69,-0.1,0.87,1.124,-0.104,-0.991
2099.0,-9.69,-0.1,0.852,1.124,-0.104,-0.991
2103.0,-9.759,-0.222,0.852,1.091,-0.104,-0.974
2107.0,-9.759,-0.222,0.852,1.091,-0.104,-0.974
2111.0,-9.983,-0.283,0.833,1.062,-0.092,-0.951
2115.0,-9.983,-0.283,0.833,1.062,-0.092,-0.951
2119.0,-9.983,-0.354,0.867,1.062,-0.092,-0.951
2123.0,-10.146,-0.354,0.867,1.033,-0.073,-0.907
2127.0,-10.146,-0.354,0.867,1.033,-0.073,-0.907
2131.0,-10.284,-0.465,0.969,1.004,-0.054,-0.846
2135.0,-10.284,-0.465,0.969,1.004,-0.054,-0.846
2139.0,-10.444,-0.631,1.078,1.004,-0.039,-0.778
2143.0,-10.444,-0.631,1.078,0.98,-0.039,-0.778
2147.0,-10.444,-0.631,1.078,0.98,-0.039,-0.778
2151.0,-10.685,-0.818,1.112,0.964,-0.03,-0.707
2155.0,-10.685,-0.818,1.112,0.964,-0.03,-0.707
2160.0,-11.009,-1.012,1.109,0.952,-0.026,-0.636
2164.0,-11.009,-1.012,1.109,0.952,-0.026,-0.636
2168.0,-11.009,-1.012,1.109,0.952,-0.026,-0.636
2172.0,-11.39,-1.215,1.135,0.944,-0.021,-0.565
2176.0,-11.39,-1.215,1.135,0.944,-0.021,-0.565
2180.0,-11.822,-1.387,1.166,0.943,-0.016,-0.487
2184.0,-11.822,-1.387,1.166,0.943,-0.016,-0.487
2188.0,-12.251,-1.519,1.226,0.943,-0.016,-0.487
2192.0,-12.251,-1.519,1.226,0.945,-0.013,-0.403
2196.0,-12.251,-1.519,1.226,0.945,-0.013,-0.403
2200.0,-12.41,-1.635,1.352,0.951,-0.019,-0.313
2204.0,-12.41,-1.635,1.352,0.951,-0.019,-0.313
2209.0,-12.294,-1.736,1.379,0.964,-0.046,-0.23
2213.0,-12.294,-1.736,1.379,0.964,-0.046,-0.23
2217.0,-12.294,-1.736,1.379,0.964,-0.046,-0.23
2221.0,-12.194,-1.781,1.321,0.983,-0.075,-0.166
2225.0,-12.194,-1.781,1.321,0.983,-0.075,-0.166
2229.0,-12.163,-1.781,1.28,1.005,-0.087,-0.121
2233.0,-12.163,-1.781,1.28,1.005,-0.087,-0.121
2237.0,-12.163,-1.781,1.238,1.005,-0.087,-0.121
2241.0,-12.127,-1.742,1.238,1.023,-0.091,-0.084
2245.0,-12.127,-1.742,1.238,1.023,-0.091,-0.084
2249.0,-12.123,-1.701,1.233,1.033,-0.089,-0.052
2253.0,-12.123,-1.701,1.233,1.033,-0.089,-0.052
2257.0,-12.152,-1.673,1.268,1.033,-0.089,-0.028
2262.0,-12.152,-1.673,1.268,1.035,-0.086,-0.028
2266.0,-12.152,-1.673,1.268,1.035,-0.086,-0.028
2270.0,-12.145,-1.683,1.342,1.036,-0.084,-0.012
2274.0,-12.145,-1.683,1.342,1.036,-0.084,-0.012
2278.0,-12.01,-1.688,1.344,1.04,-0.094,-0.009
2282.0,-12.01,-1.688,1.344,1.04,-0.094,-0.009
2286.0,-12.01,-1.688,1.344,1.04,-0.094,-0.009
2290.0,-11.908,-1.683,1.35,1.041,-0.109,-0.026
2294.0,-11.908,-1.683,1.35,1.041,-0.109,-0.026
2298.0,-11.697,-1.675,1.348,1.041,-0.127,-0.062
2302.0,-11.697,-1.675,1.348,1.041,-0.127,-0.062
2306.0,-11.375,-1.644,1.35,1.041,-0.127,-0.062
2311.0,-11.375,-1.644,1.35,1.043,-0.153,-0.114
2315.0,-11.375,-1.644,1.35,1.043,-0.153,-0.114
2319.0,-10.906,-1.589,1.32,1.052,-0.187,-0.186
2323.0,-10.906,-1.589,1.32,1.052,-0.187,-0.186
2327.0,-10.331,-1.482,1.309,1.069,-0.225,-0.274
2331.0,-10.331,-1.482,1.309,1.069,-0.225,-0.274
2335.0,-10.331,-1.482,1.309,1.069,-0.225,-0.274
2339.0,-9.78,-1.391,1.259,1.093,-0.27,-0.371
2343.0,-9.78,-1.391,1.259,1.093,-0.27,-0.371
2347.0,-9.333,-1.293,1.169,1.125,-0.312,-0.47
2351.0,-9.333,-1.293,1.169,1.125,-0.312,-0.47
2355.0,-9.333,-1.293,1.169,1.125,-0.312,-0.47
2359.0,-9.06,-1.242,0.988,1.162,-0.348,-0.562
2363.0,-9.06,-1.242,0.988,1.162,-0.348,-0.562
2367.0,-9.269,-1.191,0.768,1.195,-0.358,-0.635
2371.0,-9.269,-1.191,0.768,1.195,-0.358,-0.635
2375.0,-9.269,-1.191,0.768,1.195,-0.358,-0.635
2379.0,-9.891,-1.197,0.636,1.218,-0.343,-0.681
2383.0,-9.891,-1.197,0.636,1.218,-0.343,-0.681
2387.0,-10.497,-1.239,0.537,1.227,-0.324,-0.698
2391.0,-10.497,-1.239,0.537,1.227,-0.324,-0.698
2395.0,-10.497,-1.272,0.537,1.227,-0.324,-0.698
2399.0,-10.881,-1.272,0.537,1.224,-0.313,-0.692
2403.0,-10.881,-1.272,0.537,1.224,-0.313,-0.692
2407.0,-10.692,-1.207,0.786,1.212,-0.318,-0.675
2411.0,-10.692,-1.207,0.786,1.212,-0.318,-0.675
2416.0,-9.723,-1.161,1.002,1.212,-0.36,-0.652
2420.0,-9.723,-1.161,1.002,1.197,-0.36,-0.652
2424.0,-9.723,-1.161,1.002,1.197,-0.36,-0.652
2428.0,-8.573,-1.098,0.976,1.185,-0.422,-0.643
2432.0,-8.573,-1.098,0.976,1.185,-0.422,-0.643
2436.0,-7.802,-1.015,0.683,1.17,-0.462,-0.66
2440.0,-7.802,-1.015,0.683,1.17,-0.462,-0.66
2444.0,-7.802,-1.015,0.683,1.17,-0.462,-0.66
2447.0,-7.63,-0.832,0.389,1.139,-0.44,-0.688
2451.0,-7.63,-0.832,0.389,1.139,-0.44,-0.688
2455.0,-7.723,-0.663,0.302,1.085,-0.37,-0.698
2459.0,-7.723,-0.663,0.302,1.085,-0.37,-0.698
2463.0,-7.723,-0.663,0.302,1.085,-0.37,-0.698
2467.0,-7.768,-0.639,0.302,1.012,-0.289,-0.674
2471.0,-7.768,-0.639,0.302,1.012,-0.289,-0.674
2475.0,-7.954,-0.698,0.243,0.935,-0.216,-0.633
2479.0,-7.954,-0.698,0.243,0.935,-0.216,-0.633
2483.0,-7.954,-0.698,0.243,0.935,-0.216,-0.633
2487.0,-8.572,-0.791,0.222,0.86,-0.134,-0.591
2491.0,-8.572,-0.791,0.222,0.86,-0.134,-0.591
2495.0,-9.411,-0.9,0.278,0.791,-0.049,-0.535
2499.0,-9.411,-0.9,0.278,0.791,-0.049,-0.535
2503.0,-9.411,-0.9,0.278,0.791,-0.049,-0.535
2507.0,-10.156,-1.095,0.377,0.734,0.018,-0.453
2511.0,-10.156,-1.095,0.377,0.734,0.018,-0.453
2515.0,-10.576,-1.284,0.553,0.693,0.054,-0.351
2519.0,-10.576,-1.284,0.553,0.693,0.054,-0.351
2523.0,-10.576,-1.284,0.779,0.693,0.054,-0.351
2527.0,-10.539,-1.465,0.779,0.674,0.053,-0.252
2531.0,-10.539,-1.465,0.779,0.674,0.053,-0.252
2535.0,-10.326,-1.555,0.83,0.675,0.015,-0.18
2539.0,-10.326,-1.555,0.83,0.675,0.015,-0.18
2543.0,-10.469,-1.549,0.519,0.675,0.015,-0.18
2547.0,-10.469,-1.549,0.519,0.688,-0.025,-0.144
2551.0,-10.469,-1.549,0.519,0.688,-0.025,-0.144
2555.0,-10.792,-1.442,0.18,0.696,-0.036,-0.126
2560.0,-10.792,-1.442,0.18,0.696,-0.036,-0.126
2564.0,-10.755,-1.304,0.057,0.696,-0.026,-0.103
2568.0,-10.755,-1.304,0.057,0.692,-0.026,-0.103
2572.0,-10.755,-1.304,0.057,0.692,-0.026,-0.103
2576.0,-10.123,-1.248,0.068,0.68,-0.02,-0.074
2580.0,-10.123,-1.248,0.068,0.68,-0.02,-0.074
2584.0,-9.485,-1.218,0.047,0.672,-0.01,-0.064
2588.0,-9.485,-1.218,0.047,0.672,-0.01,-0.064
2592.0,-9.485,-1.218,0.047,0.672,-0.01,-0.064
2596.0,-9.413,-1.156,0.033,0.674,0.02,-0.079
2600.0,-9.413,-1.156,0.033,0.674,0.02,-0.079
2604.0,-9.8,-1.11,0.081,0.679,0.065,-0.098
2608.0,-9.8,-1.11,0.081,0.679,0.065,-0.098
2612.0,-9.8,-1.11,0.081,0.679,0.065,-0.098
2616.0,-10.201,-1.105,0.194,0.683,0.104,-0.096
2620.0,-10.201,-1.105,0.194,0.683,0.104,-0.096
2624.0,-10.247,-1.174,0.376,0.684,0.123,-0.078
2628.0,-10.247,-1.174,0.376,0.684,0.123,-0.078
2632.0,-10.247,-1.174,0.376,0.684,0.123,-0.078
2636.0,-10.157,-1.236,0.474,0.68,0.124,-0.066
2640.0,-10.157,-1.236,0.474,0.68,0.124,-0.066
2643.0,-10.391,-1.289,0.428,0.668,0.132,-0.072
2647.0,-10.391,-1.289,0.428,0.668,0.132,-0.072
2651.0,-10.391,-1.289,0.428,0.668,0.132,-0.072
2655.0,-10.828,-1.336,0.379,0.647,0.155,-0.083
2659.0,-10.828,-1.336,0.379,0.647,0.155,-0.083
2663.0,-11.064,-1.403,0.426,0.623,0.179,-0.085
2667.0,-11.064,-1.403,0.426,0.623,0.179,-0.085
2671.0,-11.064,-1.403,0.503,0.623,0.179,-0.085
2675.0,-11.085,-1.482,0.503,0.607,0.19,-0.081
2679.0,-11.085,-1.482,0.503,0.607,0.19,-0.081
2683.0,-11.062,-1.524,0.558,0.607,0.193,-0.083
2687.0,-11.062,-1.524,0.558,0.607,0.193,-0.083
2691.0,-11.104,-1.515,0.601,0.607,0.193,-0.083
2695.0,-11.104,-1.515,0.601,0.624,0.195,-0.092
2699.0,-11.104,-1.515,0.601,0.624,0.195,-0.092
2703.0,-10.927,-1.493,0.683,0.655,0.19,-0.107
2707.0,-10.927,-1.493,0.683,0.655,0.19,-0.107
2711.0,-10.474,-1.473,0.753,0.655,0.19,-0.13
2715.0,-10.474,-1.473,0.753,0.695,0.169,-0.13
2719.0,-10.474,-1.473,0.753,0.695,0.169,-0.13
2723.0,-9.993,-1.432,0.741,0.746,0.143,-0.163
2727.0,-9.993,-1.432,0.741,0.746,0.143,-0.163
2731.0,-9.702,-1.362,0.674,0.746,0.143,-0.204
2735.0,-9.702,-1.362,0.674,0.803,0.126,-0.204
2739.0,-9.702,-1.362,0.674,0.803,0.126,-0.204
2743.0,-9.75,-1.278,0.566,0.854,0.126,-0.242
2747.0,-9.75,-1.278,0.566,0.854,0.126,-0.242
2751.0,-9.825,-1.225,0.543,0.854,0.126,-0.242
2755.0,-9.825,-1.225,0.543,0.892,0.138,-0.266
2759.0,-9.825,-1.225,0.543,0.892,0.138,-0.266
2762.0,-9.794,-1.195,0.601,0.916,0.146,-0.279
2766.0,-9.794,-1.195,0.601,0.916,0.146,-0.279
2770.0,-9.794,-1.155,0.66,0.916,0.146,-0.279
2774.0,-10.047,-1.155,0.66,0.926,0.152,-0.281
2778.0,-10.047,-1.155,0.66,0.926,0.152,-0.281
2782.0,-10.433,-1.175,0.717,0.924,0.164,-0.275
2786.0,-10.433,-1.175,0.717,0.924,0.164,-0.275
2790.0,-10.638,-1.199,0.811,0.924,0.164,-0.275
2794.0,-10.638,-1.199,0.811,0.914,0.17,-0.256
2798.0,-10.638,-1.199,0.811,0.914,0.17,-0.256
2802.0,-10.767,-1.211,0.893,0.896,0.167,-0.229
2806.0,-10.767,-1.211,0.893,0.896,0.167,-0.229
2810.0,-10.739,-1.226,0.996,0.896,0.167,-0.229
2814.0,-10.739,-1.226,0.996,0.874,0.161,-0.207
2818.0,-10.739,-1.226,0.996,0.874,0.161,-0.207
2822.0,-10.798,-1.196,1.03,0.849,0.154,-0.191
2826.0,-10.798,-1.196,1.03,0.849,0.154,-0.191
2830.0,-11.026,-1.151,1.0,0.849,0.152,-0.176
2834.0,-11.026,-1.151,1.0,0.82,0.152,-0.176
2838.0,-11.026,-1.151,1.0,0.82,0.152,-0.176
2842.0,-11.191,-1.153,0.961,0.788,0.151,-0.159
2846.0,-11.191,-1.153,0.961,0.788,0.151,-0.159
2850.0,-11.342,-1.147,0.9,0.754,0.149,-0.142
2854.0,-11.342,-1.147,0.9,0.754,0.149,-0.142
2858.0,-11.342,-1.147,0.9,0.754,0.149,-0.142
2862.0,-11.621,-1.175,0.869,0.718,0.152,-0.126
2866.0,-11.621,-1.175,0.869,0.718,0.152,-0.126
2870.0,-11.85,-1.21,0.971,0.684,0.158,-0.111
2874.0,-11.85,-1.21,0.971,0.684,0.158,-0.111
2878.0,-11.85,-1.21,0.971,0.684,0.158,-0.111
2882.0,-11.795,-1.28,1.076,0.658,0.15,-0.091
2886.0,-11.795,-1.28,1.076,0.658,0.15,-0.091
2890.0,-11.637,-1.33,1.148,0.642,0.124,-0.076
2894.0,-11.637,-1.33,1.148,0.642,0.124,-0.076
2898.0,-11.637,-1.33,1.148,0.642,0.124,-0.076
2902.0,-11.476,-1.364,1.202,0.635,0.093,-0.074
2906.0,-11.476,-1.364,1.202,0.635,0.093,-0.074
2910.0,-11.291,-1.356,1.214,0.637,0.058,-0.082
2914.0,-11.291,-1.356,1.214,0.637,0.058,-0.082
2918.0,-11.291,-1.356,1.214,0.637,0.058,-0.082
2922.0,-11.029,-1.361,1.196,0.643,0.021,-0.094
2926.0,-11.029,-1.361,1.196,0.643,0.021,-0.094
2930.0,-10.813,-1.347,1.129,0.651,-0.012,-0.11
2934.0,-10.813,-1.347,1.129,0.651,-0.012,-0.11
2938.0,-10.813,-1.306,1.063,0.651,-0.012,-0.11
2942.0,-10.892,-1.306,1.063,0.655,-0.034,-0.125
2946.0,-10.892,-1.306,1.063,0.655,-0.034,-0.125
2950.0,-11.033,-1.317,1.055,0.655,-0.048,-0.134
2954.0,-11.033,-1.317,1.055,0.655,-0.048,-0.134
2958.0,-10.805,-1.355,1.036,0.655,-0.077,-0.135
2963.0,-10.805,-1.355,1.036,0.651,-0.077,-0.135
2967.0,-10.805,-1.355,1.036,0.651,-0.077,-0.135
2971.0,-10.833,-1.333,0.878,0.639,-0.105,-0.142
2975.0,-10.833,-1.333,0.878,0.639,-0.105,-0.142
2979.0,-11.724,-1.28,0.788,0.613,-0.098,-0.152
2983.0,-11.724,-1.28,0.788,0.613,-0.098,-0.152
2987.0,-11.724,-1.28,0.788,0.613,-0.098,-0.152
2991.0,-12.402,-1.298,1.012,0.573,-0.079,-0.143
2995.0,-12.402,-1.298,1.012,0.573,-0.079,-0.143
2999.0,-11.716,-1.39,1.363,0.53,-0.118,-0.114
