deltaTime,Acc_X,Acc_Y,Acc_Z,Gyro_X,Gyro_Y,Gyro_Z
0.0,-7.851,-1.025,3.153,-1.557,0.318,-0.589
3.0,-7.851,-1.025,3.153,-1.557,0.318,-0.589
6.0,-7.786,-1.25,3.913,-1.522,0.37,-0.593
9.0,-7.786,-1.25,3.913,-1.522,0.37,-0.593
12.0,-7.786,-1.25,3.913,-1.522,0.37,-0.593
15.0,-7.786,-1.25,4.702,-1.522,0.37,-0.593
18.0,-8.109,-1.22,4.702,-1.465,0.39,-0.579
21.0,-8.109,-1.22,4.702,-1.465,0.39,-0.579
24.0,-8.109,-1.22,4.702,-1.465,0.39,-0.579
27.0,-8.744,-0.962,5.84,-1.426,0.355,-0.547
30.0,-8.744,-0.962,5.84,-1.426,0.355,-0.547
33.0,-8.744,-0.962,5.84,-1.426,0.355,-0.547
37.0,-9.092,-0.892,6.61,-1.461,0.239,-0.52
40.0,-9.092,-0.892,6.61,-1.461,0.239,-0.52
44.0,-9.092,-0.892,6.696,-1.461,0.239,-0.52
48.0,-9.021,-1.293,6.696,-1.535,0.112,-0.508
52.0,-9.021,-1.293,6.696,-1.535,0.112,-0.508
56.0,-9.053,-1.741,6.887,-1.588,-0.004,-0.502
60.0,-9.053,-1.741,6.887,-1.588,-0.004,-0.502
64.0,-9.053,-1.741,6.887,-1.588,-0.004,-0.502
67.0,-9.334,-2.218,7.089,-1.608,-0.122,-0.509
71.0,-9.334,-2.218,7.089,-1.608,-0.122,-0.509
75.0,-9.629,-2.667,7.236,-1.586,-0.236,-0.527
79.0,-9.629,-2.667,7.236,-1.586,-0.236,-0.527
83.0,-9.629,-2.667,7.236,-1.586,-0.236,-0.527
87.0,-9.641,-2.944,7.089,-1.539,-0.325,-0.561
91.0,-9.641,-2.944,7.089,-1.539,-0.325,-0.561
95.0,-10.005,-3.275,6.386,-1.478,-0.391,-0.595
99.0,-10.005,-3.275,6.386,-1.478,-0.391,-0.595
103.0,-10.005,-3.275,6.386,-1.478,-0.391,-0.595
107.0,-10.558,-3.452,5.234,-1.384,-0.42,-0.612
111.0,-10.558,-3.452,5.234,-1.384,-0.42,-0.612
115.0,-11.204,-3.373,4.405,-1.241,-0.393,-0.611
119.0,-11.204,-3.373,4.405,-1.241,-0.393,-0.611
123.0,-11.204,-3.373,4.668,-1.241,-0.393,-0.611
127.0,-11.859,-3.304,4.668,-1.114,-0.367,-0.614
131.0,-11.859,-3.304,4.668,-1.114,-0.367,-0.614
135.0,-11.802,-3.309,5.016,-1.068,-0.403,-0.66
139.0,-11.802,-3.309,5.016,-1.068,-0.403,-0.66
144.0,-10.312,-3.26,4.458,-1.068,-0.403,-0.707
148.0,-10.312,-3.26,4.458,-1.084,-0.478,-0.707
152.0,-10.312,-3.26,4.458,-1.084,-0.478,-0.707
156.0,-9.126,-3.394,4.231,-1.088,-0.528,-0.711
160.0,-9.126,-3.394,4.231,-1.088,-0.528,-0.711
164.0,-9.119,-3.567,4.114,-1.076,-0.548,-0.73
168.0,-9.119,-3.567,4.114,-1.076,-0.548,-0.73
172.0,-9.119,-3.567,4.114,-1.076,-0.548,-0.73
176.0,-8.75,-3.717,3.425,-1.033,-0.546,-0.776
180.0,-8.75,-3.717,3.425,-1.033,-0.546,-0.776
184.0,-8.202,-3.288,2.81,-0.884,-0.499,-0.807
188.0,-8.202,-3.288,2.81,-0.884,-0.499,-0.807
192.0,-8.202,-3.288,2.81,-0.884,-0.499,-0.807
196.0,-7.833,-2.767,2.174,-0.707,-0.413,-0.782
200.0,-7.833,-2.767,2.174,-0.707,-0.413,-0.782
204.0,-8.043,-2.427,1.528,-0.549,-0.267,-0.693
208.0,-8.043,-2.427,1.528,-0.549,-0.267,-0.693
212.0,-8.043,-2.427,1.528,-0.549,-0.267,-0.693
216.0,-8.724,-2.23,1.243,-0.428,-0.056,-0.56
220.0,-8.724,-2.23,1.243,-0.428,-0.056,-0.56
224.0,-9.719,-2.089,0.97,-0.343,0.146,-0.399
228.0,-9.719,-2.089,0.97,-0.343,0.146,-0.399
231.0,-9.719,-2.089,0.97,-0.343,0.146,-0.399
235.0,-12.144,-2.317,1.245,-0.276,0.325,-0.213
239.0,-12.144,-2.317,1.245,-0.276,0.325,-0.213
243.0,-14.628,-2.874,1.46,-0.162,0.444,0.015
247.0,-14.628,-2.874,1.46,-0.162,0.444,0.015
251.0,-14.628,-2.874,1.46,-0.162,0.444,0.015
255.0,-16.393,-3.281,1.704,0.006,0.488,0.267
259.0,-16.393,-3.281,1.704,0.006,0.488,0.267
263.0,-16.725,-3.622,1.906,0.202,0.449,0.499
267.0,-16.725,-3.622,1.906,0.202,0.449,0.499
270.0,-16.725,-3.622,1.906,0.202,0.449,0.499
274.0,-15.891,-3.79,2.038,0.412,0.343,0.664
278.0,-15.891,-3.79,2.038,0.412,0.343,0.664
282.0,-14.525,-3.66,1.847,0.412,0.216,0.741
286.0,-14.525,-3.66,1.847,0.615,0.216,0.741
289.0,-14.525,-3.66,1.847,0.615,0.216,0.741
293.0,-13.967,-3.47,1.55,0.789,0.085,0.741
297.0,-13.967,-3.47,1.55,0.789,0.085,0.741
301.0,-13.967,-3.47,1.418,0.789,0.085,0.741
305.0,-12.977,-2.99,1.418,0.97,-0.068,0.675
309.0,-12.977,-2.99,1.418,0.97,-0.068,0.675
313.0,-11.579,-2.679,1.185,1.137,-0.198,0.559
316.0,-11.579,-2.679,1.185,1.137,-0.198,0.559
320.0,-11.579,-2.679,1.185,1.137,-0.198,0.559
324.0,-10.449,-2.227,0.803,1.28,-0.284,0.415
328.0,-10.449,-2.227,0.803,1.28,-0.284,0.415
332.0,-9.697,-1.755,0.38,1.375,-0.31,0.253
336.0,-9.697,-1.755,0.38,1.375,-0.31,0.253
340.0,-9.697,-1.755,0.38,1.375,-0.31,0.253
344.0,-9.438,-1.3,0.149,1.413,-0.288,0.106
347.0,-9.438,-1.3,0.149,1.413,-0.288,0.106
351.0,-9.605,-1.015,0.093,1.397,-0.247,-0.004
355.0,-9.605,-1.015,0.093,1.397,-0.247,-0.004
359.0,-9.605,-1.015,0.093,1.397,-0.247,-0.004
363.0,-9.954,-0.91,0.083,1.345,-0.203,-0.075
367.0,-9.954,-0.91,0.083,1.345,-0.203,-0.075
371.0,-10.274,-0.861,0.162,1.345,-0.169,-0.118
375.0,-10.274,-0.861,0.162,1.273,-0.169,-0.118
379.0,-10.274,-0.861,0.162,1.273,-0.169,-0.118
383.0,-10.411,-0.884,0.294,1.183,-0.156,-0.143
387.0,-10.411,-0.884,0.294,1.183,-0.156,-0.143
391.0,-10.303,-0.906,0.347,1.083,-0.159,-0.156
395.0,-10.303,-0.906,0.347,1.083,-0.159,-0.156
399.0,-10.303,-0.906,0.347,1.083,-0.159,-0.156
403.0,-10.035,-0.899,0.416,0.972,-0.162,-0.158
407.0,-10.035,-0.899,0.416,0.972,-0.162,-0.158
411.0,-9.72,-0.873,0.464,0.846,-0.165,-0.152
415.0,-9.72,-0.873,0.464,0.846,-0.165,-0.152
418.0,-9.72,-0.873,0.464,0.846,-0.165,-0.152
422.0,-9.419,-0.818,0.462,0.701,-0.163,-0.136
426.0,-9.419,-0.818,0.462,0.701,-0.163,-0.136
430.0,-9.196,-0.768,0.438,0.531,-0.146,-0.109
434.0,-9.196,-0.768,0.438,0.531,-0.146,-0.109
438.0,-9.196,-0.768,0.438,0.531,-0.146,-0.109
442.0,-8.993,-0.722,0.406,0.338,-0.111,-0.071
446.0,-8.993,-0.722,0.406,0.338,-0.111,-0.071
450.0,-8.697,-0.686,0.449,0.338,-0.067,-0.017
454.0,-8.697,-0.686,0.449,0.128,-0.067,-0.017
458.0,-8.697,-0.686,0.449,0.128,-0.067,-0.017
461.0,-8.311,-0.71,0.532,-0.089,-0.021,0.057
465.0,-8.311,-0.71,0.532,-0.089,-0.021,0.057
469.0,-7.905,-0.811,0.61,-0.089,-0.021,0.141
473.0,-7.905,-0.811,0.61,-0.305,0.023,0.141
477.0,-7.905,-0.811,0.61,-0.305,0.023,0.141
481.0,-7.563,-0.945,0.673,-0.507,0.069,0.231
485.0,-7.563,-0.945,0.673,-0.507,0.069,0.231
488.0,-7.563,-0.945,0.7,-0.507,0.069,0.231
492.0,-7.281,-1.104,0.7,-0.689,0.116,0.324
496.0,-7.281,-1.104,0.7,-0.689,0.116,0.324
500.0,-7.071,-1.241,0.711,-0.847,0.164,0.421
504.0,-7.071,-1.241,0.711,-0.847,0.164,0.421
508.0,-7.071,-1.241,0.711,-0.847,0.164,0.421
511.0,-6.933,-1.395,0.707,-0.981,0.214,0.522
515.0,-6.933,-1.395,0.707,-0.981,0.214,0.522
519.0,-6.995,-1.54,0.645,-1.091,0.273,0.628
523.0,-6.995,-1.54,0.645,-1.091,0.273,0.628
527.0,-6.995,-1.54,0.645,-1.091,0.273,0.628
530.0,-7.353,-1.687,0.632,-1.179,0.347,0.744
534.0,-7.353,-1.687,0.632,-1.179,0.347,0.744
538.0,-8.013,-1.848,0.714,-1.179,0.347,0.744
542.0,-8.013,-1.848,0.714,-1.246,0.435,0.881
546.0,-8.013,-1.848,0.714,-1.246,0.435,0.881
550.0,-8.713,-2.071,0.893,-1.287,0.512,1.047
553.0,-8.713,-2.071,0.893,-1.287,0.512,1.047
557.0,-8.713,-2.071,0.893,-1.287,0.512,1.047
561.0,-9.237,-2.331,1.055,-1.295,0.559,1.234
565.0,-9.237,-2.331,1.055,-1.295,0.559,1.234
569.0,-9.686,-2.645,1.297,-1.265,0.576,1.429
572.0,-9.686,-2.645,1.297,-1.265,0.576,1.429
576.0,-9.686,-2.645,1.297,-1.265,0.576,1.429
580.0,-10.165,-2.968,1.533,-1.193,0.566,1.615
584.0,-10.165,-2.968,1.533,-1.193,0.566,1.615
588.0,-10.488,-3.277,1.638,-1.193,0.527,1.781
592.0,-10.488,-3.277,1.638,-1.075,0.527,1.781
596.0,-10.488,-3.277,1.638,-1.075,0.527,1.781
600.0,-10.44,-3.471,1.662,-0.922,0.458,1.907
604.0,-10.44,-3.471,1.662,-0.922,0.458,1.907
607.0,-10.107,-3.512,1.566,-0.922,0.458,1.979
611.0,-10.107,-3.512,1.566,-0.751,0.373,1.979
615.0,-10.107,-3.512,1.566,-0.751,0.373,1.979
619.0,-9.821,-3.419,1.372,-0.582,0.3,1.995
623.0,-9.821,-3.419,1.372,-0.582,0.3,1.995
627.0,-9.821,-3.258,1.096,-0.582,0.3,1.995
631.0,-9.769,-3.258,1.096,-0.429,0.258,1.963
634.0,-9.769,-3.258,1.096,-0.429,0.258,1.963
638.0,-9.922,-3.047,0.843,-0.3,0.255,1.895
642.0,-9.922,-3.047,0.843,-0.3,0.255,1.895
646.0,-9.922,-3.047,0.843,-0.3,0.255,1.895
650.0,-10.247,-2.885,0.768,-0.201,0.282,1.808
654.0,-10.247,-2.885,0.768,-0.201,0.282,1.808
658.0,-10.681,-2.764,0.815,-0.124,0.317,1.709
661.0,-10.681,-2.764,0.815,-0.124,0.317,1.709
665.0,-10.681,-2.764,0.815,-0.124,0.317,1.709
669.0,-11.15,-2.702,0.967,-0.055,0.34,1.597
673.0,-11.15,-2.702,0.967,-0.055,0.34,1.597
677.0,-11.478,-2.66,1.143,0.011,0.34,1.47
681.0,-11.478,-2.66,1.143,0.011,0.34,1.47
685.0,-11.478,-2.66,1.143,0.011,0.34,1.47
689.0,-11.506,-2.635,1.268,0.081,0.31,1.327
692.0,-11.506,-2.635,1.268,0.081,0.31,1.327
696.0,-11.25,-2.555,1.295,0.081,0.31,1.327
700.0,-11.25,-2.555,1.295,0.152,0.264,1.167
704.0,-11.25,-2.555,1.295,0.152,0.264,1.167
708.0,-10.853,-2.453,1.238,0.218,0.22,0.999
711.0,-10.853,-2.453,1.238,0.218,0.22,0.999
715.0,-10.853,-2.453,1.238,0.218,0.22,0.999
719.0,-10.538,-2.297,1.138,0.278,0.194,0.832
723.0,-10.538,-2.297,1.138,0.278,0.194,0.832
727.0,-10.324,-2.209,1.102,0.331,0.186,0.679
731.0,-10.324,-2.209,1.102,0.331,0.186,0.679
734.0,-10.324,-2.209,1.102,0.331,0.186,0.679
738.0,-10.149,-2.218,1.106,0.381,0.182,0.543
742.0,-10.149,-2.218,1.106,0.381,0.182,0.543
746.0,-9.989,-2.264,1.144,0.381,0.171,0.425
750.0,-9.989,-2.264,1.144,0.433,0.171,0.425
753.0,-9.989,-2.264,1.144,0.433,0.171,0.425
757.0,-9.851,-2.313,1.14,0.492,0.153,0.321
761.0,-9.851,-2.313,1.14,0.492,0.153,0.321
764.0,-9.851,-2.313,1.14,0.492,0.153,0.321
768.0,-9.735,-2.35,1.125,0.554,0.132,0.232
772.0,-9.735,-2.35,1.125,0.554,0.132,0.232
776.0,-9.69,-2.371,1.116,0.616,0.114,0.155
779.0,-9.69,-2.371,1.116,0.616,0.114,0.155
783.0,-9.69,-2.371,1.116,0.616,0.114,0.155
787.0,-9.665,-2.398,1.103,0.675,0.097,0.091
791.0,-9.665,-2.398,1.103,0.675,0.097,0.091
794.0,-9.665,-2.398,1.119,0.675,0.097,0.091
798.0,-9.684,-2.428,1.119,0.728,0.077,0.041
802.0,-9.684,-2.428,1.119,0.728,0.077,0.041
806.0,-9.749,-2.444,1.14,0.777,0.053,0.006
809.0,-9.749,-2.444,1.14,0.777,0.053,0.006
813.0,-9.749,-2.444,1.14,0.777,0.053,0.006
817.0,-9.785,-2.457,1.134,0.823,0.024,-0.015
821.0,-9.785,-2.457,1.134,0.823,0.024,-0.015
824.0,-9.873,-2.444,1.114,0.823,0.024,-0.015
828.0,-9.873,-2.444,1.114,0.868,-0.004,-0.019
832.0,-9.873,-2.444,1.114,0.868,-0.004,-0.019
836.0,-10.013,-2.431,1.128,0.911,-0.028,-0.004
840.0,-10.013,-2.431,1.128,0.911,-0.028,-0.004
844.0,-10.013,-2.405,1.22,0.911,-0.028,-0.004
848.0,-10.077,-2.405,1.22,0.956,-0.055,0.033
852.0,-10.077,-2.405,1.22,0.956,-0.055,0.033
856.0,-9.906,-2.412,1.309,1.005,-0.096,0.089
860.0,-9.906,-2.412,1.309,1.005,-0.096,0.089
863.0,-9.906,-2.412,1.336,1.005,-0.096,0.089
867.0,-9.534,-2.366,1.336,1.056,-0.156,0.151
871.0,-9.534,-2.366,1.336,1.056,-0.156,0.151
875.0,-9.112,-2.287,1.238,1.103,-0.221,0.206
879.0,-9.112,-2.287,1.238,1.103,-0.221,0.206
883.0,-9.112,-2.287,1.238,1.103,-0.221,0.206
886.0,-8.942,-2.205,1.049,1.139,-0.27,0.246
890.0,-8.942,-2.205,1.049,1.139,-0.27,0.246
894.0,-8.991,-2.075,0.869,1.139,-0.294,0.283
898.0,-8.991,-2.075,0.869,1.163,-0.294,0.283
902.0,-8.991,-2.075,0.869,1.163,-0.294,0.283
905.0,-9.203,-1.99,0.681,1.167,-0.301,0.32
909.0,-9.203,-1.99,0.681,1.167,-0.301,0.32
913.0,-9.203,-1.929,0.535,1.167,-0.301,0.32
917.0,-9.401,-1.929,0.535,1.149,-0.301,0.356
921.0,-9.401,-1.929,0.535,1.149,-0.301,0.356
925.0,-9.565,-1.978,0.476,1.118,-0.301,0.387
928.0,-9.565,-1.978,0.476,1.118,-0.301,0.387
932.0,-9.565,-1.978,0.476,1.118,-0.301,0.387
936.0,-9.873,-2.096,0.43,1.089,-0.296,0.405
940.0,-9.873,-2.096,0.43,1.089,-0.296,0.405
944.0,-10.423,-2.226,0.424,1.076,-0.284,0.409
948.0,-10.423,-2.226,0.424,1.076,-0.284,0.409
951.0,-10.423,-2.226,0.424,1.076,-0.284,0.409
955.0,-11.078,-2.358,0.507,1.085,-0.278,0.408
959.0,-11.078,-2.358,0.507,1.085,-0.278,0.408
963.0,-11.752,-2.47,0.525,1.113,-0.296,0.406
967.0,-11.752,-2.47,0.525,1.113,-0.296,0.406
971.0,-11.752,-2.47,0.525,1.113,-0.296,0.406
975.0,-12.492,-2.564,0.466,1.155,-0.338,0.396
979.0,-12.492,-2.564,0.466,1.155,-0.338,0.396
983.0,-13.272,-2.567,0.243,1.155,-0.395,0.375
987.0,-13.272,-2.567,0.243,1.2,-0.395,0.375
991.0,-13.272,-2.567,0.243,1.2,-0.395,0.375
994.0,-13.953,-2.462,-0.01,1.233,-0.451,0.345
998.0,-13.953,-2.462,-0.01,1.233,-0.451,0.345
1002.0,-14.087,-2.192,-0.156,1.233,-0.451,0.314
1006.0,-14.087,-2.192,-0.156,1.237,-0.505,0.314
1011.0,-14.087,-2.192,-0.156,1.237,-0.505,0.314
1015.0,-13.391,-1.914,-0.176,1.2,-0.566,0.284
1019.0,-13.391,-1.914,-0.176,1.2,-0.566,0.284
1023.0,-12.24,-1.675,-0.192,1.127,-0.623,0.239
1027.0,-12.24,-1.675,-0.192,1.127,-0.623,0.239
1031.0,-12.24,-1.675,-0.192,1.127,-0.623,0.239
1035.0,-11.139,-1.485,-0.198,1.028,-0.663,0.167
1039.0,-11.139,-1.485,-0.198,1.028,-0.663,0.167
1043.0,-10.281,-1.289,-0.197,0.913,-0.679,0.066
1047.0,-10.281,-1.289,-0.197,0.913,-0.679,0.066
1051.0,-9.678,-1.088,-0.155,0.913,-0.679,0.066
1055.0,-9.678,-1.088,-0.155,0.787,-0.678,-0.055
1059.0,-9.678,-1.088,-0.155,0.787,-0.678,-0.055
1064.0,-9.237,-0.91,-0.063,0.652,-0.668,-0.18
1068.0,-9.237,-0.91,-0.063,0.652,-0.668,-0.18
1072.0,-8.956,-0.721,0.077,0.652,-0.659,-0.304
1076.0,-8.956,-0.721,0.077,0.508,-0.659,-0.304
1080.0,-8.956,-0.721,0.077,0.508,-0.659,-0.304
1084.0,-8.933,-0.598,0.148,0.352,-0.646,-0.424
1088.0,-8.933,-0.598,0.148,0.352,-0.646,-0.424
1092.0,-9.236,-0.514,0.224,0.184,-0.622,-0.527
1096.0,-9.236,-0.514,0.224,0.184,-0.622,-0.527
1100.0,-9.236,-0.514,0.224,0.184,-0.622,-0.527
1104.0,-9.499,-0.493,0.386,0.006,-0.598,-0.6
1108.0,-9.499,-0.493,0.386,0.006,-0.598,-0.6
1112.0,-9.5,-0.571,0.62,-0.171,-0.598,-0.641
1116.0,-9.5,-0.571,0.62,-0.171,-0.598,-0.641
1120.0,-9.5,-0.571,0.62,-0.171,-0.598,-0.641
1124.0,-9.345,-0.7,0.81,-0.338,-0.623,-0.658
1128.0,-9.345,-0.7,0.81,-0.338,-0.623,-0.658
1132.0,-9.17,-0.885,0.893,-0.486,-0.659,-0.661
1136.0,-9.17,-0.885,0.893,-0.486,-0.659,-0.661
1140.0,-9.17,-1.056,0.908,-0.486,-0.659,-0.661
1144.0,-8.928,-1.056,0.908,-0.612,-0.699,-0.655
1148.0,-8.928,-1.056,0.908,-0.612,-0.699,-0.655
1152.0,-8.615,-1.189,0.881,-0.719,-0.744,-0.644
1156.0,-8.615,-1.189,0.881,-0.719,-0.744,-0.644
1161.0,-8.334,-1.296,0.811,-0.807,-0.788,-0.637
1165.0,-8.334,-1.296,0.811,-0.807,-0.788,-0.637
1169.0,-8.334,-1.296,0.811,-0.807,-0.788,-0.637
1173.0,-8.228,-1.335,0.706,-0.88,-0.823,-0.638
1177.0,-8.228,-1.335,0.706,-0.88,-0.823,-0.638
1181.0,-8.222,-1.318,0.587,-0.94,-0.846,-0.647
1185.0,-8.222,-1.318,0.587,-0.94,-0.846,-0.647
1189.0,-8.222,-1.318,0.587,-0.94,-0.846,-0.647
1193.0,-8.265,-1.239,0.447,-0.996,-0.862,-0.659
1197.0,-8.265,-1.239,0.447,-0.996,-0.862,-0.659
1201.0,-8.405,-1.159,0.393,-1.05,-0.86,-0.67
1205.0,-8.405,-1.159,0.393,-1.05,-0.86,-0.67
1210.0,-8.722,-1.072,0.371,-1.05,-0.86,-0.67
1214.0,-8.722,-1.072,0.371,-1.104,-0.841,-0.681
1218.0,-8.722,-1.072,0.371,-1.104,-0.841,-0.681
1222.0,-9.292,-1.052,0.444,-1.157,-0.803,-0.694
1226.0,-9.292,-1.052,0.444,-1.157,-0.803,-0.694
1230.0,-10.019,-1.049,0.555,-1.208,-0.752,-0.705
1234.0,-10.019,-1.049,0.555,-1.208,-0.752,-0.705
1238.0,-10.019,-1.049,0.555,-1.208,-0.752,-0.705
1242.0,-10.75,-1.073,0.729,-1.256,-0.701,-0.715
1247.0,-10.75,-1.073,0.729,-1.256,-0.701,-0.715
1251.0,-11.251,-1.084,0.928,-1.298,-0.661,-0.725
1255.0,-11.251,-1.084,0.928,-1.298,-0.661,-0.725
1259.0,-11.308,-1.091,1.135,-1.298,-0.635,-0.743
1263.0,-11.308,-1.091,1.135,-1.335,-0.635,-0.743
1267.0,-11.308,-1.091,1.135,-1.335,-0.635,-0.743
1272.0,-10.898,-1.094,1.296,-1.363,-0.619,-0.78
1276.0,-10.898,-1.094,1.296,-1.363,-0.619,-0.78
1280.0,-10.183,-1.057,1.354,-1.376,-0.601,-0.845
1284.0,-10.183,-1.057,1.354,-1.376,-0.601,-0.845
1288.0,-10.183,-1.027,1.305,-1.376,-0.601,-0.845
1292.0,-9.508,-1.027,1.305,-1.373,-0.567,-0.938
1296.0,-9.508,-1.027,1.305,-1.373,-0.567,-0.938
1301.0,-9.055,-0.986,1.278,-1.352,-0.502,-1.049
1305.0,-9.055,-0.986,1.278,-1.352,-0.502,-1.049
1309.0,-8.747,-0.973,1.253,-1.308,-0.411,-1.161
1313.0,-8.747,-0.973,1.253,-1.308,-0.411,-1.161
1317.0,-8.747,-0.973,1.253,-1.308,-0.411,-1.161
1321.0,-8.55,-1.0,1.27,-1.243,-0.303,-1.252
1325.0,-8.55,-1.0,1.27,-1.243,-0.303,-1.252
1329.0,-8.626,-1.08,1.372,-1.155,-0.181,-1.311
1333.0,-8.626,-1.08,1.372,-1.155,-0.181,-1.311
1337.0,-8.626,-1.08,1.576,-1.155,-0.181,-1.311
1341.0,-8.99,-1.226,1.576,-1.044,-0.047,-1.335
1345.0,-8.99,-1.226,1.576,-1.044,-0.047,-1.335
1350.0,-9.494,-1.437,1.854,-0.907,0.081,-1.316
1354.0,-9.494,-1.437,1.854,-0.907,0.081,-1.316
1358.0,-9.897,-1.654,2.121,-0.907,0.081,-1.316
1362.0,-9.897,-1.654,2.121,-0.744,0.188,-1.253
1366.0,-9.897,-1.654,2.121,-0.744,0.188,-1.253
1369.0,-10.071,-1.905,2.399,-0.555,0.267,-1.154
1374.0,-10.071,-1.905,2.399,-0.555,0.267,-1.154
1378.0,-10.053,-2.079,2.676,-0.555,0.323,-1.033
1382.0,-10.053,-2.079,2.676,-0.346,0.323,-1.033
1386.0,-10.053,-2.079,2.676,-0.346,0.323,-1.033
1390.0,-9.99,-2.178,2.888,-0.121,0.364,-0.906
1394.0,-9.99,-2.178,2.888,-0.121,0.364,-0.906
1398.0,-9.849,-2.167,3.036,0.107,0.386,-0.783
1402.0,-9.849,-2.167,3.036,0.107,0.386,-0.783
1406.0,-9.849,-2.167,3.036,0.107,0.386,-0.783
1410.0,-9.504,-1.989,3.15,0.319,0.383,-0.671
1414.0,-9.504,-1.989,3.15,0.319,0.383,-0.671
1417.0,-8.999,-1.667,3.172,0.496,0.352,-0.581
1421.0,-8.999,-1.667,3.172,0.496,0.352,-0.581
1425.0,-8.999,-1.667,3.172,0.496,0.352,-0.581
1429.0,-8.542,-1.256,3.118,0.623,0.304,-0.518
1433.0,-8.542,-1.256,3.118,0.623,0.304,-0.518
1437.0,-8.191,-0.851,2.989,0.623,0.251,-0.478
1441.0,-8.191,-0.851,2.989,0.694,0.251,-0.478
1445.0,-8.191,-0.851,2.989,0.694,0.251,-0.478
1449.0,-7.962,-0.524,2.82,0.717,0.194,-0.453
1453.0,-7.962,-0.524,2.82,0.717,0.194,-0.453
1456.0,-7.615,-0.178,2.681,0.717,0.194,-0.439
1460.0,-7.615,-0.178,2.681,0.709,0.126,-0.439
1464.0,-7.615,-0.178,2.681,0.709,0.126,-0.439
1468.0,-7.214,0.145,2.497,0.666,0.055,-0.424
1472.0,-7.214,0.145,2.497,0.666,0.055,-0.424
1476.0,-7.024,0.345,2.263,0.666,0.055,-0.424
1480.0,-7.024,0.345,2.263,0.598,-0.005,-0.395
1484.0,-7.024,0.345,2.263,0.598,-0.005,-0.395
1487.0,-6.864,0.554,2.017,0.523,-0.043,-0.343
1491.0,-6.864,0.554,2.017,0.523,-0.043,-0.343
1495.0,-6.864,0.554,1.823,0.523,-0.043,-0.343
1499.0,-6.824,0.718,1.823,0.448,-0.055,-0.249
1503.0,-6.824,0.718,1.823,0.448,-0.055,-0.249
1507.0,-6.948,0.799,1.618,0.367,-0.045,-0.112
1511.0,-6.948,0.799,1.618,0.367,-0.045,-0.112
1515.0,-6.948,0.799,1.618,0.367,-0.045,-0.112
1519.0,-7.206,0.787,1.446,0.275,-0.01,0.062
1523.0,-7.206,0.787,1.446,0.275,-0.01,0.062
1526.0,-7.601,0.671,1.389,0.161,0.05,0.258
1530.0,-7.601,0.671,1.389,0.161,0.05,0.258
1534.0,-7.601,0.671,1.389,0.161,0.05,0.258
1538.0,-8.168,0.428,1.387,0.025,0.13,0.464
1541.0,-8.168,0.428,1.387,0.025,0.13,0.464
1545.0,-8.928,0.101,1.467,0.025,0.13,0.464
1549.0,-8.928,0.101,1.467,-0.128,0.22,0.664
1553.0,-8.928,0.101,1.467,-0.128,0.22,0.664
1556.0,-9.762,-0.264,1.617,-0.291,0.309,0.858
1560.0,-9.762,-0.264,1.617,-0.291,0.309,0.858
1564.0,-9.762,-0.264,1.617,-0.291,0.309,0.858
1568.0,-10.442,-0.556,1.786,-0.459,0.375,1.026
1572.0,-10.442,-0.556,1.786,-0.459,0.375,1.026
1576.0,-10.753,-0.8,2.013,-0.626,0.406,1.16
1580.0,-10.753,-0.8,2.013,-0.626,0.406,1.16
1584.0,-10.753,-0.8,2.232,-0.626,0.406,1.16
1588.0,-10.478,-0.939,2.232,-0.771,0.4,1.252
1592.0,-10.478,-0.939,2.232,-0.771,0.4,1.252
1596.0,-9.624,-0.952,2.363,-0.88,0.36,1.3
1600.0,-9.624,-0.952,2.363,-0.88,0.36,1.3
1604.0,-9.624,-0.952,2.387,-0.88,0.36,1.3
1608.0,-8.553,-0.869,2.387,-0.949,0.297,1.297
1612.0,-8.553,-0.869,2.387,-0.949,0.297,1.297
1616.0,-7.485,-0.751,2.225,-0.982,0.228,1.243
1619.0,-7.485,-0.751,2.225,-0.982,0.228,1.243
1623.0,-7.485,-0.751,2.225,-0.982,0.228,1.243
1627.0,-6.677,-0.596,1.911,-0.99,0.176,1.137
1631.0,-6.677,-0.596,1.911,-0.99,0.176,1.137
1635.0,-6.339,-0.391,1.46,-0.988,0.163,1.001
1639.0,-6.339,-0.391,1.46,-0.988,0.163,1.001
1643.0,-6.339,-0.391,1.46,-0.988,0.163,1.001
1647.0,-6.503,-0.147,1.01,-0.992,0.202,0.878
1651.0,-6.503,-0.147,1.01,-0.992,0.202,0.878
1655.0,-7.035,0.043,0.668,-1.016,0.289,0.804
1658.0,-7.035,0.043,0.668,-1.016,0.289,0.804
1662.0,-7.035,0.043,0.668,-1.016,0.289,0.804
1666.0,-7.677,0.088,0.549,-1.058,0.412,0.791
1670.0,-7.677,0.088,0.549,-1.058,0.412,0.791
1674.0,-8.328,-0.065,0.626,-1.058,0.542,0.831
1678.0,-8.328,-0.065,0.626,-1.109,0.542,0.831
1682.0,-8.328,-0.065,0.626,-1.109,0.542,0.831
1685.0,-8.986,-0.394,0.829,-1.157,0.656,0.894
1689.0,-8.986,-0.394,0.829,-1.157,0.656,0.894
1693.0,-9.789,-0.79,1.049,-1.157,0.656,0.959
1697.0,-9.789,-0.79,1.049,-1.198,0.747,0.959
1701.0,-9.789,-0.79,1.049,-1.198,0.747,0.959
1705.0,-10.784,-1.161,1.274,-1.227,0.824,1.015
1709.0,-10.784,-1.161,1.274,-1.227,0.824,1.015
1713.0,-11.721,-1.481,1.624,-1.227,0.824,1.015
1717.0,-11.721,-1.481,1.624,-1.251,0.873,1.067
1721.0,-11.721,-1.481,1.624,-1.251,0.873,1.067
1725.0,-11.889,-1.744,2.087,-1.267,0.863,1.121
1729.0,-11.889,-1.744,2.087,-1.267,0.863,1.121
1733.0,-10.863,-1.868,2.485,-1.267,0.768,1.16
1737.0,-10.863,-1.868,2.485,-1.277,0.768,1.16
1741.0,-10.863,-1.868,2.485,-1.277,0.768,1.16
1745.0,-9.391,-1.819,2.649,-1.279,0.61,1.142
1749.0,-9.391,-1.819,2.649,-1.279,0.61,1.142
1753.0,-7.938,-1.623,2.459,-1.279,0.443,1.046
1757.0,-7.938,-1.623,2.459,-1.266,0.443,1.046
1761.0,-7.938,-1.623,2.459,-1.266,0.443,1.046
1764.0,-6.713,-1.285,2.013,-1.247,0.31,0.876
1768.0,-6.713,-1.285,2.013,-1.247,0.31,0.876
1772.0,-5.797,-0.869,1.458,-1.247,0.31,0.671
1776.0,-5.797,-0.869,1.458,-1.243,0.234,0.671
1780.0,-5.797,-0.869,1.458,-1.243,0.234,0.671
1784.0,-5.353,-0.46,0.915,-1.276,0.236,0.481
1788.0,-5.353,-0.46,0.915,-1.276,0.236,0.481
1792.0,-5.653,-0.129,0.522,-1.276,0.236,0.481
1796.0,-5.653,-0.129,0.522,-1.352,0.337,0.343
1800.0,-5.653,-0.129,0.522,-1.352,0.337,0.343
1804.0,-7.077,0.033,0.302,-1.458,0.543,0.278
1807.0,-7.077,0.033,0.302,-1.458,0.543,0.278
1811.0,-7.077,0.033,0.27,-1.458,0.543,0.278
1815.0,-9.647,-0.243,0.27,-1.562,0.817,0.296
1819.0,-9.647,-0.243,0.27,-1.562,0.817,0.296
1823.0,-13.412,-0.925,0.559,-1.616,1.077,0.404
1827.0,-13.412,-0.925,0.559,-1.616,1.077,0.404
1831.0,-13.412,-0.925,0.559,-1.616,1.077,0.404
1835.0,-17.602,-1.763,1.442,-1.596,1.231,0.605
1839.0,-17.602,-1.763,1.442,-1.596,1.231,0.605
1843.0,-19.57,-2.575,2.505,-1.526,1.211,0.872
1847.0,-19.57,-2.575,2.505,-1.526,1.211,0.872
1851.0,-19.57,-2.575,3.209,-1.526,1.211,0.872
1855.0,-19.526,-3.336,3.209,-1.429,1.037,1.139
1859.0,-19.526,-3.336,3.209,-1.429,1.037,1.139
1863.0,-17.73,-3.785,3.269,-1.318,0.821,1.32
1867.0,-17.73,-3.785,3.269,-1.318,0.821,1.32
1871.0,-15.329,-3.73,2.798,-1.318,0.821,1.32
1875.0,-15.329,-3.73,2.798,-1.209,0.672,1.363
1879.0,-15.329,-3.73,2.798,-1.209,0.672,1.363
1883.0,-13.484,-3.23,2.267,-1.13,0.619,1.294
1887.0,-13.484,-3.23,2.267,-1.13,0.619,1.294
1891.0,-11.885,-2.691,1.95,-1.13,0.619,1.294
1895.0,-11.885,-2.691,1.95,-1.08,0.625,1.173
1899.0,-11.885,-2.691,1.95,-1.08,0.625,1.173
1903.0,-10.539,-2.261,1.869,-1.043,0.649,1.023
1907.0,-10.539,-2.261,1.869,-1.043,0.649,1.023
1911.0,-9.546,-1.947,1.978,-1.043,0.665,0.848
1915.0,-9.546,-1.947,1.978,-0.986,0.665,0.848
1918.0,-9.546,-1.947,1.978,-0.986,0.665,0.848
1922.0,-8.865,-1.726,2.181,-0.887,0.656,0.663
1926.0,-8.865,-1.726,2.181,-0.887,0.656,0.663
1930.0,-8.25,-1.641,2.346,-0.887,0.656,0.663
1934.0,-8.25,-1.641,2.346,-0.739,0.61,0.493
1938.0,-8.25,-1.641,2.346,-0.739,0.61,0.493
1942.0,-7.734,-1.65,2.409,-0.546,0.543,0.353
1946.0,-7.734,-1.65,2.409,-0.546,0.543,0.353
1950.0,-7.472,-1.712,2.372,-0.546,0.543,0.353
1954.0,-7.472,-1.712,2.372,-0.319,0.48,0.239
1958.0,-7.472,-1.712,2.372,-0.319,0.48,0.239
1961.0,-7.735,-1.821,2.233,-0.07,0.443,0.147
1965.0,-7.735,-1.821,2.233,-0.07,0.443,0.147
1969.0,-7.735,-1.821,2.027,-0.07,0.443,0.147
1973.0,-8.606,-2.041,2.027,0.183,0.433,0.078
1977.0,-8.606,-2.041,2.027,0.183,0.433,0.078
1981.0,-9.982,-2.323,1.927,0.426,0.433,0.032
1985.0,-9.982,-2.323,1.927,0.426,0.433,0.032
1988.0,-9.982,-2.323,1.927,0.426,0.433,0.032
1992.0,-11.618,-2.686,1.99,0.653,0.413,0.002
1996.0,-11.618,-2.686,1.99,0.653,0.413,0.002
2000.0,-13.247,-3.088,2.088,0.868,0.345,-0.02
2004.0,-13.247,-3.088,2.088,0.868,0.345,-0.02
2008.0,-13.247,-3.088,2.088,0.868,0.345,-0.02
2012.0,-14.407,-3.324,2.108,1.065,0.219,-0.038
2016.0,-14.407,-3.324,2.108,1.065,0.219,-0.038
2020.0,-14.754,-3.31,2.128,1.225,0.051,-0.056
2024.0,-14.754,-3.31,2.128,1.225,0.051,-0.056
2028.0,-14.754,-3.31,2.128,1.225,0.051,-0.056
2032.0,-14.346,-3.121,2.055,1.335,-0.125,-0.089
2036.0,-14.346,-3.121,2.055,1.335,-0.125,-0.089
2040.0,-13.378,-2.767,1.981,1.393,-0.277,-0.149
2044.0,-13.378,-2.767,1.981,1.393,-0.277,-0.149
2048.0,-13.378,-2.294,1.86,1.393,-0.277,-0.149
2052.0,-12.249,-2.294,1.86,1.409,-0.397,-0.237
2056.0,-12.249,-2.294,1.86,1.409,-0.397,-0.237
2061.0,-11.329,-1.795,1.783,1.393,-0.488,-0.347
2065.0,-11.329,-1.795,1.783,1.393,-0.488,-0.347
2069.0,-10.683,-1.359,1.747,1.393,-0.56,-0.472
2073.0,-10.683,-1.359,1.747,1.356,-0.56,-0.472
2077.0,-10.683,-1.359,1.747,1.356,-0.56,-0.472
2081.0,-10.152,-1.019,1.649,1.308,-0.629,-0.602
2085.0,-10.152,-1.019,1.649,1.308,-0.629,-0.602
2089.0,-9.666,-0.748,1.588,1.253,-0.697,-0.726
2093.0,-9.666,-0.748,1.588,1.253,-0.697,-0.726
2097.0,-9.666,-0.748,1.588,1.253,-0.697,-0.726
2101.0,-9.274,-0.558,1.514,1.193,-0.761,-0.84
2105.0,-9.274,-0.558,1.514,1.193,-0.761,-0.84
2109.0,-9.028,-0.453,1.42,1.129,-0.816,-0.939
2113.0,-9.028,-0.453,1.42,1.129,-0.816,-0.939
2117.0,-9.028,-0.453,1.42,1.129,-0.816,-0.939
2121.0,-8.859,-0.433,1.325,1.062,-0.858,-1.021
2125.0,-8.859,-0.433,1.325,1.062,-0.858,-1.021
2129.0,-8.737,-0.479,1.289,0.986,-0.89,-1.09
2133.0,-8.737,-0.479,1.289,0.986,-0.89,-1.09
2137.0,-8.737,-0.479,1.275,0.986,-0.89,-1.09
2141.0,-8.561,-0.536,1.275,0.9,-0.92,-1.147
2145.0,-8.561,-0.536,1.275,0.9,-0.92,-1.147
2149.0,-8.456,-0.625,1.292,0.802,-0.949,-1.191
2153.0,-8.456,-0.625,1.292,0.802,-0.949,-1.191
2157.0,-8.434,-0.745,1.321,0.802,-0.949,-1.191
2161.0,-8.434,-0.745,1.321,0.7,-0.971,-1.223
2165.0,-8.434,-0.745,1.321,0.7,-0.971,-1.223
2169.0,-8.383,-0.919,1.296,0.597,-0.989,-1.24
2173.0,-8.383,-0.919,1.296,0.597,-0.989,-1.24
2177.0,-8.259,-1.11,1.263,0.597,-0.989,-1.24
2181.0,-8.259,-1.11,1.263,0.5,-1.002,-1.237
2185.0,-8.259,-1.11,1.263,0.5,-1.002,-1.237
2189.0,-8.234,-1.283,1.264,0.412,-1.002,-1.214
2193.0,-8.234,-1.283,1.264,0.412,-1.002,-1.214
2197.0,-8.383,-1.489,1.265,0.412,-0.987,-1.167
2201.0,-8.383,-1.489,1.265,0.334,-0.987,-1.167
2205.0,-8.383,-1.489,1.265,0.334,-0.987,-1.167
2209.0,-8.679,-1.712,1.223,0.269,-0.956,-1.092
2213.0,-8.679,-1.712,1.223,0.269,-0.956,-1.092
2217.0,-9.187,-1.936,1.336,0.215,-0.91,-0.98
2221.0,-9.187,-1.936,1.336,0.215,-0.91,-0.98
2225.0,-9.187,-1.936,1.336,0.215,-0.91,-0.98
2229.0,-9.803,-2.246,1.487,0.171,-0.874,-0.829
2233.0,-9.803,-2.246,1.487,0.171,-0.874,-0.829
2237.0,-10.457,-2.584,1.577,0.141,-0.867,-0.651
2241.0,-10.457,-2.584,1.577,0.141,-0.867,-0.651
2245.0,-10.457,-2.584,1.577,0.141,-0.867,-0.651
2249.0,-11.015,-2.91,1.648,0.13,-0.888,-0.47
2253.0,-11.015,-2.91,1.648,0.13,-0.888,-0.47
2257.0,-11.346,-3.17,1.615,0.133,-0.939,-0.311
2261.0,-11.346,-3.17,1.615,0.133,-0.939,-0.311
2265.0,-11.346,-3.17,1.446,0.133,-0.939,-0.311
2269.0,-11.434,-3.307,1.446,0.153,-1.013,-0.193
2274.0,-11.434,-3.307,1.446,0.153,-1.013,-0.193
2278.0,-11.301,-3.352,1.166,0.189,-1.088,-0.123
2282.0,-11.301,-3.352,1.166,0.189,-1.088,-0.123
2286.0,-11.165,-3.296,0.823,0.189,-1.138,-0.099
2290.0,-11.165,-3.296,0.823,0.231,-1.138,-0.099
2294.0,-11.165,-3.296,0.823,0.231,-1.138,-0.099
2298.0,-11.15,-3.224,0.474,0.274,-1.152,-0.111
2302.0,-11.15,-3.224,0.474,0.274,-1.152,-0.111
2306.0,-11.377,-3.125,0.203,0.313,-1.13,-0.148
2310.0,-11.377,-3.125,0.203,0.313,-1.13,-0.148
2314.0,-11.377,-3.125,0.203,0.313,-1.13,-0.148
2318.0,-11.643,-3.032,0.042,0.349,-1.08,-0.202
2323.0,-11.643,-3.032,0.042,0.349,-1.08,-0.202
2327.0,-11.919,-2.956,0.007,0.384,-1.017,-0.271
2331.0,-11.919,-2.956,0.007,0.384,-1.017,-0.271
2335.0,-12.122,-2.949,0.076,0.384,-1.017,-0.271
2339.0,-12.122,-2.949,0.076,0.421,-0.951,-0.357
2343.0,-12.122,-2.949,0.076,0.421,-0.951,-0.357
2347.0,-12.259,-2.903,0.152,0.463,-0.884,-0.461
2351.0,-12.259,-2.903,0.152,0.463,-0.884,-0.461
2355.0,-12.262,-2.889,0.306,0.512,-0.814,-0.578
2359.0,-12.262,-2.889,0.306,0.512,-0.814,-0.578
2363.0,-12.262,-2.889,0.306,0.512,-0.814,-0.578
2367.0,-11.967,-2.836,0.457,0.569,-0.75,-0.703
2371.0,-11.967,-2.836,0.457,0.569,-0.75,-0.703
2376.0,-11.395,-2.735,0.53,0.631,-0.692,-0.833
2380.0,-11.395,-2.735,0.53,0.631,-0.692,-0.833
2384.0,-11.395,-2.735,0.586,0.631,-0.692,-0.833
2388.0,-10.789,-2.609,0.586,0.696,-0.631,-0.964
2392.0,-10.789,-2.609,0.586,0.696,-0.631,-0.964
2396.0,-10.076,-2.478,0.633,0.763,-0.57,-1.087
2400.0,-10.076,-2.478,0.633,0.763,-0.57,-1.087
2404.0,-9.213,-2.378,0.615,0.763,-0.57,-1.202
2408.0,-9.213,-2.378,0.615,0.832,-0.516,-1.202
2412.0,-9.213,-2.378,0.615,0.832,-0.516,-1.202
2416.0,-8.421,-2.305,0.587,0.898,-0.463,-1.309
2420.0,-8.421,-2.305,0.587,0.898,-0.463,-1.309
2424.0,-7.75,-2.255,0.571,0.898,-0.408,-1.411
2428.0,-7.75,-2.255,0.571,0.966,-0.408,-1.411
2432.0,-7.75,-2.255,0.571,0.966,-0.408,-1.411
2436.0,-7.178,-2.227,0.535,1.038,-0.356,-1.507
2440.0,-7.178,-2.227,0.535,1.038,-0.356,-1.507
2444.0,-6.779,-2.206,0.482,1.115,-0.303,-1.596
2448.0,-6.779,-2.206,0.482,1.115,-0.303,-1.596
2452.0,-6.779,-2.206,0.482,1.115,-0.303,-1.596
2456.0,-6.551,-2.21,0.477,1.194,-0.248,-1.674
2460.0,-6.551,-2.21,0.477,1.194,-0.248,-1.674
2464.0,-6.428,-2.203,0.455,1.275,-0.196,-1.736
2468.0,-6.428,-2.203,0.455,1.275,-0.196,-1.736
2472.0,-6.428,-2.203,0.455,1.275,-0.196,-1.736
2476.0,-6.42,-2.217,0.406,1.357,-0.15,-1.781
2480.0,-6.42,-2.217,0.406,1.357,-0.15,-1.781
2484.0,-6.528,-2.231,0.387,1.439,-0.105,-1.802
2488.0,-6.528,-2.231,0.387,1.439,-0.105,-1.802
2492.0,-6.528,-2.231,0.387,1.439,-0.105,-1.802
2496.0,-6.828,-2.243,0.343,1.518,-0.057,-1.796
2500.0,-6.828,-2.243,0.343,1.518,-0.057,-1.796
2504.0,-7.344,-2.297,0.217,1.586,-0.001,-1.757
2508.0,-7.344,-2.297,0.217,1.586,-0.001,-1.757
2512.0,-7.344,-2.297,0.217,1.586,-0.001,-1.757
2516.0,-8.048,-2.413,0.069,1.634,0.075,-1.667
2520.0,-8.048,-2.413,0.069,1.634,0.075,-1.667
2524.0,-8.916,-2.538,0.016,1.654,0.173,-1.518
2528.0,-8.916,-2.538,0.016,1.654,0.173,-1.518
2532.0,-8.916,-2.538,0.016,1.654,0.173,-1.518
2535.0,-10.052,-2.709,0.169,1.645,0.281,-1.308
2539.0,-10.052,-2.709,0.169,1.645,0.281,-1.308
2543.0,-11.322,-2.98,0.507,1.611,0.369,-1.042
2547.0,-11.322,-2.98,0.507,1.611,0.369,-1.042
2551.0,-11.322,-2.98,0.507,1.611,0.369,-1.042
2555.0,-12.499,-3.309,0.846,1.549,0.407,-0.744
2559.0,-12.499,-3.309,0.846,1.549,0.407,-0.744
2563.0,-13.239,-3.602,1.072,1.463,0.395,-0.446
2567.0,-13.239,-3.602,1.072,1.463,0.395,-0.446
2571.0,-13.239,-3.602,1.138,1.463,0.395,-0.446
2575.0,-13.332,-3.771,1.138,1.352,0.355,-0.175
2579.0,-13.332,-3.771,1.138,1.352,0.355,-0.175
2583.0,-12.958,-3.775,0.995,1.218,0.319,0.056
2587.0,-12.958,-3.775,0.995,1.218,0.319,0.056
2591.0,-12.958,-3.775,0.735,1.218,0.319,0.056
2595.0,-12.499,-3.653,0.735,1.061,0.317,0.244
2599.0,-12.499,-3.653,0.735,1.061,0.317,0.244
2603.0,-12.08,-3.453,0.564,0.892,0.362,0.39
2607.0,-12.08,-3.453,0.564,0.892,0.362,0.39
2611.0,-12.08,-3.453,0.564,0.892,0.362,0.39
2615.0,-11.483,-3.236,0.473,0.725,0.441,0.5
2619.0,-11.483,-3.236,0.473,0.725,0.441,0.5
2622.0,-10.549,-3.079,0.593,0.574,0.539,0.567
2626.0,-10.549,-3.079,0.593,0.574,0.539,0.567
2630.0,-10.549,-3.079,0.593,0.574,0.539,0.567
2634.0,-9.395,-3.011,0.96,0.458,0.652,0.585
2638.0,-9.395,-3.011,0.96,0.458,0.652,0.585
2642.0,-8.148,-3.006,1.577,0.404,0.774,0.554
2646.0,-8.148,-3.006,1.577,0.404,0.774,0.554
2649.0,-8.148,-3.006,1.577,0.404,0.774,0.554
2653.0,-6.987,-3.056,2.462,0.432,0.899,0.47
2657.0,-6.987,-3.056,2.462,0.432,0.899,0.47
2661.0,-6.095,-3.119,3.335,0.432,1.002,0.343
2665.0,-6.095,-3.119,3.335,0.553,1.002,0.343
2669.0,-6.095,-3.119,3.335,0.553,1.002,0.343
2672.0,-5.58,-3.133,3.931,0.755,1.064,0.199
2676.0,-5.58,-3.133,3.931,0.755,1.064,0.199
2680.0,-5.58,-3.133,4.165,0.755,1.064,0.199
2684.0,-5.472,-3.084,4.165,1.014,1.094,0.065
2688.0,-5.472,-3.084,4.165,1.014,1.094,0.065
2691.0,-5.7,-3.033,4.119,1.301,1.111,-0.04
2695.0,-5.7,-3.033,4.119,1.301,1.111,-0.04
2699.0,-5.7,-3.033,4.119,1.301,1.111,-0.04
2703.0,-6.099,-3.016,3.96,1.593,1.124,-0.113
2707.0,-6.099,-3.016,3.96,1.593,1.124,-0.113
2711.0,-6.455,-3.071,3.788,1.875,1.121,-0.171
2715.0,-6.455,-3.071,3.788,1.875,1.121,-0.171
2719.0,-6.455,-3.071,3.788,1.875,1.121,-0.171
2723.0,-6.698,-3.126,3.57,2.144,1.094,-0.235
2727.0,-6.698,-3.126,3.57,2.144,1.094,-0.235
2731.0,-6.822,-3.136,3.341,2.395,1.045,-0.31
2734.0,-6.822,-3.136,3.341,2.395,1.045,-0.31
2738.0,-6.822,-3.136,3.341,2.395,1.045,-0.31
2742.0,-6.82,-3.054,3.106,2.624,0.981,-0.394
2746.0,-6.82,-3.054,3.106,2.624,0.981,-0.394
2750.0,-6.793,-2.88,2.877,2.822,0.901,-0.478
2754.0,-6.793,-2.88,2.877,2.822,0.901,-0.478
2758.0,-6.793,-2.88,2.877,2.822,0.901,-0.478
2762.0,-6.798,-2.639,2.633,2.982,0.811,-0.551
2766.0,-6.798,-2.639,2.633,2.982,0.811,-0.551
2770.0,-6.765,-2.364,2.402,2.982,0.713,-0.612
2773.0,-6.765,-2.364,2.402,3.101,0.713,-0.612
2777.0,-6.765,-2.364,2.402,3.101,0.713,-0.612
2781.0,-6.635,-2.025,2.162,3.174,0.61,-0.655
2785.0,-6.635,-2.025,2.162,3.174,0.61,-0.655
2789.0,-6.687,-1.692,1.844,3.174,0.61,-0.678
2793.0,-6.687,-1.692,1.844,3.2,0.518,-0.678
2797.0,-6.687,-1.692,1.844,3.2,0.518,-0.678
2801.0,-7.347,-1.391,1.479,3.171,0.467,-0.667
2805.0,-7.347,-1.391,1.479,3.171,0.467,-0.667
2809.0,-8.547,-1.152,1.19,3.171,0.467,-0.667
2813.0,-8.547,-1.152,1.19,3.091,0.475,-0.605
2816.0,-8.547,-1.152,1.19,3.091,0.475,-0.605
2820.0,-9.916,-0.968,1.043,2.968,0.52,-0.479
2824.0,-9.916,-0.968,1.043,2.968,0.52,-0.479
2828.0,-9.916,-0.794,1.1,2.968,0.52,-0.479
2832.0,-11.282,-0.794,1.1,2.801,0.567,-0.288
2836.0,-11.282,-0.794,1.1,2.801,0.567,-0.288
2840.0,-12.604,-0.661,1.28,2.592,0.594,-0.042
2844.0,-12.604,-0.661,1.28,2.592,0.594,-0.042
2848.0,-13.734,-0.569,1.536,2.592,0.594,-0.042
2852.0,-13.734,-0.569,1.536,2.342,0.595,0.238
2856.0,-13.734,-0.569,1.536,2.342,0.595,0.238
2860.0,-14.442,-0.521,1.846,2.054,0.57,0.524
2864.0,-14.442,-0.521,1.846,2.054,0.57,0.524
2868.0,-14.442,-0.517,2.122,2.054,0.57,0.524
2872.0,-14.722,-0.517,2.122,1.733,0.527,0.791
2875.0,-14.722,-0.517,2.122,1.733,0.527,0.791
2879.0,-14.609,-0.509,2.294,1.385,0.475,1.02
2883.0,-14.609,-0.509,2.294,1.385,0.475,1.02
2887.0,-14.609,-0.509,2.273,1.385,0.475,1.02
2891.0,-14.444,-0.431,2.273,1.01,0.426,1.198
2895.0,-14.444,-0.431,2.273,1.01,0.426,1.198
2899.0,-14.329,-0.222,2.085,0.611,0.391,1.33
2903.0,-14.329,-0.222,2.085,0.611,0.391,1.33
2907.0,-14.329,-0.222,2.085,0.611,0.391,1.33
2911.0,-13.853,0.047,1.851,0.187,0.365,1.434
2914.0,-13.853,0.047,1.851,0.187,0.365,1.434
2918.0,-12.738,0.276,1.625,-0.254,0.331,1.511
2922.0,-12.738,0.276,1.625,-0.254,0.331,1.511
2926.0,-12.738,0.276,1.625,-0.254,0.331,1.511
2930.0,-11.457,0.464,1.36,-0.699,0.281,1.548
2934.0,-11.457,0.464,1.36,-0.699,0.281,1.548
2938.0,-10.323,0.598,1.03,-1.134,0.232,1.533
2942.0,-10.323,0.598,1.03,-1.134,0.232,1.533
2946.0,-10.323,0.598,1.03,-1.134,0.232,1.533
2950.0,-9.428,0.699,0.701,-1.552,0.199,1.463
2953.0,-9.428,0.699,0.701,-1.552,0.199,1.463
2957.0,-8.77,0.796,0.375,-1.552,0.189,1.344
2961.0,-8.77,0.796,0.375,-1.949,0.189,1.344
2965.0,-8.77,0.796,0.375,-1.949,0.189,1.344
2969.0,-8.36,0.848,0.174,-2.324,0.198,1.199
2972.0,-8.36,0.848,0.174,-2.324,0.198,1.199
2976.0,-8.36,0.816,0.071,-2.324,0.198,1.199
2980.0,-8.139,0.816,0.071,-2.674,0.221,1.052
2984.0,-8.139,0.816,0.071,-2.674,0.221,1.052
2988.0,-8.085,0.678,0.065,-2.989,0.246,0.917
2992.0,-8.085,0.678,0.065,-2.989,0.246,0.917
2995.0,-8.085,0.678,0.065,-2.989,0.246,0.917
2999.0,-8.218,0.425,0.153,-3.255,0.27,0.802
