deltaTime,Acc_X,Acc_Y,Acc_Z,Gyro_X,Gyro_Y,Gyro_Z
0.0,-8.402,-3.24,5.201,1.342,0.647,-0.129
3.0,-8.402,-3.24,5.201,1.342,0.647,-0.129
5.0,-8.402,-3.24,5.201,1.342,0.647,-0.129
8.0,-8.731,-2.854,5.324,1.47,0.639,-0.156
11.0,-8.731,-2.854,5.324,1.47,0.639,-0.156
14.0,-8.731,-2.854,5.324,1.47,0.639,-0.156
17.0,-8.731,-2.762,5.518,1.47,0.639,-0.156
20.0,-8.892,-2.762,5.518,1.545,0.616,-0.15
23.0,-8.892,-2.762,5.518,1.545,0.616,-0.15
26.0,-8.892,-2.762,5.518,1.545,0.616,-0.15
29.0,-8.711,-2.57,5.618,1.612,0.577,-0.124
32.0,-8.711,-2.57,5.618,1.612,0.577,-0.124
35.0,-8.711,-2.57,5.618,1.612,0.577,-0.124
39.0,-8.541,-2.393,5.614,1.652,0.538,-0.105
43.0,-8.541,-2.393,5.614,1.652,0.538,-0.105
47.0,-8.541,-2.393,5.614,1.652,0.538,-0.105
50.0,-8.408,-2.114,5.461,1.658,0.499,-0.082
54.0,-8.408,-2.114,5.461,1.658,0.499,-0.082
58.0,-8.266,-1.732,5.267,1.612,0.458,-0.062
62.0,-8.266,-1.732,5.267,1.612,0.458,-0.062
65.0,-8.266,-1.732,5.267,1.612,0.458,-0.062
69.0,-8.172,-1.451,5.109,1.499,0.431,-0.048
73.0,-8.172,-1.451,5.109,1.499,0.431,-0.048
77.0,-8.172,-1.451,4.948,1.499,0.431,-0.048
80.0,-8.067,-1.069,4.948,1.332,0.4,-0.042
84.0,-8.067,-1.069,4.948,1.332,0.4,-0.042
88.0,-8.288,-0.568,4.835,1.078,0.422,-0.028
91.0,-8.288,-0.568,4.835,1.078,0.422,-0.028
95.0,-8.288,-0.568,4.835,1.078,0.422,-0.028
99.0,-8.843,-0.53,4.817,0.76,0.431,0.013
103.0,-8.843,-0.53,4.817,0.76,0.431,0.013
106.0,-8.843,-1.118,4.753,0.76,0.431,0.013
110.0,-9.44,-1.118,4.753,0.439,0.435,0.109
114.0,-9.44,-1.118,4.753,0.439,0.435,0.109
117.0,-10.002,-1.903,4.651,0.174,0.456,0.244
121.0,-10.002,-1.903,4.651,0.174,0.456,0.244
125.0,-10.002,-1.903,4.651,0.174,0.456,0.244
129.0,-10.589,-2.688,4.714,-0.016,0.499,0.381
133.0,-10.589,-2.688,4.714,-0.016,0.499,0.381
137.0,-11.252,-3.235,4.962,-0.135,0.558,0.495
141.0,-11.252,-3.235,4.962,-0.135,0.558,0.495
145.0,-11.252,-3.235,4.962,-0.135,0.558,0.495
148.0,-11.807,-3.617,5.204,-0.207,0.61,0.567
152.0,-11.807,-3.617,5.204,-0.207,0.61,0.567
156.0,-12.305,-3.893,5.403,-0.207,0.654,0.597
160.0,-12.305,-3.893,5.403,-0.238,0.654,0.597
164.0,-12.305,-3.893,5.403,-0.238,0.654,0.597
168.0,-12.695,-4.088,5.649,-0.224,0.696,0.591
172.0,-12.695,-4.088,5.649,-0.224,0.696,0.591
176.0,-12.831,-4.172,5.778,-0.224,0.696,0.552
180.0,-12.831,-4.172,5.778,-0.165,0.722,0.552
184.0,-12.831,-4.172,5.778,-0.165,0.722,0.552
188.0,-12.721,-4.26,5.618,-0.057,0.724,0.49
191.0,-12.721,-4.26,5.618,-0.057,0.724,0.49
195.0,-12.555,-4.045,5.247,-0.057,0.724,0.49
199.0,-12.555,-4.045,5.247,0.093,0.709,0.424
203.0,-12.555,-4.045,5.247,0.093,0.709,0.424
207.0,-12.144,-3.827,4.802,0.252,0.695,0.36
211.0,-12.144,-3.827,4.802,0.252,0.695,0.36
215.0,-12.144,-3.827,4.802,0.252,0.695,0.36
218.0,-11.566,-3.47,4.234,0.403,0.699,0.297
222.0,-11.566,-3.47,4.234,0.403,0.699,0.297
226.0,-11.239,-3.084,3.687,0.512,0.733,0.249
230.0,-11.239,-3.084,3.687,0.512,0.733,0.249
234.0,-11.239,-3.084,3.687,0.512,0.733,0.249
237.0,-11.311,-2.731,3.352,0.554,0.792,0.218
241.0,-11.311,-2.731,3.352,0.554,0.792,0.218
245.0,-11.73,-2.62,3.306,0.554,0.861,0.199
249.0,-11.73,-2.62,3.306,0.525,0.861,0.199
253.0,-11.73,-2.62,3.306,0.525,0.861,0.199
257.0,-12.233,-2.74,3.473,0.458,0.912,0.197
260.0,-12.233,-2.74,3.473,0.458,0.912,0.197
264.0,-12.233,-2.466,3.605,0.458,0.912,0.197
268.0,-12.474,-2.466,3.605,0.376,0.929,0.198
272.0,-12.474,-2.466,3.605,0.376,0.929,0.198
276.0,-12.753,-2.094,3.714,0.217,0.893,0.141
279.0,-12.753,-2.094,3.714,0.217,0.893,0.141
283.0,-12.753,-2.094,3.714,0.217,0.893,0.141
287.0,-12.475,-2.024,3.753,-0.017,0.78,0.074
291.0,-12.475,-2.024,3.753,-0.017,0.78,0.074
295.0,-11.639,-2.326,3.767,-0.242,0.615,0.03
299.0,-11.639,-2.326,3.767,-0.242,0.615,0.03
303.0,-11.639,-2.326,3.767,-0.242,0.615,0.03
307.0,-10.758,-2.674,3.565,-0.374,0.447,-0.004
311.0,-10.758,-2.674,3.565,-0.374,0.447,-0.004
315.0,-9.928,-2.871,3.129,-0.4,0.263,-0.065
319.0,-9.928,-2.871,3.129,-0.4,0.263,-0.065
322.0,-9.928,-2.871,3.129,-0.4,0.263,-0.065
326.0,-9.279,-2.837,2.47,-0.355,0.074,-0.173
330.0,-9.279,-2.837,2.47,-0.355,0.074,-0.173
334.0,-9.134,-2.702,1.606,-0.287,-0.074,-0.316
338.0,-9.134,-2.702,1.606,-0.287,-0.074,-0.316
342.0,-9.134,-2.702,1.606,-0.287,-0.074,-0.316
346.0,-9.823,-2.484,0.721,-0.217,-0.151,-0.452
350.0,-9.823,-2.484,0.721,-0.217,-0.151,-0.452
354.0,-11.023,-2.336,0.113,-0.162,-0.173,-0.553
358.0,-11.023,-2.336,0.113,-0.162,-0.173,-0.553
362.0,-11.023,-2.336,0.113,-0.162,-0.173,-0.553
366.0,-12.139,-2.259,-0.179,-0.123,-0.191,-0.614
371.0,-12.139,-2.259,-0.179,-0.123,-0.191,-0.614
375.0,-12.848,-2.239,-0.196,-0.091,-0.239,-0.648
379.0,-12.848,-2.239,-0.196,-0.091,-0.239,-0.648
383.0,-13.038,-2.205,-0.106,-0.091,-0.239,-0.672
387.0,-13.038,-2.205,-0.106,-0.062,-0.332,-0.672
391.0,-13.038,-2.205,-0.106,-0.062,-0.332,-0.672
396.0,-12.744,-2.155,-0.044,-0.035,-0.458,-0.694
400.0,-12.744,-2.155,-0.044,-0.035,-0.458,-0.694
404.0,-12.178,-2.058,-0.054,-0.014,-0.596,-0.719
408.0,-12.178,-2.058,-0.054,-0.014,-0.596,-0.719
412.0,-12.178,-2.058,-0.104,-0.014,-0.596,-0.719
416.0,-11.534,-1.898,-0.104,-0.005,-0.723,-0.75
421.0,-11.534,-1.898,-0.104,-0.005,-0.723,-0.75
425.0,-10.937,-1.698,-0.167,-0.009,-0.83,-0.781
429.0,-10.937,-1.698,-0.167,-0.009,-0.83,-0.781
433.0,-10.479,-1.448,-0.284,-0.031,-0.919,-0.804
437.0,-10.479,-1.448,-0.284,-0.031,-0.919,-0.804
441.0,-10.479,-1.448,-0.284,-0.031,-0.919,-0.804
446.0,-10.129,-1.174,-0.432,-0.07,-0.988,-0.807
450.0,-10.129,-1.174,-0.432,-0.07,-0.988,-0.807
454.0,-9.83,-0.873,-0.639,-0.128,-1.038,-0.778
458.0,-9.83,-0.873,-0.639,-0.128,-1.038,-0.778
462.0,-9.517,-0.587,-0.844,-0.128,-1.038,-0.713
466.0,-9.517,-0.587,-0.844,-0.206,-1.065,-0.713
470.0,-9.517,-0.587,-0.844,-0.206,-1.065,-0.713
474.0,-9.235,-0.363,-0.94,-0.298,-1.075,-0.613
478.0,-9.235,-0.363,-0.94,-0.298,-1.075,-0.613
482.0,-9.042,-0.197,-1.031,-0.399,-1.076,-0.493
487.0,-9.042,-0.197,-1.031,-0.399,-1.076,-0.493
491.0,-9.042,-0.197,-1.031,-0.399,-1.076,-0.493
495.0,-8.927,-0.064,-1.14,-0.51,-1.074,-0.365
499.0,-8.927,-0.064,-1.14,-0.51,-1.074,-0.365
503.0,-8.833,0.084,-1.25,-0.628,-1.07,-0.24
507.0,-8.833,0.084,-1.25,-0.628,-1.07,-0.24
511.0,-8.833,0.084,-1.436,-0.628,-1.07,-0.24
515.0,-8.661,0.265,-1.436,-0.755,-1.063,-0.119
519.0,-8.661,0.265,-1.436,-0.755,-1.063,-0.119
523.0,-8.411,0.44,-1.56,-0.896,-1.052,-0.005
527.0,-8.411,0.44,-1.56,-0.896,-1.052,-0.005
531.0,-8.411,0.581,-1.615,-0.896,-1.052,-0.005
535.0,-8.146,0.581,-1.615,-1.047,-1.03,0.102
539.0,-8.146,0.581,-1.615,-1.047,-1.03,0.102
543.0,-7.932,0.657,-1.663,-1.199,-0.999,0.205
546.0,-7.932,0.657,-1.663,-1.199,-0.999,0.205
550.0,-7.932,0.657,-1.681,-1.199,-0.999,0.205
554.0,-7.813,0.684,-1.681,-1.343,-0.959,0.303
558.0,-7.813,0.684,-1.681,-1.343,-0.959,0.303
562.0,-7.772,0.73,-1.683,-1.477,-0.907,0.396
566.0,-7.772,0.73,-1.683,-1.477,-0.907,0.396
570.0,-7.772,0.73,-1.613,-1.477,-0.907,0.396
574.0,-7.798,0.75,-1.613,-1.61,-0.842,0.49
578.0,-7.798,0.75,-1.613,-1.61,-0.842,0.49
582.0,-7.906,0.77,-1.521,-1.744,-0.777,0.577
586.0,-7.906,0.77,-1.521,-1.744,-0.777,0.577
589.0,-7.906,0.77,-1.521,-1.744,-0.777,0.577
593.0,-8.06,0.811,-1.479,-1.879,-0.72,0.651
597.0,-8.06,0.811,-1.479,-1.879,-0.72,0.651
601.0,-8.195,0.812,-1.437,-2.012,-0.671,0.711
605.0,-8.195,0.812,-1.437,-2.012,-0.671,0.711
609.0,-8.195,0.812,-1.437,-2.012,-0.671,0.711
613.0,-8.237,0.867,-1.401,-2.137,-0.626,0.753
617.0,-8.237,0.867,-1.401,-2.137,-0.626,0.753
621.0,-8.219,1.02,-1.336,-2.252,-0.583,0.789
625.0,-8.219,1.02,-1.336,-2.252,-0.583,0.789
629.0,-8.219,1.02,-1.336,-2.252,-0.583,0.789
632.0,-8.235,1.296,-1.181,-2.355,-0.542,0.835
636.0,-8.235,1.296,-1.181,-2.355,-0.542,0.835
640.0,-8.277,1.61,-1.095,-2.447,-0.513,0.908
644.0,-8.277,1.61,-1.095,-2.447,-0.513,0.908
648.0,-8.277,1.61,-1.095,-2.447,-0.513,0.908
652.0,-8.28,1.853,-1.049,-2.534,-0.493,1.012
656.0,-8.28,1.853,-1.049,-2.534,-0.493,1.012
660.0,-8.212,1.922,-1.036,-2.624,-0.478,1.134
664.0,-8.212,1.922,-1.036,-2.624,-0.478,1.134
668.0,-8.212,1.922,-1.036,-2.624,-0.478,1.134
671.0,-8.115,1.883,-1.018,-2.72,-0.462,1.254
675.0,-8.115,1.883,-1.018,-2.72,-0.462,1.254
679.0,-8.017,1.757,-1.033,-2.72,-0.439,1.36
683.0,-8.017,1.757,-1.033,-2.826,-0.439,1.36
687.0,-8.017,1.757,-1.033,-2.826,-0.439,1.36
691.0,-7.968,1.634,-1.043,-2.947,-0.406,1.442
695.0,-7.968,1.634,-1.043,-2.947,-0.406,1.442
699.0,-7.942,1.519,-1.088,-2.947,-0.406,1.442
703.0,-7.942,1.519,-1.088,-3.086,-0.364,1.499
707.0,-7.942,1.519,-1.088,-3.086,-0.364,1.499
711.0,-7.951,1.419,-1.122,-3.242,-0.314,1.537
714.0,-7.951,1.419,-1.122,-3.242,-0.314,1.537
718.0,-7.985,1.161,-1.104,-3.242,-0.314,1.537
722.0,-7.985,1.161,-1.104,-3.412,-0.254,1.555
726.0,-7.985,1.161,-1.104,-3.412,-0.254,1.555
730.0,-7.836,1.056,-1.008,-3.581,-0.188,1.547
734.0,-7.836,1.056,-1.008,-3.581,-0.188,1.547
738.0,-7.836,1.056,-0.851,-3.581,-0.188,1.547
742.0,-7.744,0.937,-0.851,-3.75,-0.124,1.52
746.0,-7.744,0.937,-0.851,-3.75,-0.124,1.52
750.0,-7.704,0.803,-0.632,-3.902,-0.063,1.496
754.0,-7.704,0.803,-0.632,-3.902,-0.063,1.496
757.0,-7.704,0.803,-0.632,-3.902,-0.063,1.496
761.0,-7.731,0.689,-0.373,-4.022,-0.014,1.484
765.0,-7.731,0.689,-0.373,-4.022,-0.014,1.484
769.0,-7.895,0.579,-0.104,-4.102,0.019,1.487
773.0,-7.895,0.579,-0.104,-4.102,0.019,1.487
777.0,-7.895,0.579,-0.104,-4.102,0.019,1.487
781.0,-8.084,0.451,0.119,-4.145,0.037,1.503
784.0,-8.084,0.451,0.119,-4.145,0.037,1.503
788.0,-8.262,0.297,0.317,-4.157,0.043,1.529
792.0,-8.262,0.297,0.317,-4.157,0.043,1.529
796.0,-8.262,0.297,0.317,-4.157,0.043,1.529
799.0,-8.451,0.068,0.459,-4.144,0.039,1.569
803.0,-8.451,0.068,0.459,-4.144,0.039,1.569
807.0,-8.451,0.068,0.459,-4.144,0.039,1.569
810.0,-8.666,-0.228,0.5,-4.111,0.032,1.619
814.0,-8.666,-0.228,0.5,-4.111,0.032,1.619
818.0,-8.916,-0.543,0.496,-4.06,0.039,1.67
822.0,-8.916,-0.543,0.496,-4.06,0.039,1.67
826.0,-8.916,-0.543,0.496,-4.06,0.039,1.67
830.0,-9.261,-0.862,0.431,-3.993,0.068,1.718
833.0,-9.261,-0.862,0.431,-3.993,0.068,1.718
837.0,-9.697,-1.169,0.385,-3.993,0.068,1.764
841.0,-9.697,-1.169,0.385,-3.912,0.124,1.764
845.0,-9.697,-1.169,0.385,-3.912,0.124,1.764
849.0,-10.221,-1.439,0.456,-3.817,0.205,1.811
853.0,-10.221,-1.439,0.456,-3.817,0.205,1.811
856.0,-10.221,-1.694,0.727,-3.817,0.205,1.811
860.0,-10.825,-1.694,0.727,-3.708,0.295,1.863
864.0,-10.825,-1.694,0.727,-3.708,0.295,1.863
868.0,-11.479,-1.951,1.101,-3.575,0.383,1.924
872.0,-11.479,-1.951,1.101,-3.575,0.383,1.924
876.0,-11.479,-1.951,1.496,-3.575,0.383,1.924
880.0,-12.154,-2.2,1.496,-3.414,0.461,1.994
884.0,-12.154,-2.2,1.496,-3.414,0.461,1.994
888.0,-12.818,-2.463,1.905,-3.226,0.522,2.074
892.0,-12.818,-2.463,1.905,-3.226,0.522,2.074
896.0,-12.818,-2.463,1.905,-3.226,0.522,2.074
899.0,-13.365,-2.705,2.309,-3.01,0.561,2.159
903.0,-13.365,-2.705,2.309,-3.01,0.561,2.159
907.0,-13.643,-2.882,2.642,-2.769,0.581,2.245
911.0,-13.643,-2.882,2.642,-2.769,0.581,2.245
915.0,-13.643,-2.882,2.642,-2.769,0.581,2.245
919.0,-13.568,-3.034,2.937,-2.502,0.592,2.32
923.0,-13.568,-3.034,2.937,-2.502,0.592,2.32
927.0,-13.117,-3.108,3.136,-2.214,0.601,2.372
931.0,-13.117,-3.108,3.136,-2.214,0.601,2.372
935.0,-13.117,-3.108,3.136,-2.214,0.601,2.372
938.0,-12.553,-3.087,3.248,-1.918,0.617,2.388
942.0,-12.553,-3.087,3.248,-1.918,0.617,2.388
946.0,-12.072,-2.99,3.281,-1.626,0.649,2.369
950.0,-12.072,-2.99,3.281,-1.626,0.649,2.369
954.0,-12.072,-2.99,3.281,-1.626,0.649,2.369
958.0,-11.687,-2.866,3.309,-1.346,0.697,2.323
962.0,-11.687,-2.866,3.309,-1.346,0.697,2.323
966.0,-11.588,-2.73,3.413,-1.082,0.76,2.257
970.0,-11.588,-2.73,3.413,-1.082,0.76,2.257
974.0,-11.588,-2.73,3.413,-1.082,0.76,2.257
978.0,-11.956,-2.613,3.469,-0.832,0.831,2.181
981.0,-11.956,-2.613,3.469,-0.832,0.831,2.181
985.0,-12.881,-2.512,3.386,-0.832,0.905,2.104
989.0,-12.881,-2.512,3.386,-0.596,0.905,2.104
993.0,-12.881,-2.512,3.386,-0.596,0.905,2.104
997.0,-14.316,-2.466,3.286,-0.384,0.985,2.032
1001.0,-14.316,-2.466,3.286,-0.384,0.985,2.032
1005.0,-16.067,-2.527,3.334,-0.384,0.985,1.975
1009.0,-16.067,-2.527,3.334,-0.196,1.064,1.975
1013.0,-16.067,-2.527,3.334,-0.196,1.064,1.975
1017.0,-17.591,-2.631,3.593,-0.028,1.11,1.929
1021.0,-17.591,-2.631,3.593,-0.028,1.11,1.929
1025.0,-18.243,-2.769,3.926,0.119,1.088,1.886
1029.0,-18.243,-2.769,3.926,0.119,1.088,1.886
1033.0,-18.243,-2.769,3.926,0.119,1.088,1.886
1037.0,-17.535,-2.814,4.235,0.243,0.989,1.821
1041.0,-17.535,-2.814,4.235,0.243,0.989,1.821
1044.0,-15.852,-2.73,4.354,0.243,0.989,1.707
1048.0,-15.852,-2.73,4.354,0.339,0.84,1.707
1052.0,-15.852,-2.73,4.354,0.339,0.84,1.707
1056.0,-13.851,-2.529,4.341,0.408,0.686,1.528
1060.0,-13.851,-2.529,4.341,0.408,0.686,1.528
1064.0,-11.766,-2.286,4.33,0.408,0.686,1.528
1068.0,-11.766,-2.286,4.33,0.457,0.539,1.289
1072.0,-11.766,-2.286,4.33,0.457,0.539,1.289
1076.0,-9.812,-2.015,4.326,0.492,0.385,1.0
1080.0,-9.812,-2.015,4.326,0.492,0.385,1.0
1083.0,-9.812,-2.015,4.012,0.492,0.385,1.0
1087.0,-8.22,-1.732,4.012,0.518,0.229,0.685
1091.0,-8.22,-1.732,4.012,0.518,0.229,0.685
1095.0,-7.321,-1.443,3.482,0.533,0.109,0.369
1099.0,-7.321,-1.443,3.482,0.533,0.109,0.369
1102.0,-7.321,-1.443,3.482,0.533,0.109,0.369
1106.0,-7.3,-1.234,2.91,0.535,0.049,0.091
1110.0,-7.3,-1.234,2.91,0.535,0.049,0.091
1114.0,-8.165,-1.234,2.427,0.526,0.034,-0.127
1118.0,-8.165,-1.234,2.427,0.526,0.034,-0.127
1122.0,-8.165,-1.234,2.427,0.526,0.034,-0.127
1126.0,-9.646,-1.478,2.213,0.52,0.029,-0.295
1130.0,-9.646,-1.478,2.213,0.52,0.029,-0.295
1133.0,-11.273,-1.902,2.267,0.52,-0.014,-0.444
1138.0,-11.273,-1.902,2.267,0.533,-0.014,-0.444
1142.0,-11.273,-1.902,2.267,0.533,-0.014,-0.444
1146.0,-12.54,-2.299,2.353,0.57,-0.132,-0.602
1150.0,-12.54,-2.299,2.353,0.57,-0.132,-0.602
1154.0,-13.177,-2.494,2.287,0.625,-0.321,-0.785
1158.0,-13.177,-2.494,2.287,0.625,-0.321,-0.785
1162.0,-13.177,-2.494,2.287,0.625,-0.321,-0.785
1166.0,-12.966,-2.326,2.147,0.677,-0.546,-0.997
1170.0,-12.966,-2.326,2.147,0.677,-0.546,-0.997
1174.0,-12.028,-1.927,1.887,0.703,-0.763,-1.224
1178.0,-12.028,-1.927,1.887,0.703,-0.763,-1.224
1182.0,-10.884,-1.503,1.618,0.703,-0.763,-1.224
1186.0,-10.884,-1.503,1.618,0.69,-0.929,-1.45
1191.0,-10.884,-1.503,1.618,0.69,-0.929,-1.45
1195.0,-9.945,-1.13,1.448,0.64,-1.031,-1.657
1199.0,-9.945,-1.13,1.448,0.64,-1.031,-1.657
1203.0,-9.377,-0.866,1.328,0.56,-1.085,-1.837
1207.0,-9.377,-0.866,1.328,0.56,-1.085,-1.837
1211.0,-9.377,-0.866,1.328,0.56,-1.085,-1.837
1215.0,-9.124,-0.736,1.269,0.462,-1.115,-1.991
1219.0,-9.124,-0.736,1.269,0.462,-1.115,-1.991
1223.0,-9.12,-0.712,1.215,0.355,-1.133,-2.122
1227.0,-9.12,-0.712,1.215,0.355,-1.133,-2.122
1231.0,-9.12,-0.712,1.215,0.355,-1.133,-2.122
1235.0,-9.251,-0.775,1.164,0.251,-1.146,-2.229
1239.0,-9.251,-0.775,1.164,0.251,-1.146,-2.229
1243.0,-9.416,-0.938,1.117,0.157,-1.154,-2.311
1247.0,-9.416,-0.938,1.117,0.157,-1.154,-2.311
1251.0,-9.416,-0.938,1.117,0.157,-1.154,-2.311
1255.0,-9.535,-1.127,1.074,0.079,-1.155,-2.368
1259.0,-9.535,-1.127,1.074,0.079,-1.155,-2.368
1263.0,-9.622,-1.33,1.03,0.018,-1.145,-2.4
1267.0,-9.622,-1.33,1.03,0.018,-1.145,-2.4
1271.0,-9.622,-1.33,1.03,0.018,-1.145,-2.4
1275.0,-9.641,-1.545,0.986,-0.027,-1.124,-2.407
1279.0,-9.641,-1.545,0.986,-0.027,-1.124,-2.407
1283.0,-9.575,-1.747,0.96,-0.054,-1.095,-2.391
1287.0,-9.575,-1.747,0.96,-0.054,-1.095,-2.391
1291.0,-9.501,-1.952,0.927,-0.054,-1.095,-2.391
1295.0,-9.501,-1.952,0.927,-0.064,-1.056,-2.358
1299.0,-9.501,-1.952,0.927,-0.064,-1.056,-2.358
1303.0,-9.425,-2.136,0.851,-0.057,-1.009,-2.31
1307.0,-9.425,-2.136,0.851,-0.057,-1.009,-2.31
1311.0,-9.356,-2.317,0.79,-0.033,-0.948,-2.251
1315.0,-9.356,-2.317,0.79,-0.033,-0.948,-2.251
1319.0,-9.356,-2.317,0.79,-0.033,-0.948,-2.251
1323.0,-9.288,-2.469,0.782,0.011,-0.878,-2.185
1327.0,-9.288,-2.469,0.782,0.011,-0.878,-2.185
1331.0,-9.235,-2.606,0.792,0.075,-0.806,-2.11
1335.0,-9.235,-2.606,0.792,0.075,-0.806,-2.11
1339.0,-9.235,-2.606,0.792,0.075,-0.806,-2.11
1343.0,-9.177,-2.734,0.807,0.164,-0.733,-2.027
1347.0,-9.177,-2.734,0.807,0.164,-0.733,-2.027
1351.0,-9.141,-2.857,0.799,0.278,-0.665,-1.936
1355.0,-9.141,-2.857,0.799,0.278,-0.665,-1.936
1359.0,-9.141,-2.857,0.799,0.278,-0.665,-1.936
1363.0,-9.111,-2.941,0.778,0.416,-0.598,-1.839
1367.0,-9.111,-2.941,0.778,0.416,-0.598,-1.839
1371.0,-9.102,-3.019,0.772,0.58,-0.534,-1.736
1375.0,-9.102,-3.019,0.772,0.58,-0.534,-1.736
1379.0,-9.102,-3.019,0.751,0.58,-0.534,-1.736
1383.0,-9.113,-3.101,0.751,0.768,-0.473,-1.628
1387.0,-9.113,-3.101,0.751,0.768,-0.473,-1.628
1391.0,-9.179,-3.18,0.692,0.977,-0.416,-1.516
1395.0,-9.179,-3.18,0.692,0.977,-0.416,-1.516
1399.0,-9.179,-3.255,0.653,0.977,-0.416,-1.516
1403.0,-9.322,-3.255,0.653,1.207,-0.366,-1.403
1407.0,-9.322,-3.255,0.653,1.207,-0.366,-1.403
1411.0,-9.581,-3.326,0.609,1.454,-0.322,-1.291
1415.0,-9.581,-3.326,0.609,1.454,-0.322,-1.291
1419.0,-9.919,-3.397,0.544,1.454,-0.322,-1.291
1423.0,-9.919,-3.397,0.544,1.713,-0.29,-1.183
1427.0,-9.919,-3.397,0.544,1.713,-0.29,-1.183
1431.0,-10.224,-3.423,0.465,1.978,-0.273,-1.079
1435.0,-10.224,-3.423,0.465,1.978,-0.273,-1.079
1439.0,-10.43,-3.404,0.388,1.978,-0.27,-0.979
1444.0,-10.43,-3.404,0.388,2.236,-0.27,-0.979
1448.0,-10.43,-3.404,0.388,2.236,-0.27,-0.979
1452.0,-10.491,-3.351,0.275,2.481,-0.276,-0.89
1456.0,-10.491,-3.351,0.275,2.481,-0.276,-0.89
1460.0,-10.429,-3.244,0.198,2.706,-0.289,-0.815
1464.0,-10.429,-3.244,0.198,2.706,-0.289,-0.815
1468.0,-10.429,-3.244,0.198,2.706,-0.289,-0.815
1472.0,-10.296,-3.116,0.127,2.908,-0.306,-0.754
1476.0,-10.296,-3.116,0.127,2.908,-0.306,-0.754
1480.0,-10.107,-2.941,0.033,3.088,-0.326,-0.708
1484.0,-10.107,-2.941,0.033,3.088,-0.326,-0.708
1488.0,-9.918,-2.753,-0.028,3.088,-0.326,-0.708
1492.0,-9.918,-2.753,-0.028,3.239,-0.348,-0.676
1497.0,-9.918,-2.753,-0.028,3.239,-0.348,-0.676
1501.0,-9.817,-2.578,-0.084,3.363,-0.371,-0.658
1505.0,-9.817,-2.578,-0.084,3.363,-0.371,-0.658
1509.0,-9.83,-2.377,-0.14,3.459,-0.395,-0.656
1513.0,-9.83,-2.377,-0.14,3.459,-0.395,-0.656
1517.0,-9.83,-2.377,-0.14,3.459,-0.395,-0.656
1521.0,-9.936,-2.167,-0.234,3.525,-0.42,-0.666
1525.0,-9.936,-2.167,-0.234,3.525,-0.42,-0.666
1529.0,-10.073,-1.914,-0.334,3.559,-0.443,-0.685
1533.0,-10.073,-1.914,-0.334,3.559,-0.443,-0.685
1538.0,-10.073,-1.683,-0.396,3.559,-0.443,-0.685
1542.0,-10.181,-1.683,-0.396,3.557,-0.465,-0.711
1546.0,-10.181,-1.683,-0.396,3.557,-0.465,-0.711
1550.0,-10.297,-1.469,-0.437,3.525,-0.484,-0.734
1554.0,-10.297,-1.469,-0.437,3.525,-0.484,-0.734
1558.0,-10.46,-1.278,-0.421,3.464,-0.495,-0.753
1563.0,-10.46,-1.278,-0.421,3.464,-0.495,-0.753
1567.0,-10.46,-1.278,-0.421,3.464,-0.495,-0.753
1571.0,-10.732,-1.117,-0.389,3.376,-0.501,-0.773
1575.0,-10.732,-1.117,-0.389,3.376,-0.501,-0.773
1579.0,-11.073,-0.97,-0.333,3.262,-0.502,-0.787
1583.0,-11.073,-0.97,-0.333,3.262,-0.502,-0.787
1588.0,-11.45,-0.88,-0.312,3.262,-0.503,-0.796
1592.0,-11.45,-0.88,-0.312,3.127,-0.503,-0.796
1596.0,-11.45,-0.88,-0.312,3.127,-0.503,-0.796
1600.0,-11.821,-0.802,-0.335,2.972,-0.502,-0.794
1604.0,-11.821,-0.802,-0.335,2.972,-0.502,-0.794
1608.0,-11.951,-0.744,-0.339,2.799,-0.497,-0.786
1613.0,-11.951,-0.744,-0.339,2.799,-0.497,-0.786
1617.0,-11.499,-0.666,-0.209,2.799,-0.497,-0.786
1621.0,-11.499,-0.666,-0.209,2.609,-0.499,-0.769
1625.0,-11.499,-0.666,-0.209,2.609,-0.499,-0.769
1629.0,-10.722,-0.587,-0.053,2.406,-0.507,-0.752
1633.0,-10.722,-0.587,-0.053,2.406,-0.507,-0.752
1638.0,-10.11,-0.506,0.069,2.197,-0.498,-0.741
1642.0,-10.11,-0.506,0.069,2.197,-0.498,-0.741
1646.0,-10.11,-0.506,0.069,2.197,-0.498,-0.741
1650.0,-9.937,-0.428,0.103,1.984,-0.457,-0.733
1654.0,-9.937,-0.428,0.103,1.984,-0.457,-0.733
1658.0,-10.152,-0.403,0.087,1.767,-0.387,-0.71
1662.0,-10.152,-0.403,0.087,1.767,-0.387,-0.71
1666.0,-10.601,-0.416,0.137,1.767,-0.387,-0.71
1670.0,-10.601,-0.416,0.137,1.541,-0.296,-0.652
1674.0,-10.601,-0.416,0.137,1.541,-0.296,-0.652
1678.0,-11.029,-0.491,0.3,1.312,-0.2,-0.554
1682.0,-11.029,-0.491,0.3,1.312,-0.2,-0.554
1686.0,-11.27,-0.604,0.53,1.088,-0.112,-0.422
1690.0,-11.27,-0.604,0.53,1.088,-0.112,-0.422
1694.0,-11.27,-0.604,0.53,1.088,-0.112,-0.422
1699.0,-11.249,-0.739,0.73,0.872,-0.04,-0.273
1703.0,-11.249,-0.739,0.73,0.872,-0.04,-0.273
1707.0,-10.835,-0.863,0.927,0.669,0.014,-0.129
1711.0,-10.835,-0.863,0.927,0.669,0.014,-0.129
1715.0,-10.835,-0.863,0.927,0.669,0.014,-0.129
1719.0,-10.082,-0.928,1.117,0.482,0.046,-0.018
1723.0,-10.082,-0.928,1.117,0.482,0.046,-0.018
1727.0,-9.164,-0.918,1.232,0.316,0.055,0.048
1731.0,-9.164,-0.918,1.232,0.316,0.055,0.048
1734.0,-9.164,-0.918,1.232,0.316,0.055,0.048
1738.0,-8.252,-0.851,1.259,0.174,0.055,0.07
1742.0,-8.252,-0.851,1.259,0.174,0.055,0.07
1746.0,-7.347,-0.786,1.234,0.057,0.059,0.051
1750.0,-7.347,-0.786,1.234,0.057,0.059,0.051
1753.0,-7.347,-0.786,1.234,0.057,0.059,0.051
1757.0,-6.528,-0.698,1.14,-0.036,0.083,-0.002
1761.0,-6.528,-0.698,1.14,-0.036,0.083,-0.002
1765.0,-5.961,-0.574,1.026,-0.036,0.143,-0.07
1769.0,-5.961,-0.574,1.026,-0.114,0.143,-0.07
1773.0,-5.961,-0.574,1.026,-0.114,0.143,-0.07
1777.0,-5.67,-0.447,0.948,-0.181,0.247,-0.127
1781.0,-5.67,-0.447,0.948,-0.181,0.247,-0.127
1785.0,-5.782,-0.364,0.891,-0.24,0.393,-0.149
1789.0,-5.782,-0.364,0.891,-0.24,0.393,-0.149
1793.0,-5.782,-0.364,0.891,-0.24,0.393,-0.149
1797.0,-6.236,-0.397,0.912,-0.293,0.57,-0.117
1801.0,-6.236,-0.397,0.912,-0.293,0.57,-0.117
1805.0,-6.844,-0.572,1.049,-0.339,0.755,-0.032
1809.0,-6.844,-0.572,1.049,-0.339,0.755,-0.032
1813.0,-6.844,-0.572,1.049,-0.339,0.755,-0.032
1817.0,-7.506,-0.83,1.265,-0.374,0.926,0.101
1821.0,-7.506,-0.83,1.265,-0.374,0.926,0.101
1825.0,-8.142,-1.162,1.503,-0.393,1.068,0.262
1829.0,-8.142,-1.162,1.503,-0.393,1.068,0.262
1833.0,-8.142,-1.162,1.503,-0.393,1.068,0.262
1837.0,-8.741,-1.495,1.7,-0.395,1.178,0.448
1841.0,-8.741,-1.495,1.7,-0.395,1.178,0.448
1844.0,-9.145,-1.8,1.902,-0.381,1.256,0.648
1848.0,-9.145,-1.8,1.902,-0.381,1.256,0.648
1852.0,-9.145,-1.8,1.902,-0.381,1.256,0.648
1856.0,-9.392,-2.066,2.084,-0.35,1.304,0.856
1860.0,-9.392,-2.066,2.084,-0.35,1.304,0.856
1864.0,-9.642,-2.281,2.196,-0.304,1.331,1.059
1868.0,-9.642,-2.281,2.196,-0.304,1.331,1.059
1872.0,-9.642,-2.281,2.196,-0.304,1.331,1.059
1876.0,-9.985,-2.472,2.221,-0.242,1.344,1.254
1880.0,-9.985,-2.472,2.221,-0.242,1.344,1.254
1884.0,-10.397,-2.614,2.154,-0.242,1.345,1.442
1888.0,-10.397,-2.614,2.154,-0.167,1.345,1.442
1892.0,-10.397,-2.614,2.154,-0.167,1.345,1.442
1896.0,-10.948,-2.737,2.058,-0.078,1.34,1.626
1900.0,-10.948,-2.737,2.058,-0.078,1.34,1.626
1904.0,-11.677,-2.834,1.947,0.019,1.33,1.801
1907.0,-11.677,-2.834,1.947,0.019,1.33,1.801
1911.0,-11.677,-2.834,1.947,0.019,1.33,1.801
1915.0,-12.433,-2.917,1.869,0.123,1.312,1.967
1919.0,-12.433,-2.917,1.869,0.123,1.312,1.967
1923.0,-13.013,-2.986,1.906,0.123,1.275,2.111
1927.0,-13.013,-2.986,1.906,0.236,1.275,2.111
1931.0,-13.013,-2.986,1.906,0.236,1.275,2.111
1935.0,-13.284,-3.165,2.009,0.36,1.21,2.212
1939.0,-13.284,-3.165,2.009,0.36,1.21,2.212
1943.0,-13.239,-3.401,2.015,0.36,1.21,2.246
1946.0,-13.239,-3.401,2.015,0.506,1.111,2.246
1950.0,-13.239,-3.401,2.015,0.506,1.111,2.246
1954.0,-12.982,-3.616,1.975,0.683,0.993,2.195
1958.0,-12.982,-3.616,1.975,0.683,0.993,2.195
1962.0,-12.62,-3.647,1.917,0.683,0.993,2.195
1966.0,-12.62,-3.647,1.917,0.884,0.884,2.057
1970.0,-12.62,-3.647,1.917,0.884,0.884,2.057
1974.0,-12.252,-3.432,1.809,1.081,0.792,1.856
1978.0,-12.252,-3.432,1.809,1.081,0.792,1.856
1982.0,-12.252,-3.432,1.617,1.081,0.792,1.856
1986.0,-11.919,-3.046,1.617,1.241,0.715,1.612
1989.0,-11.919,-3.046,1.617,1.241,0.715,1.612
1993.0,-11.594,-2.527,1.424,1.344,0.652,1.333
1997.0,-11.594,-2.527,1.424,1.344,0.652,1.333
2001.0,-11.594,-2.527,1.424,1.344,0.652,1.333
2005.0,-11.204,-1.99,1.266,1.384,0.599,1.032
2009.0,-11.204,-1.99,1.266,1.384,0.599,1.032
2013.0,-10.782,-1.478,1.162,1.37,0.556,0.729
2017.0,-10.782,-1.478,1.162,1.37,0.556,0.729
2021.0,-10.782,-1.478,1.162,1.37,0.556,0.729
2025.0,-10.412,-1.045,1.156,1.312,0.528,0.435
2029.0,-10.412,-1.045,1.156,1.312,0.528,0.435
2032.0,-9.985,-0.717,1.219,1.226,0.505,0.164
2036.0,-9.985,-0.717,1.219,1.226,0.505,0.164
2040.0,-9.985,-0.717,1.219,1.226,0.505,0.164
2044.0,-9.695,-0.429,1.365,1.111,0.478,-0.08
2048.0,-9.695,-0.429,1.365,1.111,0.478,-0.08
2052.0,-9.678,-0.315,1.543,0.977,0.448,-0.288
2056.0,-9.678,-0.315,1.543,0.977,0.448,-0.288
2059.0,-9.678,-0.315,1.543,0.977,0.448,-0.288
2063.0,-9.732,-0.352,1.683,0.834,0.412,-0.449
2067.0,-9.732,-0.352,1.683,0.834,0.412,-0.449
2071.0,-9.766,-0.46,1.774,0.834,0.374,-0.58
2075.0,-9.766,-0.46,1.774,0.682,0.374,-0.58
2079.0,-9.766,-0.46,1.774,0.682,0.374,-0.58
2083.0,-9.715,-0.626,1.867,0.525,0.335,-0.694
2087.0,-9.715,-0.626,1.867,0.525,0.335,-0.694
2091.0,-9.655,-0.818,1.946,0.525,0.335,-0.795
2095.0,-9.655,-0.818,1.946,0.366,0.297,-0.795
2099.0,-9.655,-0.818,1.946,0.366,0.297,-0.795
2102.0,-9.58,-1.056,2.029,0.208,0.262,-0.879
2106.0,-9.58,-1.056,2.029,0.208,0.262,-0.879
2110.0,-9.49,-1.324,2.066,0.208,0.262,-0.879
2114.0,-9.49,-1.324,2.066,0.051,0.231,-0.949
2118.0,-9.49,-1.324,2.066,0.051,0.231,-0.949
2122.0,-9.47,-1.61,2.1,-0.095,0.205,-1.001
2126.0,-9.47,-1.61,2.1,-0.095,0.205,-1.001
2130.0,-9.477,-1.889,2.135,-0.095,0.205,-1.001
2134.0,-9.477,-1.889,2.135,-0.222,0.182,-1.034
2138.0,-9.477,-1.889,2.135,-0.222,0.182,-1.034
2142.0,-9.465,-2.141,2.194,-0.319,0.158,-1.046
2146.0,-9.465,-2.141,2.194,-0.319,0.158,-1.046
2150.0,-9.401,-2.384,2.207,-0.319,0.158,-1.042
2154.0,-9.401,-2.384,2.207,-0.382,0.132,-1.042
2158.0,-9.401,-2.384,2.207,-0.382,0.132,-1.042
2162.0,-9.345,-2.565,2.166,-0.408,0.102,-1.024
2166.0,-9.345,-2.565,2.166,-0.408,0.102,-1.024
2170.0,-9.263,-2.664,2.139,-0.408,0.074,-0.996
2174.0,-9.263,-2.664,2.139,-0.397,0.074,-0.996
2178.0,-9.263,-2.664,2.139,-0.397,0.074,-0.996
2182.0,-9.112,-2.716,2.102,-0.352,0.047,-0.954
2186.0,-9.112,-2.716,2.102,-0.352,0.047,-0.954
2190.0,-9.006,-2.716,2.081,-0.275,0.024,-0.903
2194.0,-9.006,-2.716,2.081,-0.275,0.024,-0.903
2198.0,-9.006,-2.716,2.081,-0.275,0.024,-0.903
2202.0,-8.928,-2.679,2.058,-0.171,0.004,-0.841
2206.0,-8.928,-2.679,2.058,-0.171,0.004,-0.841
2210.0,-8.835,-2.652,2.045,-0.045,-0.02,-0.772
2214.0,-8.835,-2.652,2.045,-0.045,-0.02,-0.772
2218.0,-8.835,-2.652,2.045,-0.045,-0.02,-0.772
2222.0,-8.692,-2.636,2.032,0.101,-0.048,-0.703
2226.0,-8.692,-2.636,2.032,0.101,-0.048,-0.703
2230.0,-8.608,-2.598,1.966,0.259,-0.075,-0.64
2234.0,-8.608,-2.598,1.966,0.259,-0.075,-0.64
2238.0,-8.608,-2.598,1.966,0.259,-0.075,-0.64
2242.0,-8.692,-2.549,1.923,0.421,-0.096,-0.583
2246.0,-8.692,-2.549,1.923,0.421,-0.096,-0.583
2250.0,-8.882,-2.524,1.869,0.58,-0.109,-0.53
2254.0,-8.882,-2.524,1.869,0.58,-0.109,-0.53
2258.0,-8.882,-2.515,1.865,0.58,-0.109,-0.53
2262.0,-9.075,-2.515,1.865,0.732,-0.125,-0.477
2266.0,-9.075,-2.515,1.865,0.732,-0.125,-0.477
2270.0,-9.29,-2.509,1.865,0.875,-0.147,-0.43
2274.0,-9.29,-2.509,1.865,0.875,-0.147,-0.43
2278.0,-9.55,-2.514,1.836,0.875,-0.147,-0.43
2282.0,-9.55,-2.514,1.836,1.006,-0.172,-0.395
2286.0,-9.55,-2.514,1.836,1.006,-0.172,-0.395
2290.0,-9.86,-2.477,1.787,1.121,-0.199,-0.372
2294.0,-9.86,-2.477,1.787,1.121,-0.199,-0.372
2298.0,-10.161,-2.422,1.764,1.121,-0.199,-0.358
2302.0,-10.161,-2.422,1.764,1.215,-0.227,-0.358
2306.0,-10.161,-2.422,1.764,1.215,-0.227,-0.358
2310.0,-10.386,-2.353,1.767,1.291,-0.261,-0.353
2314.0,-10.386,-2.353,1.767,1.291,-0.261,-0.353
2318.0,-10.517,-2.28,1.735,1.351,-0.303,-0.359
2322.0,-10.517,-2.28,1.735,1.351,-0.303,-0.359
2327.0,-10.517,-2.28,1.735,1.351,-0.303,-0.359
2331.0,-10.591,-2.196,1.675,1.397,-0.35,-0.379
2335.0,-10.591,-2.196,1.675,1.397,-0.35,-0.379
2339.0,-10.65,-2.097,1.599,1.429,-0.398,-0.412
2343.0,-10.65,-2.097,1.599,1.429,-0.398,-0.412
2347.0,-10.65,-1.982,1.488,1.429,-0.398,-0.412
2351.0,-10.735,-1.982,1.488,1.447,-0.441,-0.453
2355.0,-10.735,-1.982,1.488,1.447,-0.441,-0.453
2359.0,-10.775,-1.853,1.403,1.448,-0.479,-0.501
2363.0,-10.775,-1.853,1.403,1.448,-0.479,-0.501
2367.0,-10.839,-1.742,1.318,1.448,-0.516,-0.55
2371.0,-10.839,-1.742,1.318,1.436,-0.516,-0.55
2375.0,-10.839,-1.742,1.318,1.436,-0.516,-0.55
2380.0,-10.896,-1.619,1.286,1.409,-0.551,-0.6
2384.0,-10.896,-1.619,1.286,1.409,-0.551,-0.6
2388.0,-10.893,-1.51,1.278,1.369,-0.587,-0.65
2392.0,-10.893,-1.51,1.278,1.369,-0.587,-0.65
2396.0,-10.893,-1.51,1.278,1.369,-0.587,-0.65
2400.0,-10.847,-1.408,1.226,1.316,-0.627,-0.699
2404.0,-10.847,-1.408,1.226,1.316,-0.627,-0.699
2408.0,-10.792,-1.29,1.172,1.251,-0.665,-0.747
2412.0,-10.792,-1.29,1.172,1.251,-0.665,-0.747
2416.0,-10.73,-1.217,1.108,1.251,-0.665,-0.747
2420.0,-10.73,-1.217,1.108,1.17,-0.698,-0.796
2424.0,-10.73,-1.217,1.108,1.17,-0.698,-0.796
2429.0,-10.697,-1.14,1.082,1.074,-0.723,-0.84
2433.0,-10.697,-1.14,1.082,1.074,-0.723,-0.84
2437.0,-10.605,-1.1,1.046,0.967,-0.743,-0.881
2441.0,-10.605,-1.1,1.046,0.967,-0.743,-0.881
2445.0,-10.605,-1.1,1.046,0.967,-0.743,-0.881
2449.0,-10.571,-1.059,0.996,0.848,-0.756,-0.917
2453.0,-10.571,-1.059,0.996,0.848,-0.756,-0.917
2457.0,-10.665,-1.043,0.994,0.724,-0.756,-0.946
2461.0,-10.665,-1.043,0.994,0.724,-0.756,-0.946
2465.0,-10.665,-1.043,1.013,0.724,-0.756,-0.946
2469.0,-10.732,-1.063,1.013,0.597,-0.753,-0.965
2473.0,-10.732,-1.063,1.013,0.597,-0.753,-0.965
2477.0,-10.697,-1.1,1.016,0.472,-0.752,-0.972
2482.0,-10.697,-1.1,1.016,0.472,-0.752,-0.972
2486.0,-10.568,-1.135,1.0,0.472,-0.752,-0.972
2490.0,-10.568,-1.135,1.0,0.352,-0.752,-0.972
2494.0,-10.568,-1.135,1.0,0.352,-0.752,-0.972
2498.0,-10.458,-1.168,0.984,0.237,-0.746,-0.969
2502.0,-10.458,-1.168,0.984,0.237,-0.746,-0.969
2506.0,-10.295,-1.184,0.956,0.128,-0.738,-0.96
2510.0,-10.295,-1.184,0.956,0.128,-0.738,-0.96
2514.0,-10.295,-1.184,0.956,0.128,-0.738,-0.96
2518.0,-10.03,-1.217,0.918,0.022,-0.724,-0.944
2522.0,-10.03,-1.217,0.918,0.022,-0.724,-0.944
2526.0,-9.767,-1.227,0.89,-0.078,-0.704,-0.924
2530.0,-9.767,-1.227,0.89,-0.078,-0.704,-0.924
2535.0,-9.572,-1.25,0.882,-0.078,-0.704,-0.924
2539.0,-9.572,-1.25,0.882,-0.173,-0.674,-0.903
2543.0,-9.572,-1.25,0.882,-0.173,-0.674,-0.903
2547.0,-9.454,-1.273,0.879,-0.258,-0.642,-0.877
2551.0,-9.454,-1.273,0.879,-0.258,-0.642,-0.877
2555.0,-9.318,-1.303,0.882,-0.335,-0.61,-0.848
2559.0,-9.318,-1.303,0.882,-0.335,-0.61,-0.848
2563.0,-9.318,-1.303,0.882,-0.335,-0.61,-0.848
2567.0,-9.136,-1.34,0.871,-0.403,-0.579,-0.815
2571.0,-9.136,-1.34,0.871,-0.403,-0.579,-0.815
2575.0,-8.961,-1.369,0.872,-0.462,-0.546,-0.784
2579.0,-8.961,-1.369,0.872,-0.462,-0.546,-0.784
2584.0,-8.961,-1.369,0.881,-0.462,-0.546,-0.784
2588.0,-8.813,-1.405,0.881,-0.512,-0.51,-0.754
2592.0,-8.813,-1.405,0.881,-0.512,-0.51,-0.754
2596.0,-8.719,-1.446,0.879,-0.55,-0.471,-0.723
2600.0,-8.719,-1.446,0.879,-0.55,-0.471,-0.723
2604.0,-8.633,-1.476,0.898,-0.55,-0.471,-0.693
2608.0,-8.633,-1.476,0.898,-0.58,-0.428,-0.693
2612.0,-8.633,-1.476,0.898,-0.58,-0.428,-0.693
2616.0,-8.539,-1.5,0.916,-0.6,-0.386,-0.662
2620.0,-8.539,-1.5,0.916,-0.6,-0.386,-0.662
2624.0,-8.493,-1.528,0.967,-0.608,-0.345,-0.632
2628.0,-8.493,-1.528,0.967,-0.608,-0.345,-0.632
2632.0,-8.493,-1.528,0.967,-0.608,-0.345,-0.632
2637.0,-8.485,-1.534,0.981,-0.608,-0.306,-0.603
2641.0,-8.485,-1.534,0.981,-0.608,-0.306,-0.603
2645.0,-8.506,-1.545,0.971,-0.602,-0.267,-0.574
2649.0,-8.506,-1.545,0.971,-0.602,-0.267,-0.574
2653.0,-8.506,-1.548,0.984,-0.602,-0.267,-0.574
2657.0,-8.539,-1.548,0.984,-0.591,-0.227,-0.543
2661.0,-8.539,-1.548,0.984,-0.591,-0.227,-0.543
2665.0,-8.605,-1.566,1.031,-0.576,-0.189,-0.51
2669.0,-8.605,-1.566,1.031,-0.576,-0.189,-0.51
2673.0,-8.655,-1.566,1.073,-0.576,-0.154,-0.479
2677.0,-8.655,-1.566,1.073,-0.555,-0.154,-0.479
2681.0,-8.655,-1.566,1.073,-0.555,-0.154,-0.479
2686.0,-8.695,-1.556,1.085,-0.531,-0.124,-0.451
2690.0,-8.695,-1.556,1.085,-0.531,-0.124,-0.451
2694.0,-8.803,-1.527,1.047,-0.506,-0.093,-0.425
2698.0,-8.803,-1.527,1.047,-0.506,-0.093,-0.425
2702.0,-8.803,-1.527,1.047,-0.506,-0.093,-0.425
2706.0,-8.977,-1.502,0.97,-0.485,-0.055,-0.398
2710.0,-8.977,-1.502,0.97,-0.485,-0.055,-0.398
2714.0,-9.154,-1.479,0.927,-0.471,-0.01,-0.362
2718.0,-9.154,-1.479,0.927,-0.471,-0.01,-0.362
2722.0,-9.276,-1.481,0.944,-0.471,-0.01,-0.362
2726.0,-9.276,-1.481,0.944,-0.463,0.041,-0.315
2730.0,-9.276,-1.481,0.944,-0.463,0.041,-0.315
2734.0,-9.312,-1.5,1.004,-0.461,0.091,-0.259
2738.0,-9.312,-1.5,1.004,-0.461,0.091,-0.259
2742.0,-9.297,-1.512,1.048,-0.461,0.138,-0.199
2746.0,-9.297,-1.512,1.048,-0.46,0.138,-0.199
2750.0,-9.297,-1.512,1.048,-0.46,0.138,-0.199
2754.0,-9.31,-1.528,1.059,-0.461,0.184,-0.138
2758.0,-9.31,-1.528,1.059,-0.461,0.184,-0.138
2762.0,-9.385,-1.542,1.084,-0.464,0.232,-0.073
2766.0,-9.385,-1.542,1.084,-0.464,0.232,-0.073
2770.0,-9.385,-1.542,1.084,-0.464,0.232,-0.073
2774.0,-9.385,-1.561,1.135,-0.472,0.281,-0.002
2778.0,-9.385,-1.561,1.135,-0.472,0.281,-0.002
2782.0,-9.24,-1.592,1.219,-0.479,0.323,0.071
2786.0,-9.24,-1.592,1.219,-0.479,0.323,0.071
2790.0,-9.24,-1.592,1.219,-0.479,0.323,0.071
2794.0,-9.056,-1.612,1.308,-0.484,0.353,0.136
2798.0,-9.056,-1.612,1.308,-0.484,0.353,0.136
2802.0,-9.007,-1.578,1.325,-0.486,0.377,0.19
2806.0,-9.007,-1.578,1.325,-0.486,0.377,0.19
2810.0,-9.007,-1.578,1.325,-0.486,0.377,0.19
2813.0,-9.095,-1.529,1.253,-0.488,0.399,0.234
2817.0,-9.095,-1.529,1.253,-0.488,0.399,0.234
2821.0,-9.212,-1.485,1.19,-0.488,0.422,0.275
2825.0,-9.212,-1.485,1.19,-0.495,0.422,0.275
2829.0,-9.212,-1.485,1.19,-0.495,0.422,0.275
2833.0,-9.261,-1.46,1.182,-0.508,0.442,0.317
2837.0,-9.261,-1.46,1.182,-0.508,0.442,0.317
2841.0,-9.274,-1.437,1.204,-0.508,0.442,0.355
2845.0,-9.274,-1.437,1.204,-0.522,0.459,0.355
2849.0,-9.274,-1.437,1.204,-0.522,0.459,0.355
2853.0,-9.29,-1.395,1.234,-0.539,0.473,0.385
2856.0,-9.29,-1.395,1.234,-0.539,0.473,0.385
2860.0,-9.391,-1.353,1.241,-0.539,0.473,0.385
2864.0,-9.391,-1.353,1.241,-0.559,0.483,0.407
2868.0,-9.391,-1.353,1.241,-0.559,0.483,0.407
2872.0,-9.582,-1.313,1.252,-0.586,0.493,0.424
2876.0,-9.582,-1.313,1.252,-0.586,0.493,0.424
2880.0,-9.582,-1.273,1.328,-0.586,0.493,0.424
2884.0,-9.711,-1.273,1.328,-0.621,0.498,0.444
2888.0,-9.711,-1.273,1.328,-0.621,0.498,0.444
2892.0,-9.684,-1.243,1.436,-0.662,0.492,0.465
2896.0,-9.684,-1.243,1.436,-0.662,0.492,0.465
2899.0,-9.684,-1.243,1.534,-0.662,0.492,0.465
2903.0,-9.531,-1.229,1.534,-0.707,0.475,0.48
2907.0,-9.531,-1.229,1.534,-0.707,0.475,0.48
2911.0,-9.405,-1.189,1.557,-0.757,0.447,0.482
2915.0,-9.405,-1.189,1.557,-0.757,0.447,0.482
2919.0,-9.405,-1.189,1.557,-0.757,0.447,0.482
2923.0,-9.315,-1.128,1.518,-0.814,0.418,0.473
2927.0,-9.315,-1.128,1.518,-0.814,0.418,0.473
2931.0,-9.242,-1.049,1.472,-0.88,0.388,0.457
2935.0,-9.242,-1.049,1.472,-0.88,0.388,0.457
2938.0,-9.242,-1.049,1.472,-0.88,0.388,0.457
2942.0,-9.202,-0.964,1.417,-0.957,0.362,0.437
2946.0,-9.202,-0.964,1.417,-0.957,0.362,0.437
2950.0,-9.187,-0.907,1.381,-1.043,0.34,0.416
2954.0,-9.187,-0.907,1.381,-1.043,0.34,0.416
2958.0,-9.187,-0.907,1.381,-1.043,0.34,0.416
2962.0,-9.206,-0.867,1.36,-1.136,0.322,0.398
2966.0,-9.206,-0.867,1.36,-1.136,0.322,0.398
2970.0,-9.293,-0.843,1.359,-1.233,0.306,0.384
2974.0,-9.293,-0.843,1.359,-1.233,0.306,0.384
2978.0,-9.293,-0.843,1.359,-1.233,0.306,0.384
2981.0,-9.431,-0.836,1.354,-1.336,0.291,0.373
2985.0,-9.431,-0.836,1.354,-1.336,0.291,0.373
2989.0,-9.553,-0.883,1.388,-1.439,0.276,0.366
2993.0,-9.553,-0.883,1.388,-1.439,0.276,0.366
2997.0,-9.553,-0.883,1.388,-1.439,0.276,0.366
