deltaTime,Acc_X,Acc_Y,Acc_Z,Gyro_X,Gyro_Y,Gyro_Z
0.0,-8.984,-2.112,1.271,0.445,-0.267,0.129
3.0,-8.984,-2.112,1.271,0.445,-0.267,0.129
6.0,-9.001,-2.189,0.958,0.464,-0.276,0.145
9.0,-9.001,-2.189,0.958,0.464,-0.276,0.145
12.0,-9.001,-2.189,0.958,0.464,-0.276,0.145
15.0,-9.346,-2.463,0.861,0.477,-0.243,0.168
18.0,-9.346,-2.463,0.861,0.477,-0.243,0.168
21.0,-9.346,-2.463,0.861,0.477,-0.243,0.168
24.0,-9.346,-2.463,1.01,0.477,-0.243,0.168
27.0,-9.535,-2.649,1.01,0.512,-0.194,0.198
30.0,-9.535,-2.649,1.01,0.512,-0.194,0.198
33.0,-9.535,-2.649,1.01,0.512,-0.194,0.198
36.0,-9.409,-2.511,1.214,0.561,-0.166,0.212
40.0,-9.409,-2.511,1.214,0.561,-0.166,0.212
44.0,-9.409,-2.511,1.287,0.561,-0.166,0.212
47.0,-9.404,-2.241,1.287,0.59,-0.168,0.193
51.0,-9.404,-2.241,1.287,0.59,-0.168,0.193
55.0,-9.534,-2.015,1.301,0.595,-0.173,0.164
59.0,-9.534,-2.015,1.301,0.595,-0.173,0.164
62.0,-9.534,-2.015,1.301,0.595,-0.173,0.164
66.0,-9.309,-1.641,1.19,0.585,-0.172,0.135
70.0,-9.309,-1.641,1.19,0.585,-0.172,0.135
74.0,-9.309,-1.362,1.079,0.585,-0.172,0.135
77.0,-9.192,-1.362,1.079,0.534,-0.151,0.109
81.0,-9.192,-1.362,1.079,0.534,-0.151,0.109
85.0,-9.09,-1.405,1.131,0.464,-0.107,0.103
88.0,-9.09,-1.405,1.131,0.464,-0.107,0.103
92.0,-9.09,-1.405,1.131,0.464,-0.107,0.103
96.0,-9.004,-1.591,1.202,0.423,-0.059,0.119
100.0,-9.004,-1.591,1.202,0.423,-0.059,0.119
103.0,-9.18,-1.886,1.328,0.423,-0.059,0.143
107.0,-9.18,-1.886,1.328,0.424,-0.019,0.143
111.0,-9.18,-1.886,1.328,0.424,-0.019,0.143
115.0,-9.227,-2.188,1.435,0.464,0.008,0.164
119.0,-9.227,-2.188,1.435,0.464,0.008,0.164
122.0,-9.227,-2.188,1.435,0.464,0.008,0.164
126.0,-9.299,-2.249,1.455,0.53,0.021,0.178
130.0,-9.299,-2.249,1.455,0.53,0.021,0.178
134.0,-9.404,-2.128,1.235,0.577,0.041,0.176
137.0,-9.404,-2.128,1.235,0.577,0.041,0.176
141.0,-9.404,-2.128,1.235,0.577,0.041,0.176
145.0,-9.4,-1.906,1.353,0.576,0.084,0.157
149.0,-9.4,-1.906,1.353,0.576,0.084,0.157
152.0,-9.4,-1.906,1.638,0.576,0.084,0.157
156.0,-9.218,-1.7,1.638,0.535,0.118,0.131
160.0,-9.218,-1.7,1.638,0.535,0.118,0.131
163.0,-9.392,-1.495,1.881,0.478,0.131,0.11
167.0,-9.392,-1.495,1.881,0.478,0.131,0.11
171.0,-9.392,-1.495,1.881,0.478,0.131,0.11
175.0,-9.876,-1.398,1.938,0.414,0.134,0.094
178.0,-9.876,-1.398,1.938,0.414,0.134,0.094
182.0,-9.876,-1.228,2.084,0.414,0.134,0.094
186.0,-10.171,-1.228,2.084,0.345,0.147,0.08
190.0,-10.171,-1.228,2.084,0.345,0.147,0.08
193.0,-10.309,-1.116,2.437,0.269,0.157,0.063
197.0,-10.309,-1.116,2.437,0.269,0.157,0.063
201.0,-10.309,-1.116,2.437,0.269,0.157,0.063
205.0,-10.243,-0.908,2.777,0.202,0.134,0.047
209.0,-10.243,-0.908,2.777,0.202,0.134,0.047
213.0,-10.323,-0.638,2.872,0.128,0.075,0.027
216.0,-10.323,-0.638,2.872,0.128,0.075,0.027
220.0,-10.323,-0.638,2.872,0.128,0.075,0.027
224.0,-10.6,-0.409,2.456,0.016,0.018,0.002
228.0,-10.6,-0.409,2.456,0.016,0.018,0.002
232.0,-10.815,-0.075,2.04,0.016,0.018,0.002
235.0,-10.815,-0.075,2.04,-0.158,-0.006,-0.012
240.0,-10.815,-0.075,2.04,-0.158,-0.006,-0.012
244.0,-10.847,-0.176,1.942,-0.383,-0.013,-0.005
248.0,-10.847,-0.176,1.942,-0.383,-0.013,-0.005
252.0,-10.507,-0.347,2.267,-0.383,-0.051,0.042
256.0,-10.507,-0.347,2.267,-0.603,-0.051,0.042
260.0,-10.507,-0.347,2.267,-0.603,-0.051,0.042
264.0,-10.093,-0.769,2.528,-0.774,-0.105,0.108
268.0,-10.093,-0.769,2.528,-0.774,-0.105,0.108
272.0,-10.019,-1.211,2.548,-0.868,-0.134,0.161
276.0,-10.019,-1.211,2.548,-0.868,-0.134,0.161
280.0,-10.019,-1.211,2.548,-0.868,-0.134,0.161
284.0,-10.249,-1.299,2.502,-0.908,-0.154,0.186
288.0,-10.249,-1.299,2.502,-0.908,-0.154,0.186
292.0,-11.191,-1.313,2.414,-0.954,-0.198,0.183
296.0,-11.191,-1.313,2.414,-0.954,-0.198,0.183
300.0,-11.191,-1.313,2.414,-0.954,-0.198,0.183
304.0,-11.423,-1.51,2.292,-1.014,-0.294,0.191
308.0,-11.423,-1.51,2.292,-1.014,-0.294,0.191
312.0,-11.173,-1.688,2.084,-1.056,-0.381,0.216
316.0,-11.173,-1.688,2.084,-1.056,-0.381,0.216
320.0,-11.173,-1.688,2.084,-1.056,-0.381,0.216
324.0,-11.003,-1.886,1.906,-1.071,-0.42,0.252
328.0,-11.003,-1.886,1.906,-1.071,-0.42,0.252
332.0,-10.881,-2.099,1.714,-1.061,-0.424,0.293
336.0,-10.881,-2.099,1.714,-1.061,-0.424,0.293
340.0,-10.881,-2.099,1.714,-1.061,-0.424,0.293
344.0,-10.767,-2.276,1.604,-1.03,-0.416,0.33
348.0,-10.767,-2.276,1.604,-1.03,-0.416,0.33
352.0,-10.617,-2.368,1.564,-0.984,-0.405,0.354
356.0,-10.617,-2.368,1.564,-0.984,-0.405,0.354
360.0,-10.617,-2.368,1.558,-0.984,-0.405,0.354
364.0,-10.365,-2.378,1.558,-0.926,-0.398,0.362
368.0,-10.365,-2.378,1.558,-0.926,-0.398,0.362
372.0,-10.075,-2.339,1.564,-0.86,-0.395,0.353
376.0,-10.075,-2.339,1.564,-0.86,-0.395,0.353
380.0,-10.075,-2.323,1.515,-0.86,-0.395,0.353
384.0,-9.806,-2.323,1.515,-0.792,-0.393,0.337
387.0,-9.806,-2.323,1.515,-0.792,-0.393,0.337
391.0,-9.63,-2.331,1.462,-0.723,-0.387,0.317
395.0,-9.63,-2.331,1.462,-0.723,-0.387,0.317
399.0,-9.63,-2.305,1.426,-0.723,-0.387,0.317
403.0,-9.384,-2.305,1.426,-0.648,-0.382,0.295
407.0,-9.384,-2.305,1.426,-0.648,-0.382,0.295
411.0,-9.016,-2.293,1.353,-0.569,-0.38,0.274
415.0,-9.016,-2.293,1.353,-0.569,-0.38,0.274
419.0,-9.016,-2.293,1.251,-0.569,-0.38,0.274
423.0,-8.695,-2.276,1.251,-0.49,-0.374,0.254
427.0,-8.695,-2.276,1.251,-0.49,-0.374,0.254
430.0,-8.398,-2.253,1.151,-0.414,-0.362,0.233
434.0,-8.398,-2.253,1.151,-0.414,-0.362,0.233
438.0,-8.398,-2.253,1.151,-0.414,-0.362,0.233
442.0,-8.085,-2.219,1.076,-0.34,-0.347,0.21
446.0,-8.085,-2.219,1.076,-0.34,-0.347,0.21
450.0,-7.87,-2.197,0.953,-0.274,-0.33,0.188
454.0,-7.87,-2.197,0.953,-0.274,-0.33,0.188
458.0,-7.87,-2.197,0.953,-0.274,-0.33,0.188
462.0,-7.944,-2.209,0.77,-0.219,-0.293,0.17
466.0,-7.944,-2.209,0.77,-0.219,-0.293,0.17
470.0,-8.135,-2.237,0.68,-0.17,-0.238,0.158
473.0,-8.135,-2.237,0.68,-0.17,-0.238,0.158
477.0,-8.135,-2.237,0.68,-0.17,-0.238,0.158
481.0,-8.286,-2.267,0.726,-0.124,-0.182,0.157
485.0,-8.286,-2.267,0.726,-0.124,-0.182,0.157
489.0,-8.413,-2.322,0.802,-0.078,-0.133,0.162
493.0,-8.413,-2.322,0.802,-0.078,-0.133,0.162
497.0,-8.413,-2.322,0.802,-0.078,-0.133,0.162
501.0,-8.593,-2.351,0.912,-0.03,-0.085,0.171
505.0,-8.593,-2.351,0.912,-0.03,-0.085,0.171
509.0,-8.739,-2.369,1.061,0.021,-0.047,0.177
512.0,-8.739,-2.369,1.061,0.021,-0.047,0.177
516.0,-8.739,-2.369,1.061,0.021,-0.047,0.177
520.0,-8.814,-2.304,1.135,0.073,-0.026,0.179
524.0,-8.814,-2.304,1.135,0.073,-0.026,0.179
528.0,-8.823,-2.206,1.059,0.073,-0.026,0.179
532.0,-8.823,-2.206,1.059,0.122,-0.012,0.173
535.0,-8.823,-2.206,1.059,0.122,-0.012,0.173
539.0,-8.815,-2.107,0.957,0.16,0.011,0.163
543.0,-8.815,-2.107,0.957,0.16,0.011,0.163
547.0,-8.815,-2.107,0.957,0.16,0.011,0.163
550.0,-8.746,-2.009,0.884,0.184,0.044,0.152
554.0,-8.746,-2.009,0.884,0.184,0.044,0.152
558.0,-8.757,-1.951,0.818,0.184,0.084,0.143
562.0,-8.757,-1.951,0.818,0.191,0.084,0.143
565.0,-8.757,-1.951,0.818,0.191,0.084,0.143
569.0,-8.9,-1.95,0.83,0.183,0.135,0.136
573.0,-8.9,-1.95,0.83,0.183,0.135,0.136
576.0,-8.9,-1.95,0.83,0.183,0.135,0.136
580.0,-9.2,-1.969,0.899,0.171,0.183,0.131
584.0,-9.2,-1.969,0.899,0.171,0.183,0.131
588.0,-9.456,-1.982,1.012,0.158,0.219,0.124
591.0,-9.456,-1.982,1.012,0.158,0.219,0.124
595.0,-9.456,-1.982,1.012,0.158,0.219,0.124
599.0,-9.514,-1.914,1.229,0.151,0.234,0.115
603.0,-9.514,-1.914,1.229,0.151,0.234,0.115
606.0,-9.514,-1.914,1.378,0.151,0.234,0.115
610.0,-9.45,-1.807,1.378,0.147,0.225,0.1
614.0,-9.45,-1.807,1.378,0.147,0.225,0.1
618.0,-9.603,-1.735,1.395,0.14,0.208,0.076
621.0,-9.603,-1.735,1.395,0.14,0.208,0.076
625.0,-9.603,-1.735,1.395,0.14,0.208,0.076
629.0,-9.985,-1.681,1.3,0.127,0.197,0.044
632.0,-9.985,-1.681,1.3,0.127,0.197,0.044
636.0,-9.985,-1.567,1.263,0.127,0.197,0.044
640.0,-10.227,-1.567,1.263,0.108,0.184,0.004
644.0,-10.227,-1.567,1.263,0.108,0.184,0.004
648.0,-10.204,-1.461,1.239,0.082,0.151,-0.037
651.0,-10.204,-1.461,1.239,0.082,0.151,-0.037
655.0,-10.204,-1.461,1.239,0.082,0.151,-0.037
659.0,-10.17,-1.369,1.129,0.053,0.115,-0.084
663.0,-10.17,-1.369,1.129,0.053,0.115,-0.084
667.0,-10.203,-1.286,1.018,0.019,0.098,-0.136
671.0,-10.203,-1.286,1.018,0.019,0.098,-0.136
675.0,-10.203,-1.286,1.018,0.019,0.098,-0.136
679.0,-10.207,-1.225,0.997,-0.019,0.097,-0.184
683.0,-10.207,-1.225,0.997,-0.019,0.097,-0.184
687.0,-10.075,-1.226,1.002,-0.055,0.098,-0.226
691.0,-10.075,-1.226,1.002,-0.055,0.098,-0.226
695.0,-10.075,-1.226,1.002,-0.055,0.098,-0.226
699.0,-9.869,-1.232,1.083,-0.086,0.1,-0.266
703.0,-9.869,-1.232,1.083,-0.086,0.1,-0.266
707.0,-9.638,-1.242,1.134,-0.106,0.098,-0.31
710.0,-9.638,-1.242,1.134,-0.106,0.098,-0.31
714.0,-9.638,-1.242,1.134,-0.106,0.098,-0.31
718.0,-9.556,-1.222,1.222,-0.117,0.094,-0.35
722.0,-9.556,-1.222,1.222,-0.117,0.094,-0.35
726.0,-9.724,-1.211,1.249,-0.12,0.094,-0.381
730.0,-9.724,-1.211,1.249,-0.12,0.094,-0.381
734.0,-9.724,-1.211,1.249,-0.12,0.094,-0.381
738.0,-10.015,-1.216,1.181,-0.119,0.096,-0.395
742.0,-10.015,-1.216,1.181,-0.119,0.096,-0.395
746.0,-10.135,-1.231,1.097,-0.116,0.093,-0.39
750.0,-10.135,-1.231,1.097,-0.116,0.093,-0.39
754.0,-10.135,-1.231,1.097,-0.116,0.093,-0.39
758.0,-9.979,-1.263,1.014,-0.117,0.087,-0.373
762.0,-9.979,-1.263,1.014,-0.117,0.087,-0.373
766.0,-9.59,-1.308,0.941,-0.121,0.086,-0.351
770.0,-9.59,-1.308,0.941,-0.121,0.086,-0.351
773.0,-9.59,-1.308,0.941,-0.121,0.086,-0.351
777.0,-9.115,-1.321,0.837,-0.126,0.092,-0.333
781.0,-9.115,-1.321,0.837,-0.126,0.092,-0.333
785.0,-8.721,-1.327,0.732,-0.133,0.116,-0.32
789.0,-8.721,-1.327,0.732,-0.133,0.116,-0.32
793.0,-8.721,-1.327,0.732,-0.133,0.116,-0.32
797.0,-8.473,-1.309,0.642,-0.139,0.151,-0.308
801.0,-8.473,-1.309,0.642,-0.139,0.151,-0.308
805.0,-8.43,-1.291,0.55,-0.144,0.197,-0.288
809.0,-8.43,-1.291,0.55,-0.144,0.197,-0.288
812.0,-8.43,-1.291,0.55,-0.144,0.197,-0.288
816.0,-8.529,-1.295,0.507,-0.149,0.256,-0.253
820.0,-8.529,-1.295,0.507,-0.149,0.256,-0.253
824.0,-8.66,-1.329,0.523,-0.149,0.256,-0.204
828.0,-8.66,-1.329,0.523,-0.155,0.32,-0.204
832.0,-8.66,-1.329,0.523,-0.155,0.32,-0.204
836.0,-8.788,-1.37,0.574,-0.159,0.38,-0.139
840.0,-8.788,-1.37,0.574,-0.159,0.38,-0.139
844.0,-8.922,-1.438,0.715,-0.159,0.38,-0.139
848.0,-8.922,-1.438,0.715,-0.16,0.433,-0.065
852.0,-8.922,-1.438,0.715,-0.16,0.433,-0.065
855.0,-9.12,-1.512,0.84,-0.16,0.471,0.017
859.0,-9.12,-1.512,0.84,-0.16,0.471,0.017
863.0,-9.12,-1.512,0.912,-0.16,0.471,0.017
867.0,-9.432,-1.606,0.912,-0.163,0.499,0.102
871.0,-9.432,-1.606,0.912,-0.163,0.499,0.102
875.0,-9.828,-1.751,1.001,-0.172,0.521,0.182
878.0,-9.828,-1.751,1.001,-0.172,0.521,0.182
882.0,-9.828,-1.751,1.001,-0.172,0.521,0.182
886.0,-10.185,-1.877,1.037,-0.186,0.534,0.259
890.0,-10.185,-1.877,1.037,-0.186,0.534,0.259
894.0,-10.53,-1.974,1.029,-0.205,0.538,0.331
898.0,-10.53,-1.974,1.029,-0.205,0.538,0.331
902.0,-10.53,-1.974,1.029,-0.205,0.538,0.331
906.0,-10.728,-2.092,1.032,-0.222,0.536,0.395
909.0,-10.728,-2.092,1.032,-0.222,0.536,0.395
913.0,-10.837,-2.185,1.071,-0.231,0.528,0.451
917.0,-10.837,-2.185,1.071,-0.231,0.528,0.451
921.0,-10.837,-2.185,1.071,-0.231,0.528,0.451
925.0,-10.93,-2.259,1.088,-0.224,0.515,0.494
929.0,-10.93,-2.259,1.088,-0.224,0.515,0.494
933.0,-11.035,-2.277,1.114,-0.224,0.493,0.521
937.0,-11.035,-2.277,1.114,-0.199,0.493,0.521
941.0,-11.035,-2.277,1.114,-0.199,0.493,0.521
945.0,-11.083,-2.277,1.111,-0.162,0.462,0.533
949.0,-11.083,-2.277,1.111,-0.162,0.462,0.533
952.0,-11.097,-2.276,1.085,-0.162,0.462,0.529
956.0,-11.097,-2.276,1.085,-0.119,0.421,0.529
960.0,-11.097,-2.276,1.085,-0.119,0.421,0.529
964.0,-11.075,-2.23,1.02,-0.076,0.377,0.504
968.0,-11.075,-2.23,1.02,-0.076,0.377,0.504
972.0,-11.128,-2.118,0.937,-0.076,0.377,0.504
976.0,-11.128,-2.118,0.937,-0.039,0.337,0.456
980.0,-11.128,-2.118,0.937,-0.039,0.337,0.456
984.0,-11.121,-1.972,0.922,-0.012,0.301,0.388
988.0,-11.121,-1.972,0.922,-0.012,0.301,0.388
991.0,-11.121,-1.84,0.954,-0.012,0.301,0.388
995.0,-11.06,-1.84,0.954,-0.002,0.266,0.305
999.0,-11.06,-1.84,0.954,-0.002,0.266,0.305
1003.0,-11.017,-1.7,1.093,0.001,0.235,0.205
1007.0,-11.017,-1.7,1.093,0.001,0.235,0.205
1011.0,-11.017,-1.7,1.375,0.001,0.235,0.205
1015.0,-11.07,-1.56,1.375,0.005,0.188,0.097
1019.0,-11.07,-1.56,1.375,0.005,0.188,0.097
1023.0,-11.206,-1.403,1.607,0.015,0.113,-0.009
1027.0,-11.206,-1.403,1.607,0.015,0.113,-0.009
1031.0,-11.206,-1.403,1.607,0.015,0.113,-0.009
1035.0,-11.224,-1.218,1.796,0.028,0.008,-0.104
1039.0,-11.224,-1.218,1.796,0.028,0.008,-0.104
1043.0,-10.907,-1.002,1.865,0.034,-0.133,-0.188
1047.0,-10.907,-1.002,1.865,0.034,-0.133,-0.188
1051.0,-10.278,-0.809,1.779,0.034,-0.133,-0.188
1055.0,-10.278,-0.809,1.779,0.025,-0.289,-0.267
1059.0,-10.278,-0.809,1.779,0.025,-0.289,-0.267
1063.0,-9.475,-0.705,1.667,0.002,-0.421,-0.347
1067.0,-9.475,-0.705,1.667,0.002,-0.421,-0.347
1071.0,-8.676,-0.927,1.643,0.002,-0.502,-0.429
1075.0,-8.676,-0.927,1.643,-0.007,-0.502,-0.429
1079.0,-8.676,-0.927,1.643,-0.007,-0.502,-0.429
1083.0,-8.232,-1.056,1.826,0.03,-0.539,-0.519
1087.0,-8.232,-1.056,1.826,0.03,-0.539,-0.519
1091.0,-8.212,-1.086,1.99,0.112,-0.563,-0.604
1095.0,-8.212,-1.086,1.99,0.112,-0.563,-0.604
1099.0,-8.212,-1.086,1.99,0.112,-0.563,-0.604
1103.0,-8.557,-0.952,2.158,0.217,-0.59,-0.673
1107.0,-8.557,-0.952,2.158,0.217,-0.59,-0.673
1111.0,-9.045,-0.73,2.352,0.323,-0.636,-0.716
1115.0,-9.045,-0.73,2.352,0.323,-0.636,-0.716
1119.0,-9.045,-0.73,2.352,0.323,-0.636,-0.716
1123.0,-9.451,-0.381,2.538,0.408,-0.706,-0.724
1127.0,-9.451,-0.381,2.538,0.408,-0.706,-0.724
1131.0,-9.638,-0.01,2.585,0.457,-0.793,-0.692
1135.0,-9.638,-0.01,2.585,0.457,-0.793,-0.692
1139.0,-9.638,-0.01,2.585,0.457,-0.793,-0.692
1143.0,-9.545,0.33,2.496,0.452,-0.879,-0.631
1147.0,-9.545,0.33,2.496,0.452,-0.879,-0.631
1151.0,-9.205,0.623,2.292,0.39,-0.948,-0.555
1155.0,-9.205,0.623,2.292,0.39,-0.948,-0.555
1159.0,-9.205,0.623,2.292,0.39,-0.948,-0.555
1163.0,-8.694,0.859,2.015,0.273,-0.989,-0.483
1167.0,-8.694,0.859,2.015,0.273,-0.989,-0.483
1170.0,-8.17,0.988,1.765,0.113,-0.99,-0.422
1174.0,-8.17,0.988,1.765,0.113,-0.99,-0.422
1178.0,-8.17,0.988,1.765,0.113,-0.99,-0.422
1182.0,-7.737,1.08,1.625,-0.072,-0.953,-0.374
1186.0,-7.737,1.08,1.625,-0.072,-0.953,-0.374
1190.0,-7.519,1.081,1.577,-0.262,-0.892,-0.333
1194.0,-7.519,1.081,1.577,-0.262,-0.892,-0.333
1198.0,-7.519,1.081,1.577,-0.262,-0.892,-0.333
1202.0,-7.525,0.917,1.591,-0.439,-0.814,-0.295
1206.0,-7.525,0.917,1.591,-0.439,-0.814,-0.295
1210.0,-7.891,0.718,1.728,-0.587,-0.723,-0.258
1214.0,-7.891,0.718,1.728,-0.587,-0.723,-0.258
1218.0,-7.891,0.718,1.728,-0.587,-0.723,-0.258
1222.0,-8.582,0.456,1.878,-0.696,-0.639,-0.219
1226.0,-8.582,0.456,1.878,-0.696,-0.639,-0.219
1230.0,-9.511,0.179,1.982,-0.77,-0.568,-0.173
1234.0,-9.511,0.179,1.982,-0.77,-0.568,-0.173
1238.0,-9.511,0.179,2.078,-0.77,-0.568,-0.173
1242.0,-10.603,-0.044,2.078,-0.817,-0.513,-0.123
1246.0,-10.603,-0.044,2.078,-0.817,-0.513,-0.123
1250.0,-11.591,-0.144,2.113,-0.843,-0.475,-0.07
1255.0,-11.591,-0.144,2.113,-0.843,-0.475,-0.07
1259.0,-12.21,-0.108,2.093,-0.862,-0.46,-0.008
1263.0,-12.21,-0.108,2.093,-0.862,-0.46,-0.008
1267.0,-12.21,-0.108,2.093,-0.862,-0.46,-0.008
1271.0,-12.405,-0.027,2.035,-0.88,-0.465,0.06
1275.0,-12.405,-0.027,2.035,-0.88,-0.465,0.06
1279.0,-12.334,-0.018,1.831,-0.902,-0.481,0.114
1283.0,-12.334,-0.018,1.831,-0.902,-0.481,0.114
1288.0,-12.334,-0.018,1.649,-0.902,-0.481,0.114
1292.0,-12.171,-0.018,1.649,-0.934,-0.486,0.132
1296.0,-12.171,-0.018,1.649,-0.934,-0.486,0.132
1300.0,-11.99,-0.136,1.51,-0.971,-0.486,0.112
1304.0,-11.99,-0.136,1.51,-0.971,-0.486,0.112
1308.0,-11.842,-0.261,1.37,-0.971,-0.481,0.058
1312.0,-11.842,-0.261,1.37,-1.001,-0.481,0.058
1316.0,-11.842,-0.261,1.37,-1.001,-0.481,0.058
1320.0,-11.827,-0.385,1.427,-1.013,-0.467,-0.02
1324.0,-11.827,-0.385,1.427,-1.013,-0.467,-0.02
1329.0,-11.931,-0.544,1.524,-0.991,-0.448,-0.105
1333.0,-11.931,-0.544,1.524,-0.991,-0.448,-0.105
1337.0,-11.931,-0.544,1.599,-0.991,-0.448,-0.105
1341.0,-12.186,-0.686,1.599,-0.934,-0.423,-0.181
1345.0,-12.186,-0.686,1.599,-0.934,-0.423,-0.181
1349.0,-12.447,-0.826,1.627,-0.849,-0.391,-0.237
1354.0,-12.447,-0.826,1.627,-0.849,-0.391,-0.237
1358.0,-12.587,-0.913,1.666,-0.747,-0.352,-0.276
1362.0,-12.587,-0.913,1.666,-0.747,-0.352,-0.276
1366.0,-12.587,-0.913,1.666,-0.747,-0.352,-0.276
1370.0,-12.668,-0.976,1.798,-0.637,-0.311,-0.297
1374.0,-12.668,-0.976,1.798,-0.637,-0.311,-0.297
1379.0,-12.743,-1.041,1.895,-0.525,-0.269,-0.301
1383.0,-12.743,-1.041,1.895,-0.525,-0.269,-0.301
1387.0,-12.791,-1.076,1.874,-0.525,-0.23,-0.289
1391.0,-12.791,-1.076,1.874,-0.417,-0.23,-0.289
1395.0,-12.791,-1.076,1.874,-0.417,-0.23,-0.289
1399.0,-12.687,-1.049,1.885,-0.325,-0.194,-0.263
1404.0,-12.687,-1.049,1.885,-0.325,-0.194,-0.263
1408.0,-12.317,-1.008,1.933,-0.247,-0.169,-0.222
1412.0,-12.317,-1.008,1.933,-0.247,-0.169,-0.222
1416.0,-11.794,-1.01,1.844,-0.247,-0.169,-0.222
1420.0,-11.794,-1.01,1.844,-0.182,-0.158,-0.169
1424.0,-11.794,-1.01,1.844,-0.182,-0.158,-0.169
1429.0,-11.281,-1.109,1.643,-0.123,-0.145,-0.116
1433.0,-11.281,-1.109,1.643,-0.123,-0.145,-0.116
1437.0,-10.754,-1.202,1.399,-0.066,-0.112,-0.067
1441.0,-10.754,-1.202,1.399,-0.066,-0.112,-0.067
1445.0,-10.754,-1.202,1.399,-0.066,-0.112,-0.067
1449.0,-10.113,-1.275,1.263,-0.013,-0.066,-0.015
1454.0,-10.113,-1.275,1.263,-0.013,-0.066,-0.015
1458.0,-9.5,-1.376,1.215,0.036,-0.015,0.04
1462.0,-9.5,-1.376,1.215,0.036,-0.015,0.04
1466.0,-8.962,-1.434,1.22,0.036,-0.015,0.04
1469.0,-8.962,-1.434,1.22,0.088,0.035,0.095
1473.0,-8.962,-1.434,1.22,0.088,0.035,0.095
1477.0,-8.555,-1.454,1.289,0.145,0.081,0.148
1481.0,-8.555,-1.454,1.289,0.145,0.081,0.148
1485.0,-8.555,-1.454,1.289,0.145,0.081,0.148
1489.0,-8.228,-1.415,1.384,0.203,0.111,0.203
1492.0,-8.228,-1.415,1.384,0.203,0.111,0.203
1496.0,-7.944,-1.426,1.42,0.252,0.125,0.259
1500.0,-7.944,-1.426,1.42,0.252,0.125,0.259
1504.0,-7.944,-1.426,1.42,0.252,0.125,0.259
1508.0,-7.707,-1.448,1.443,0.29,0.13,0.315
1511.0,-7.707,-1.448,1.443,0.29,0.13,0.315
1515.0,-7.507,-1.487,1.464,0.29,0.124,0.37
1519.0,-7.507,-1.487,1.464,0.312,0.124,0.37
1523.0,-7.507,-1.487,1.464,0.312,0.124,0.37
1527.0,-7.457,-1.635,1.424,0.321,0.113,0.426
1531.0,-7.457,-1.635,1.424,0.321,0.113,0.426
1534.0,-7.457,-1.851,1.28,0.321,0.113,0.426
1538.0,-7.724,-1.851,1.28,0.32,0.113,0.479
1542.0,-7.724,-1.851,1.28,0.32,0.113,0.479
1546.0,-8.407,-2.057,1.08,0.309,0.138,0.536
1550.0,-8.407,-2.057,1.08,0.309,0.138,0.536
1553.0,-8.407,-2.057,1.08,0.309,0.138,0.536
1557.0,-9.348,-2.249,0.937,0.28,0.187,0.605
1561.0,-9.348,-2.249,0.937,0.28,0.187,0.605
1565.0,-10.472,-2.416,0.945,0.232,0.257,0.69
1569.0,-10.472,-2.416,0.945,0.232,0.257,0.69
1573.0,-10.472,-2.416,0.945,0.232,0.257,0.69
1577.0,-11.697,-2.664,1.182,0.167,0.33,0.786
1581.0,-11.697,-2.664,1.182,0.167,0.33,0.786
1584.0,-12.768,-3.026,1.61,0.167,0.372,0.881
1588.0,-12.768,-3.026,1.61,0.104,0.372,0.881
1592.0,-12.768,-3.026,1.61,0.104,0.372,0.881
1596.0,-13.258,-3.406,2.002,0.067,0.355,0.949
1600.0,-13.258,-3.406,2.002,0.067,0.355,0.949
1604.0,-12.866,-3.686,2.167,0.067,0.355,0.964
1608.0,-12.866,-3.686,2.167,0.076,0.285,0.964
1612.0,-12.866,-3.686,2.167,0.076,0.285,0.964
1616.0,-11.89,-3.789,2.035,0.117,0.207,0.912
1620.0,-11.89,-3.789,2.035,0.117,0.207,0.912
1624.0,-10.732,-3.686,1.721,0.117,0.207,0.912
1627.0,-10.732,-3.686,1.721,0.173,0.162,0.8
1631.0,-10.732,-3.686,1.721,0.173,0.162,0.8
1635.0,-9.708,-3.437,1.432,0.23,0.176,0.649
1639.0,-9.708,-3.437,1.432,0.23,0.176,0.649
1643.0,-9.708,-3.437,1.395,0.23,0.176,0.649
1647.0,-8.991,-2.935,1.395,0.268,0.235,0.482
1650.0,-8.991,-2.935,1.395,0.268,0.235,0.482
1654.0,-8.607,-2.376,1.499,0.271,0.304,0.328
1658.0,-8.607,-2.376,1.499,0.271,0.304,0.328
1662.0,-8.607,-2.376,1.499,0.271,0.304,0.328
1666.0,-8.534,-1.93,1.582,0.241,0.357,0.206
1670.0,-8.534,-1.93,1.582,0.241,0.357,0.206
1673.0,-8.646,-1.676,1.668,0.189,0.388,0.123
1677.0,-8.646,-1.676,1.668,0.189,0.388,0.123
1681.0,-8.646,-1.676,1.668,0.189,0.388,0.123
1685.0,-8.684,-1.586,1.741,0.124,0.398,0.081
1689.0,-8.684,-1.586,1.741,0.124,0.398,0.081
1693.0,-8.481,-1.646,1.707,0.124,0.398,0.081
1696.0,-8.481,-1.646,1.707,0.044,0.398,0.066
1700.0,-8.481,-1.646,1.707,0.044,0.398,0.066
1704.0,-8.094,-1.812,1.658,-0.051,0.406,0.058
1708.0,-8.094,-1.812,1.658,-0.051,0.406,0.058
1712.0,-8.094,-1.812,1.658,-0.051,0.406,0.058
1716.0,-7.65,-2.011,1.61,-0.15,0.426,0.043
1720.0,-7.65,-2.011,1.61,-0.15,0.426,0.043
1724.0,-7.242,-2.209,1.629,-0.243,0.453,0.017
1727.0,-7.242,-2.209,1.629,-0.243,0.453,0.017
1731.0,-7.242,-2.209,1.629,-0.243,0.453,0.017
1735.0,-6.891,-2.388,1.691,-0.323,0.478,-0.022
1739.0,-6.891,-2.388,1.691,-0.323,0.478,-0.022
1743.0,-6.554,-2.481,1.763,-0.38,0.496,-0.072
1747.0,-6.554,-2.481,1.763,-0.38,0.496,-0.072
1751.0,-6.554,-2.481,1.763,-0.38,0.496,-0.072
1755.0,-6.224,-2.511,1.892,-0.41,0.501,-0.128
1759.0,-6.224,-2.511,1.892,-0.41,0.501,-0.128
1763.0,-5.845,-2.438,1.969,-0.411,0.487,-0.179
1767.0,-5.845,-2.438,1.969,-0.411,0.487,-0.179
1771.0,-5.845,-2.438,1.957,-0.411,0.487,-0.179
1775.0,-5.438,-2.326,1.957,-0.385,0.462,-0.218
1779.0,-5.438,-2.326,1.957,-0.385,0.462,-0.218
1783.0,-5.027,-2.123,1.854,-0.343,0.438,-0.241
1787.0,-5.027,-2.123,1.854,-0.343,0.438,-0.241
1791.0,-5.027,-1.929,1.716,-0.343,0.438,-0.241
1795.0,-4.661,-1.929,1.716,-0.29,0.421,-0.244
1799.0,-4.661,-1.929,1.716,-0.29,0.421,-0.244
1803.0,-4.389,-1.742,1.576,-0.239,0.411,-0.226
1807.0,-4.389,-1.742,1.576,-0.239,0.411,-0.226
1811.0,-4.211,-1.616,1.421,-0.239,0.411,-0.226
1815.0,-4.211,-1.616,1.421,-0.199,0.405,-0.189
1819.0,-4.211,-1.616,1.421,-0.199,0.405,-0.189
1823.0,-4.11,-1.528,1.247,-0.174,0.403,-0.141
1827.0,-4.11,-1.528,1.247,-0.174,0.403,-0.141
1831.0,-4.056,-1.518,1.116,-0.174,0.401,-0.095
1835.0,-4.056,-1.518,1.116,-0.168,0.401,-0.095
1839.0,-4.056,-1.518,1.116,-0.168,0.401,-0.095
1843.0,-4.083,-1.561,1.012,-0.178,0.4,-0.056
1847.0,-4.083,-1.561,1.012,-0.178,0.4,-0.056
1851.0,-4.207,-1.676,0.933,-0.204,0.396,-0.032
1855.0,-4.207,-1.676,0.933,-0.204,0.396,-0.032
1859.0,-4.207,-1.676,0.933,-0.204,0.396,-0.032
1863.0,-4.463,-1.905,0.887,-0.234,0.393,-0.024
1867.0,-4.463,-1.905,0.887,-0.234,0.393,-0.024
1871.0,-4.92,-2.221,0.855,-0.258,0.393,-0.032
1875.0,-4.92,-2.221,0.855,-0.258,0.393,-0.032
1879.0,-4.92,-2.221,0.855,-0.258,0.393,-0.032
1883.0,-5.59,-2.537,0.847,-0.258,0.401,-0.048
1887.0,-5.59,-2.537,0.847,-0.258,0.401,-0.048
1891.0,-6.453,-2.791,0.892,-0.223,0.422,-0.056
1895.0,-6.453,-2.791,0.892,-0.223,0.422,-0.056
1899.0,-6.453,-2.791,0.892,-0.223,0.422,-0.056
1903.0,-7.627,-3.021,1.026,-0.157,0.451,-0.039
1907.0,-7.627,-3.021,1.026,-0.157,0.451,-0.039
1911.0,-9.351,-3.26,1.114,-0.071,0.49,0.009
1915.0,-9.351,-3.26,1.114,-0.071,0.49,0.009
1919.0,-9.351,-3.26,1.114,-0.071,0.49,0.009
1923.0,-11.892,-3.486,1.165,0.025,0.548,0.091
1927.0,-11.892,-3.486,1.165,0.025,0.548,0.091
1930.0,-15.075,-3.684,1.287,0.122,0.612,0.214
1934.0,-15.075,-3.684,1.287,0.122,0.612,0.214
1938.0,-15.075,-3.684,1.287,0.122,0.612,0.214
1942.0,-17.852,-3.821,1.567,0.215,0.645,0.382
1946.0,-17.852,-3.821,1.567,0.215,0.645,0.382
1950.0,-19.097,-3.966,1.898,0.301,0.608,0.589
1954.0,-19.097,-3.966,1.898,0.301,0.608,0.589
1958.0,-19.097,-3.966,1.898,0.301,0.608,0.589
1962.0,-18.772,-4.107,1.947,0.389,0.502,0.789
1966.0,-18.772,-4.107,1.947,0.389,0.502,0.789
1970.0,-17.808,-4.129,1.592,0.478,0.389,0.934
1973.0,-17.808,-4.129,1.592,0.478,0.389,0.934
1977.0,-17.808,-4.129,1.592,0.478,0.389,0.934
1981.0,-16.912,-3.886,1.031,0.556,0.32,1.015
1985.0,-16.912,-3.886,1.031,0.556,0.32,1.015
1989.0,-16.537,-3.517,0.539,0.556,0.316,1.05
1993.0,-16.537,-3.517,0.539,0.6,0.316,1.05
1997.0,-16.537,-3.517,0.539,0.6,0.316,1.05
2001.0,-16.878,-3.199,0.247,0.603,0.36,1.067
2005.0,-16.878,-3.199,0.247,0.603,0.36,1.067
2009.0,-17.652,-2.978,0.191,0.603,0.36,1.081
2012.0,-17.652,-2.978,0.191,0.57,0.424,1.081
2016.0,-17.652,-2.978,0.191,0.57,0.424,1.081
2020.0,-18.197,-2.844,0.217,0.508,0.466,1.091
2024.0,-18.197,-2.844,0.217,0.508,0.466,1.091
2028.0,-18.235,-2.673,0.223,0.508,0.466,1.091
2032.0,-18.235,-2.673,0.223,0.421,0.464,1.082
2036.0,-18.235,-2.673,0.223,0.421,0.464,1.082
2040.0,-17.297,-2.403,0.14,0.31,0.422,1.041
2044.0,-17.297,-2.403,0.14,0.31,0.422,1.041
2048.0,-17.297,-2.054,0.06,0.31,0.422,1.041
2052.0,-15.641,-2.054,0.06,0.176,0.367,0.966
2055.0,-15.641,-2.054,0.06,0.176,0.367,0.966
2059.0,-13.684,-1.717,0.056,0.024,0.32,0.867
2063.0,-13.684,-1.717,0.056,0.024,0.32,0.867
2067.0,-13.684,-1.717,0.125,0.024,0.32,0.867
2071.0,-11.941,-1.406,0.125,-0.139,0.268,0.75
2075.0,-11.941,-1.406,0.125,-0.139,0.268,0.75
2079.0,-10.765,-1.156,0.126,-0.305,0.219,0.618
2083.0,-10.765,-1.156,0.126,-0.305,0.219,0.618
2087.0,-10.765,-1.156,-0.042,-0.305,0.219,0.618
2091.0,-10.138,-0.988,-0.042,-0.469,0.183,0.48
2095.0,-10.138,-0.988,-0.042,-0.469,0.183,0.48
2099.0,-9.982,-0.988,-0.184,-0.626,0.173,0.35
2103.0,-9.982,-0.988,-0.184,-0.626,0.173,0.35
2107.0,-9.876,-1.143,-0.281,-0.626,0.173,0.247
2111.0,-9.876,-1.143,-0.281,-0.767,0.161,0.247
2115.0,-9.876,-1.143,-0.281,-0.767,0.161,0.247
2119.0,-9.671,-1.393,-0.292,-0.879,0.135,0.176
2123.0,-9.671,-1.393,-0.292,-0.879,0.135,0.176
2127.0,-9.645,-1.667,-0.361,-0.879,0.103,0.126
2131.0,-9.645,-1.667,-0.361,-0.953,0.103,0.126
2135.0,-9.645,-1.667,-0.361,-0.953,0.103,0.126
2139.0,-10.067,-1.89,-0.485,-0.986,0.079,0.091
2143.0,-10.067,-1.89,-0.485,-0.986,0.079,0.091
2147.0,-10.884,-2.065,-0.545,-0.978,0.059,0.077
2151.0,-10.884,-2.065,-0.545,-0.978,0.059,0.077
2156.0,-10.884,-2.065,-0.545,-0.978,0.059,0.077
2160.0,-11.533,-2.241,-0.611,-0.936,0.024,0.09
2164.0,-11.533,-2.241,-0.611,-0.936,0.024,0.09
2168.0,-11.789,-2.327,-0.59,-0.864,-0.03,0.125
2172.0,-11.789,-2.327,-0.59,-0.864,-0.03,0.125
2176.0,-11.632,-2.321,-0.582,-0.864,-0.03,0.125
2180.0,-11.632,-2.321,-0.582,-0.773,-0.095,0.171
2184.0,-11.632,-2.321,-0.582,-0.773,-0.095,0.171
2189.0,-11.014,-2.292,-0.555,-0.665,-0.157,0.218
2193.0,-11.014,-2.292,-0.555,-0.665,-0.157,0.218
2197.0,-10.463,-2.1,-0.514,-0.547,-0.201,0.252
2201.0,-10.463,-2.1,-0.514,-0.547,-0.201,0.252
2205.0,-10.463,-2.1,-0.514,-0.547,-0.201,0.252
2209.0,-9.967,-1.88,-0.482,-0.425,-0.224,0.274
2214.0,-9.967,-1.88,-0.482,-0.425,-0.224,0.274
2218.0,-9.47,-1.675,-0.397,-0.296,-0.24,0.294
2222.0,-9.47,-1.675,-0.397,-0.296,-0.24,0.294
2226.0,-8.998,-1.496,-0.427,-0.296,-0.24,0.316
2230.0,-8.998,-1.496,-0.427,-0.157,-0.252,0.316
2234.0,-8.998,-1.496,-0.427,-0.157,-0.252,0.316
2238.0,-8.624,-1.351,-0.403,-0.016,-0.25,0.34
2242.0,-8.624,-1.351,-0.403,-0.016,-0.25,0.34
2246.0,-8.436,-1.169,-0.365,0.116,-0.235,0.363
2250.0,-8.436,-1.169,-0.365,0.116,-0.235,0.363
2254.0,-8.436,-1.169,-0.365,0.116,-0.235,0.363
2258.0,-8.217,-1.091,-0.292,0.227,-0.215,0.38
2262.0,-8.217,-1.091,-0.292,0.227,-0.215,0.38
2266.0,-8.147,-0.971,-0.087,0.315,-0.211,0.383
2270.0,-8.147,-0.971,-0.087,0.315,-0.211,0.383
2274.0,-8.147,-0.971,-0.087,0.315,-0.211,0.383
2278.0,-8.344,-0.851,-0.028,0.378,-0.228,0.366
2282.0,-8.344,-0.851,-0.028,0.378,-0.228,0.366
2286.0,-8.556,-0.694,-0.077,0.416,-0.266,0.33
2290.0,-8.556,-0.694,-0.077,0.416,-0.266,0.33
2294.0,-8.556,-0.694,-0.077,0.416,-0.266,0.33
2298.0,-8.554,-0.464,-0.144,0.429,-0.328,0.282
2302.0,-8.554,-0.464,-0.144,0.429,-0.328,0.282
2306.0,-8.405,-0.144,-0.212,0.416,-0.406,0.23
2310.0,-8.405,-0.144,-0.212,0.416,-0.406,0.23
2314.0,-8.405,-0.144,-0.415,0.416,-0.406,0.23
2318.0,-8.229,0.136,-0.415,0.378,-0.478,0.178
2322.0,-8.229,0.136,-0.415,0.378,-0.478,0.178
2326.0,-8.003,0.336,-0.607,0.309,-0.525,0.125
2330.0,-8.003,0.336,-0.607,0.309,-0.525,0.125
2334.0,-8.003,0.336,-0.607,0.309,-0.525,0.125
2338.0,-7.807,0.579,-0.672,0.214,-0.55,0.07
2341.0,-7.807,0.579,-0.672,0.214,-0.55,0.07
2345.0,-7.718,0.82,-0.696,0.095,-0.557,0.021
2349.0,-7.718,0.82,-0.696,0.095,-0.557,0.021
2353.0,-7.718,0.82,-0.696,0.095,-0.557,0.021
2357.0,-7.607,0.989,-0.541,-0.043,-0.552,-0.022
2361.0,-7.607,0.989,-0.541,-0.043,-0.552,-0.022
2365.0,-7.487,1.183,-0.32,-0.196,-0.551,-0.058
2369.0,-7.487,1.183,-0.32,-0.196,-0.551,-0.058
2373.0,-7.487,1.308,-0.165,-0.196,-0.551,-0.058
2377.0,-7.348,1.308,-0.165,-0.364,-0.558,-0.084
2382.0,-7.348,1.308,-0.165,-0.364,-0.558,-0.084
2386.0,-7.132,1.41,-0.029,-0.544,-0.567,-0.102
2390.0,-7.132,1.41,-0.029,-0.544,-0.567,-0.102
2394.0,-6.862,1.47,0.012,-0.544,-0.58,-0.114
2398.0,-6.862,1.47,0.012,-0.738,-0.58,-0.114
2402.0,-6.862,1.47,0.012,-0.738,-0.58,-0.114
2406.0,-6.586,1.453,-0.087,-0.946,-0.583,-0.124
2410.0,-6.586,1.453,-0.087,-0.946,-0.583,-0.124
2414.0,-6.254,1.397,-0.175,-1.156,-0.568,-0.135
2418.0,-6.254,1.397,-0.175,-1.156,-0.568,-0.135
2422.0,-6.254,1.397,-0.175,-1.156,-0.568,-0.135
2426.0,-5.721,1.369,-0.121,-1.357,-0.55,-0.152
2430.0,-5.721,1.369,-0.121,-1.357,-0.55,-0.152
2434.0,-5.048,1.343,0.051,-1.537,-0.544,-0.17
2438.0,-5.048,1.343,0.051,-1.537,-0.544,-0.17
2442.0,-5.048,1.343,0.144,-1.537,-0.544,-0.17
2446.0,-4.362,1.232,0.144,-1.683,-0.546,-0.191
2450.0,-4.362,1.232,0.144,-1.683,-0.546,-0.191
2454.0,-3.73,1.071,0.153,-1.785,-0.544,-0.225
2458.0,-3.73,1.071,0.153,-1.785,-0.544,-0.225
2462.0,-3.73,0.907,0.207,-1.785,-0.544,-0.225
2466.0,-3.17,0.907,0.207,-1.842,-0.538,-0.268
2470.0,-3.17,0.907,0.207,-1.842,-0.538,-0.268
2474.0,-2.641,0.727,0.235,-1.861,-0.532,-0.317
2478.0,-2.641,0.727,0.235,-1.861,-0.532,-0.317
2482.0,-2.178,0.552,0.251,-1.861,-0.532,-0.317
2486.0,-2.178,0.552,0.251,-1.845,-0.521,-0.38
2490.0,-2.178,0.552,0.251,-1.845,-0.521,-0.38
2494.0,-1.871,0.377,0.398,-1.799,-0.497,-0.463
2498.0,-1.871,0.377,0.398,-1.799,-0.497,-0.463
2502.0,-1.741,0.253,0.666,-1.799,-0.497,-0.556
2506.0,-1.741,0.253,0.666,-1.724,-0.467,-0.556
2510.0,-1.741,0.253,0.666,-1.724,-0.467,-0.556
2514.0,-1.765,0.178,0.956,-1.627,-0.442,-0.648
2518.0,-1.765,0.178,0.956,-1.627,-0.442,-0.648
2522.0,-1.927,0.137,1.256,-1.512,-0.421,-0.73
2526.0,-1.927,0.137,1.256,-1.512,-0.421,-0.73
2530.0,-1.927,0.137,1.256,-1.512,-0.421,-0.73
2534.0,-2.252,0.147,1.645,-1.38,-0.411,-0.786
2538.0,-2.252,0.147,1.645,-1.38,-0.411,-0.786
2542.0,-2.691,0.141,1.859,-1.238,-0.426,-0.801
2546.0,-2.691,0.141,1.859,-1.238,-0.426,-0.801
2550.0,-2.691,0.141,1.859,-1.238,-0.426,-0.801
2554.0,-3.303,0.041,1.851,-1.099,-0.45,-0.766
2558.0,-3.303,0.041,1.851,-1.099,-0.45,-0.766
2562.0,-4.097,-0.095,1.71,-0.979,-0.454,-0.693
2566.0,-4.097,-0.095,1.71,-0.979,-0.454,-0.693
2570.0,-4.097,-0.095,1.71,-0.979,-0.454,-0.693
2574.0,-5.173,-0.252,1.57,-0.895,-0.418,-0.589
2578.0,-5.173,-0.252,1.57,-0.895,-0.418,-0.589
2583.0,-6.639,-0.465,1.382,-0.857,-0.327,-0.464
2587.0,-6.639,-0.465,1.382,-0.857,-0.327,-0.464
2591.0,-8.73,-0.68,1.393,-0.857,-0.327,-0.464
2595.0,-8.73,-0.68,1.393,-0.865,-0.168,-0.323
2599.0,-8.73,-0.68,1.393,-0.865,-0.168,-0.323
2603.0,-11.457,-0.852,1.815,-0.9,0.037,-0.169
2607.0,-11.457,-0.852,1.815,-0.9,0.037,-0.169
2611.0,-14.179,-0.998,2.51,-0.936,0.219,0.0
2615.0,-14.179,-0.998,2.51,-0.936,0.219,0.0
2619.0,-14.179,-0.998,2.51,-0.936,0.219,0.0
2623.0,-15.502,-0.968,3.386,-0.952,0.308,0.169
2627.0,-15.502,-0.968,3.386,-0.952,0.308,0.169
2631.0,-15.098,-0.929,4.195,-0.927,0.303,0.299
2635.0,-15.098,-0.929,4.195,-0.927,0.303,0.299
2639.0,-15.098,-0.929,4.195,-0.927,0.303,0.299
2643.0,-14.266,-0.93,4.515,-0.842,0.277,0.334
2647.0,-14.266,-0.93,4.515,-0.842,0.277,0.334
2651.0,-14.117,-0.739,4.437,-0.696,0.301,0.27
2655.0,-14.117,-0.739,4.437,-0.696,0.301,0.27
2659.0,-14.117,-0.739,4.437,-0.696,0.301,0.27
2663.0,-15.074,-0.437,4.095,-0.518,0.393,0.169
2667.0,-15.074,-0.437,4.095,-0.518,0.393,0.169
2671.0,-16.077,-0.117,3.661,-0.345,0.533,0.1
2675.0,-16.077,-0.117,3.661,-0.345,0.533,0.1
2679.0,-16.077,-0.117,3.661,-0.345,0.533,0.1
2683.0,-16.772,0.066,3.501,-0.198,0.701,0.076
2687.0,-16.772,0.066,3.501,-0.198,0.701,0.076
2691.0,-17.804,0.005,3.562,-0.074,0.89,0.074
2695.0,-17.804,0.005,3.562,-0.074,0.89,0.074
2699.0,-17.804,0.005,3.562,-0.074,0.89,0.074
2702.0,-18.971,-0.215,3.54,0.043,1.077,0.073
2706.0,-18.971,-0.215,3.54,0.043,1.077,0.073
2710.0,-19.585,-0.491,3.492,0.149,1.244,0.068
2714.0,-19.585,-0.491,3.492,0.149,1.244,0.068
2718.0,-19.585,-0.491,3.492,0.149,1.244,0.068
2722.0,-19.6,-0.738,3.568,0.239,1.392,0.056
2726.0,-19.6,-0.738,3.568,0.239,1.392,0.056
2730.0,-19.6,-0.78,3.866,0.319,1.512,0.036
2734.0,-19.6,-0.78,3.866,0.319,1.512,0.036
2738.0,-19.6,-0.78,3.866,0.319,1.512,0.036
2742.0,-19.547,-0.675,4.295,0.392,1.581,0.021
2745.0,-19.547,-0.675,4.295,0.392,1.581,0.021
2749.0,-18.661,-0.349,4.887,0.466,1.578,0.018
2753.0,-18.661,-0.349,4.887,0.466,1.578,0.018
2757.0,-18.661,-0.349,4.887,0.466,1.578,0.018
2761.0,-17.447,0.034,5.335,0.544,1.476,0.019
2765.0,-17.447,0.034,5.335,0.544,1.476,0.019
2769.0,-16.283,0.474,5.179,0.544,1.476,0.017
2773.0,-16.283,0.474,5.179,0.615,1.266,0.017
2776.0,-16.283,0.474,5.179,0.615,1.266,0.017
2780.0,-15.016,0.924,4.265,0.646,0.998,0.011
2784.0,-15.016,0.924,4.265,0.646,0.998,0.011
2788.0,-15.016,0.924,2.943,0.646,0.998,0.011
2792.0,-13.478,1.357,2.943,0.606,0.762,-0.005
2796.0,-13.478,1.357,2.943,0.606,0.762,-0.005
2799.0,-12.027,1.605,1.869,0.479,0.621,-0.036
2803.0,-12.027,1.605,1.869,0.479,0.621,-0.036
2807.0,-12.027,1.605,1.869,0.479,0.621,-0.036
2811.0,-10.943,1.707,1.445,0.279,0.568,-0.087
2815.0,-10.943,1.707,1.445,0.279,0.568,-0.087
2819.0,-10.349,1.643,1.683,0.044,0.548,-0.148
2823.0,-10.349,1.643,1.683,0.044,0.548,-0.148
2827.0,-10.349,1.643,1.683,0.044,0.548,-0.148
2831.0,-10.068,1.461,2.1,-0.184,0.5,-0.21
2835.0,-10.068,1.461,2.1,-0.184,0.5,-0.21
2839.0,-10.004,1.125,2.305,-0.38,0.395,-0.268
2843.0,-10.004,1.125,2.305,-0.38,0.395,-0.268
2847.0,-10.004,1.125,2.305,-0.38,0.395,-0.268
2851.0,-10.195,0.732,2.212,-0.536,0.26,-0.327
2855.0,-10.195,0.732,2.212,-0.536,0.26,-0.327
2859.0,-10.778,0.446,1.993,-0.658,0.131,-0.378
2863.0,-10.778,0.446,1.993,-0.658,0.131,-0.378
2867.0,-10.778,0.446,1.993,-0.658,0.131,-0.378
2871.0,-11.589,0.154,1.826,-0.753,0.025,-0.4
2875.0,-11.589,0.154,1.826,-0.753,0.025,-0.4
2879.0,-12.288,-0.149,1.783,-0.818,-0.068,-0.385
2883.0,-12.288,-0.149,1.783,-0.818,-0.068,-0.385
2887.0,-12.794,-0.492,1.85,-0.818,-0.068,-0.385
2891.0,-12.794,-0.492,1.85,-0.851,-0.168,-0.334
2895.0,-12.794,-0.492,1.85,-0.851,-0.168,-0.334
2899.0,-12.91,-0.84,1.865,-0.852,-0.281,-0.267
2904.0,-12.91,-0.84,1.865,-0.852,-0.281,-0.267
2908.0,-12.703,-1.188,1.682,-0.822,-0.408,-0.206
2912.0,-12.703,-1.188,1.682,-0.822,-0.408,-0.206
2916.0,-12.703,-1.188,1.36,-0.822,-0.408,-0.206
2920.0,-12.232,-1.429,1.36,-0.769,-0.535,-0.172
2924.0,-12.232,-1.429,1.36,-0.769,-0.535,-0.172
2929.0,-11.578,-1.604,0.978,-0.697,-0.649,-0.171
2933.0,-11.578,-1.604,0.978,-0.697,-0.649,-0.171
2937.0,-10.905,-1.677,0.639,-0.611,-0.738,-0.196
2941.0,-10.905,-1.677,0.639,-0.611,-0.738,-0.196
2945.0,-10.905,-1.677,0.639,-0.611,-0.738,-0.196
2949.0,-10.304,-1.667,0.348,-0.519,-0.794,-0.237
2954.0,-10.304,-1.667,0.348,-0.519,-0.794,-0.237
2958.0,-9.735,-1.598,0.156,-0.428,-0.824,-0.28
2962.0,-9.735,-1.598,0.156,-0.428,-0.824,-0.28
2966.0,-9.179,-1.511,-0.003,-0.428,-0.824,-0.28
2970.0,-9.179,-1.511,-0.003,-0.346,-0.831,-0.315
2974.0,-9.179,-1.511,-0.003,-0.346,-0.831,-0.315
2978.0,-8.71,-1.451,-0.135,-0.278,-0.816,-0.336
2983.0,-8.71,-1.451,-0.135,-0.278,-0.816,-0.336
2987.0,-8.375,-1.494,-0.206,-0.222,-0.778,-0.339
2991.0,-8.375,-1.494,-0.206,-0.222,-0.778,-0.339
2995.0,-8.375,-1.494,-0.2,-0.222,-0.778,-0.339
2999.0,-8.128,-1.669,-0.2,-0.166,-0.725,-0.319
