deltaTime,Acc_X,Acc_Y,Acc_Z,Gyro_X,Gyro_Y,Gyro_Z
0.0,-5.8,-4.168,3.097,1.14,-0.341,0.074
3.0,-5.8,-4.168,3.097,1.14,-0.341,0.074
6.0,-5.8,-4.168,3.097,1.14,-0.341,0.074
9.0,-5.641,-3.306,3.038,1.364,-0.368,0.013
12.0,-5.641,-3.306,3.038,1.364,-0.368,0.013
15.0,-5.641,-3.306,3.038,1.364,-0.368,0.013
18.0,-5.584,-2.441,2.886,1.364,-0.35,-0.021
21.0,-5.584,-2.441,2.886,1.486,-0.35,-0.021
24.0,-5.584,-2.441,2.886,1.486,-0.35,-0.021
27.0,-5.584,-2.441,2.688,1.486,-0.35,-0.021
30.0,-5.572,-1.322,2.688,1.51,-0.351,-0.043
33.0,-5.572,-1.322,2.688,1.51,-0.351,-0.043
36.0,-5.572,-1.322,2.688,1.51,-0.351,-0.043
40.0,-5.71,0.747,2.386,1.326,-0.361,-0.078
44.0,-5.71,0.747,2.386,1.326,-0.361,-0.078
48.0,-5.887,1.289,2.481,0.845,-0.371,-0.094
51.0,-5.887,1.289,2.481,0.845,-0.371,-0.094
55.0,-5.887,1.289,2.481,0.845,-0.371,-0.094
59.0,-6.018,0.868,2.865,0.279,-0.364,-0.048
63.0,-6.018,0.868,2.865,0.279,-0.364,-0.048
66.0,-6.018,0.868,2.865,0.279,-0.364,-0.048
70.0,-6.059,0.129,3.406,-0.214,-0.367,-0.002
74.0,-6.059,0.129,3.406,-0.214,-0.367,-0.002
78.0,-5.903,-0.458,3.612,-0.573,-0.414,0.034
81.0,-5.903,-0.458,3.612,-0.573,-0.414,0.034
85.0,-5.903,-0.458,3.612,-0.573,-0.414,0.034
89.0,-5.603,-0.733,3.577,-0.822,-0.486,0.064
93.0,-5.603,-0.733,3.577,-0.822,-0.486,0.064
97.0,-5.437,-0.954,3.47,-0.822,-0.547,0.082
101.0,-5.437,-0.954,3.47,-1.014,-0.547,0.082
104.0,-5.437,-0.954,3.47,-1.014,-0.547,0.082
108.0,-5.238,-1.098,3.332,-1.167,-0.589,0.094
112.0,-5.238,-1.098,3.332,-1.167,-0.589,0.094
116.0,-4.971,-1.298,3.309,-1.167,-0.589,0.094
120.0,-4.971,-1.298,3.309,-1.289,-0.618,0.101
124.0,-4.971,-1.298,3.309,-1.289,-0.618,0.101
128.0,-4.88,-1.677,3.264,-1.376,-0.63,0.099
132.0,-4.88,-1.677,3.264,-1.376,-0.63,0.099
136.0,-4.88,-2.082,3.165,-1.376,-0.63,0.099
140.0,-4.689,-2.082,3.165,-1.416,-0.632,0.083
144.0,-4.689,-2.082,3.165,-1.416,-0.632,0.083
147.0,-4.767,-2.397,3.184,-1.406,-0.62,0.048
151.0,-4.767,-2.397,3.184,-1.406,-0.62,0.048
155.0,-4.767,-2.397,3.435,-1.406,-0.62,0.048
159.0,-4.913,-2.542,3.435,-1.364,-0.6,-0.019
163.0,-4.913,-2.542,3.435,-1.364,-0.6,-0.019
167.0,-5.031,-2.669,3.843,-1.313,-0.582,-0.106
171.0,-5.031,-2.669,3.843,-1.313,-0.582,-0.106
175.0,-5.031,-2.839,4.403,-1.313,-0.582,-0.106
179.0,-5.336,-2.839,4.403,-1.247,-0.564,-0.199
183.0,-5.336,-2.839,4.403,-1.247,-0.564,-0.199
187.0,-5.846,-3.117,5.082,-1.143,-0.55,-0.273
191.0,-5.846,-3.117,5.082,-1.143,-0.55,-0.273
195.0,-6.348,-3.083,5.81,-1.143,-0.55,-0.273
199.0,-6.348,-3.083,5.81,-1.003,-0.536,-0.331
203.0,-6.348,-3.083,5.81,-1.003,-0.536,-0.331
207.0,-6.769,-3.216,6.609,-0.875,-0.528,-0.382
211.0,-6.769,-3.216,6.609,-0.875,-0.528,-0.382
215.0,-6.952,-3.368,7.054,-0.875,-0.528,-0.405
219.0,-6.952,-3.368,7.054,-0.74,-0.526,-0.405
223.0,-6.952,-3.368,7.054,-0.74,-0.526,-0.405
227.0,-7.213,-3.254,7.312,-0.611,-0.538,-0.435
231.0,-7.213,-3.254,7.312,-0.611,-0.538,-0.435
235.0,-7.941,-3.091,7.647,-0.611,-0.551,-0.477
239.0,-7.941,-3.091,7.647,-0.53,-0.551,-0.477
243.0,-7.941,-3.091,7.647,-0.53,-0.551,-0.477
247.0,-8.735,-2.921,8.137,-0.519,-0.575,-0.532
251.0,-8.735,-2.921,8.137,-0.519,-0.575,-0.532
255.0,-9.288,-2.74,8.408,-0.58,-0.621,-0.614
259.0,-9.288,-2.74,8.408,-0.58,-0.621,-0.614
263.0,-9.288,-2.74,8.408,-0.58,-0.621,-0.614
267.0,-9.257,-2.658,8.428,-0.714,-0.662,-0.706
271.0,-9.257,-2.658,8.428,-0.714,-0.662,-0.706
275.0,-9.209,-2.801,8.369,-0.878,-0.717,-0.77
279.0,-9.209,-2.801,8.369,-0.878,-0.717,-0.77
283.0,-9.209,-2.801,8.369,-0.878,-0.717,-0.77
287.0,-9.143,-3.196,8.262,-1.036,-0.772,-0.811
291.0,-9.143,-3.196,8.262,-1.036,-0.772,-0.811
295.0,-9.441,-3.636,8.136,-1.171,-0.793,-0.846
299.0,-9.441,-3.636,8.136,-1.171,-0.793,-0.846
303.0,-9.441,-3.636,8.136,-1.171,-0.793,-0.846
307.0,-10.307,-4.064,8.345,-1.28,-0.819,-0.954
311.0,-10.307,-4.064,8.345,-1.28,-0.819,-0.954
315.0,-10.416,-4.726,8.266,-1.364,-0.842,-1.015
319.0,-10.416,-4.726,8.266,-1.364,-0.842,-1.015
323.0,-10.416,-5.36,8.242,-1.364,-0.842,-1.015
327.0,-10.421,-5.36,8.242,-1.436,-0.817,-0.977
331.0,-10.421,-5.36,8.242,-1.436,-0.817,-0.977
335.0,-10.342,-5.936,8.441,-1.468,-0.771,-0.905
340.0,-10.342,-5.936,8.441,-1.468,-0.771,-0.905
344.0,-10.419,-6.5,8.395,-1.468,-0.719,-0.85
348.0,-10.419,-6.5,8.395,-1.447,-0.719,-0.85
352.0,-10.419,-6.5,8.395,-1.447,-0.719,-0.85
356.0,-10.563,-6.908,8.168,-1.381,-0.663,-0.814
360.0,-10.563,-6.908,8.168,-1.381,-0.663,-0.814
364.0,-10.751,-7.174,7.863,-1.29,-0.604,-0.766
368.0,-10.751,-7.174,7.863,-1.29,-0.604,-0.766
372.0,-10.751,-7.174,7.863,-1.29,-0.604,-0.766
376.0,-11.032,-7.433,7.569,-1.186,-0.53,-0.678
380.0,-11.032,-7.433,7.569,-1.186,-0.53,-0.678
384.0,-11.065,-7.545,7.153,-1.08,-0.428,-0.545
388.0,-11.065,-7.545,7.153,-1.08,-0.428,-0.545
393.0,-11.389,-8.134,6.904,-1.08,-0.428,-0.545
397.0,-11.389,-8.134,6.904,-0.983,-0.273,-0.38
401.0,-11.389,-8.134,6.904,-0.983,-0.273,-0.38
405.0,-10.927,-8.055,6.477,-0.809,-0.267,-0.245
409.0,-10.927,-8.055,6.477,-0.809,-0.267,-0.245
413.0,-10.247,-7.929,6.09,-0.654,-0.234,-0.135
417.0,-10.247,-7.929,6.09,-0.654,-0.234,-0.135
421.0,-10.247,-7.929,6.09,-0.654,-0.234,-0.135
425.0,-9.283,-7.613,5.627,-0.49,-0.216,-0.08
429.0,-9.283,-7.613,5.627,-0.49,-0.216,-0.08
433.0,-8.465,-7.203,5.068,-0.321,-0.207,-0.063
437.0,-8.465,-7.203,5.068,-0.321,-0.207,-0.063
441.0,-8.465,-7.203,5.068,-0.321,-0.207,-0.063
445.0,-7.917,-6.796,4.479,-0.162,-0.199,-0.051
449.0,-7.917,-6.796,4.479,-0.162,-0.199,-0.051
453.0,-7.515,-6.396,3.954,-0.026,-0.188,-0.015
457.0,-7.515,-6.396,3.954,-0.026,-0.188,-0.015
461.0,-7.515,-6.396,3.954,-0.026,-0.188,-0.015
465.0,-7.179,-6.097,3.43,0.08,-0.169,0.061
469.0,-7.179,-6.097,3.43,0.08,-0.169,0.061
473.0,-6.964,-5.99,2.916,0.152,-0.136,0.178
477.0,-6.964,-5.99,2.916,0.152,-0.136,0.178
480.0,-6.964,-5.99,2.916,0.152,-0.136,0.178
484.0,-6.908,-5.935,2.453,0.187,-0.088,0.332
488.0,-6.908,-5.935,2.453,0.187,-0.088,0.332
492.0,-6.979,-5.985,2.168,0.181,-0.03,0.518
496.0,-6.979,-5.985,2.168,0.181,-0.03,0.518
500.0,-6.979,-5.985,2.168,0.181,-0.03,0.518
503.0,-7.177,-6.273,2.116,0.135,0.029,0.723
507.0,-7.177,-6.273,2.116,0.135,0.029,0.723
511.0,-7.177,-6.687,2.216,0.135,0.029,0.723
515.0,-7.584,-6.687,2.216,0.059,0.081,0.922
518.0,-7.584,-6.687,2.216,0.059,0.081,0.922
522.0,-8.063,-7.158,2.314,-0.034,0.112,1.099
526.0,-8.063,-7.158,2.314,-0.034,0.112,1.099
530.0,-8.063,-7.158,2.314,-0.034,0.112,1.099
533.0,-8.521,-7.671,2.462,-0.134,0.113,1.235
537.0,-8.521,-7.671,2.462,-0.134,0.113,1.235
541.0,-8.869,-8.054,2.532,-0.213,0.08,1.334
545.0,-8.869,-8.054,2.532,-0.213,0.08,1.334
549.0,-8.869,-8.054,2.532,-0.213,0.08,1.334
553.0,-9.019,-8.298,2.506,-0.258,0.017,1.41
556.0,-9.019,-8.298,2.506,-0.258,0.017,1.41
560.0,-9.019,-8.418,2.419,-0.258,0.017,1.41
564.0,-8.958,-8.418,2.419,-0.26,-0.059,1.471
568.0,-8.958,-8.418,2.419,-0.26,-0.059,1.471
572.0,-8.777,-8.422,2.279,-0.22,-0.131,1.528
576.0,-8.777,-8.422,2.279,-0.22,-0.131,1.528
580.0,-8.777,-8.422,2.069,-0.22,-0.131,1.528
584.0,-8.561,-8.353,2.069,-0.146,-0.195,1.585
587.0,-8.561,-8.353,2.069,-0.146,-0.195,1.585
591.0,-8.338,-8.251,1.841,-0.056,-0.246,1.64
595.0,-8.338,-8.251,1.841,-0.056,-0.246,1.64
599.0,-8.338,-8.251,1.841,-0.056,-0.246,1.64
603.0,-8.12,-8.109,1.649,0.032,-0.292,1.677
607.0,-8.12,-8.109,1.649,0.032,-0.292,1.677
611.0,-7.882,-7.929,1.567,0.104,-0.333,1.688
615.0,-7.882,-7.929,1.567,0.104,-0.333,1.688
618.0,-7.882,-7.929,1.567,0.104,-0.333,1.688
622.0,-7.674,-7.723,1.587,0.143,-0.375,1.66
626.0,-7.674,-7.723,1.587,0.143,-0.375,1.66
630.0,-7.489,-7.386,1.662,0.143,-0.419,1.6
634.0,-7.489,-7.386,1.662,0.138,-0.419,1.6
637.0,-7.489,-7.386,1.662,0.138,-0.419,1.6
641.0,-7.312,-6.986,1.757,0.092,-0.467,1.52
645.0,-7.312,-6.986,1.757,0.092,-0.467,1.52
649.0,-7.312,-6.986,1.807,0.092,-0.467,1.52
653.0,-7.037,-6.561,1.807,0.017,-0.518,1.438
657.0,-7.037,-6.561,1.807,0.017,-0.518,1.438
660.0,-6.622,-6.169,1.754,-0.081,-0.56,1.359
664.0,-6.622,-6.169,1.754,-0.081,-0.56,1.359
668.0,-6.622,-6.169,1.754,-0.081,-0.56,1.359
672.0,-6.078,-5.838,1.685,-0.192,-0.572,1.281
676.0,-6.078,-5.838,1.685,-0.192,-0.572,1.281
680.0,-5.519,-5.554,1.673,-0.309,-0.542,1.206
684.0,-5.519,-5.554,1.673,-0.309,-0.542,1.206
688.0,-5.519,-5.554,1.673,-0.309,-0.542,1.206
692.0,-4.999,-5.247,1.659,-0.422,-0.469,1.133
696.0,-4.999,-5.247,1.659,-0.422,-0.469,1.133
699.0,-4.582,-4.956,1.752,-0.526,-0.364,1.069
703.0,-4.582,-4.956,1.752,-0.526,-0.364,1.069
707.0,-4.582,-4.956,1.752,-0.526,-0.364,1.069
711.0,-4.234,-4.717,1.943,-0.617,-0.252,1.02
715.0,-4.234,-4.717,1.943,-0.617,-0.252,1.02
719.0,-3.904,-4.49,2.152,-0.69,-0.146,0.988
723.0,-3.904,-4.49,2.152,-0.69,-0.146,0.988
727.0,-3.904,-4.49,2.152,-0.69,-0.146,0.988
731.0,-3.605,-4.364,2.418,-0.743,-0.048,0.971
735.0,-3.605,-4.364,2.418,-0.743,-0.048,0.971
738.0,-3.338,-4.286,2.805,-0.743,0.032,0.96
742.0,-3.338,-4.286,2.805,-0.771,0.032,0.96
746.0,-3.338,-4.286,2.805,-0.771,0.032,0.96
750.0,-3.042,-4.214,3.117,-0.77,0.083,0.943
754.0,-3.042,-4.214,3.117,-0.77,0.083,0.943
758.0,-3.042,-4.076,3.324,-0.77,0.083,0.943
761.0,-2.751,-4.076,3.324,-0.74,0.105,0.911
765.0,-2.751,-4.076,3.324,-0.74,0.105,0.911
769.0,-2.444,-3.899,3.348,-0.69,0.106,0.871
773.0,-2.444,-3.899,3.348,-0.69,0.106,0.871
777.0,-2.444,-3.899,3.348,-0.69,0.106,0.871
781.0,-2.157,-3.684,3.202,-0.633,0.103,0.834
784.0,-2.157,-3.684,3.202,-0.633,0.103,0.834
788.0,-1.893,-3.49,2.997,-0.58,0.109,0.808
792.0,-1.893,-3.49,2.997,-0.58,0.109,0.808
796.0,-1.893,-3.49,2.997,-0.58,0.109,0.808
800.0,-1.697,-3.339,2.778,-0.533,0.127,0.791
803.0,-1.697,-3.339,2.778,-0.533,0.127,0.791
807.0,-1.588,-3.233,2.563,-0.533,0.127,0.791
811.0,-1.588,-3.233,2.563,-0.493,0.158,0.781
815.0,-1.588,-3.233,2.563,-0.493,0.158,0.781
819.0,-1.625,-3.136,2.437,-0.457,0.191,0.776
823.0,-1.625,-3.136,2.437,-0.457,0.191,0.776
826.0,-1.625,-3.136,2.437,-0.457,0.191,0.776
830.0,-1.743,-3.081,2.312,-0.421,0.215,0.767
834.0,-1.743,-3.081,2.312,-0.421,0.215,0.767
838.0,-1.88,-3.068,2.214,-0.383,0.227,0.743
842.0,-1.88,-3.068,2.214,-0.383,0.227,0.743
845.0,-1.88,-3.068,2.214,-0.383,0.227,0.743
849.0,-2.03,-3.068,2.172,-0.345,0.223,0.696
853.0,-2.03,-3.068,2.172,-0.345,0.223,0.696
857.0,-2.156,-3.006,2.127,-0.345,0.202,0.632
861.0,-2.156,-3.006,2.127,-0.304,0.202,0.632
865.0,-2.156,-3.006,2.127,-0.304,0.202,0.632
868.0,-2.282,-2.967,2.005,-0.263,0.167,0.566
872.0,-2.282,-2.967,2.005,-0.263,0.167,0.566
876.0,-2.282,-2.998,1.824,-0.263,0.167,0.566
880.0,-2.482,-2.998,1.824,-0.233,0.133,0.514
884.0,-2.482,-2.998,1.824,-0.233,0.133,0.514
887.0,-2.9,-3.135,1.643,-0.229,0.12,0.487
891.0,-2.9,-3.135,1.643,-0.229,0.12,0.487
895.0,-2.9,-3.135,1.643,-0.229,0.12,0.487
899.0,-3.567,-3.31,1.47,-0.26,0.151,0.492
903.0,-3.567,-3.31,1.47,-0.26,0.151,0.492
907.0,-4.44,-3.66,1.467,-0.329,0.227,0.545
910.0,-4.44,-3.66,1.467,-0.329,0.227,0.545
914.0,-4.44,-3.66,1.467,-0.329,0.227,0.545
918.0,-5.672,-4.434,1.653,-0.44,0.338,0.65
922.0,-5.672,-4.434,1.653,-0.44,0.338,0.65
926.0,-7.612,-5.413,1.874,-0.44,0.338,0.65
929.0,-7.612,-5.413,1.874,-0.597,0.477,0.797
933.0,-7.612,-5.413,1.874,-0.597,0.477,0.797
937.0,-10.411,-6.428,1.93,-0.784,0.63,0.996
941.0,-10.411,-6.428,1.93,-0.784,0.63,0.996
945.0,-10.411,-6.428,1.929,-0.784,0.63,0.996
949.0,-13.986,-7.473,1.929,-0.992,0.757,1.245
953.0,-13.986,-7.473,1.929,-0.992,0.757,1.245
957.0,-17.573,-8.428,2.207,-1.216,0.809,1.517
961.0,-17.573,-8.428,2.207,-1.216,0.809,1.517
964.0,-17.573,-8.428,2.207,-1.216,0.809,1.517
968.0,-19.47,-9.153,2.741,-1.451,0.743,1.771
972.0,-19.47,-9.153,2.741,-1.451,0.743,1.771
976.0,-19.6,-9.754,3.162,-1.672,0.604,1.976
980.0,-19.6,-9.754,3.162,-1.672,0.604,1.976
984.0,-19.6,-9.754,3.162,-1.672,0.604,1.976
988.0,-19.6,-10.059,3.146,-1.845,0.475,2.126
992.0,-19.6,-10.059,3.146,-1.845,0.475,2.126
996.0,-19.6,-9.976,2.668,-1.957,0.377,2.236
1000.0,-19.6,-9.976,2.668,-1.957,0.377,2.236
1004.0,-19.6,-9.976,2.668,-1.957,0.377,2.236
1008.0,-19.6,-9.727,2.148,-2.021,0.304,2.328
1012.0,-19.6,-9.727,2.148,-2.021,0.304,2.328
1016.0,-19.6,-9.55,1.788,-2.047,0.253,2.422
1020.0,-19.6,-9.55,1.788,-2.047,0.253,2.422
1024.0,-19.6,-9.55,1.788,-2.047,0.253,2.422
1028.0,-19.6,-9.44,1.551,-2.028,0.22,2.535
1032.0,-19.6,-9.44,1.551,-2.028,0.22,2.535
1036.0,-19.6,-9.373,1.47,-1.962,0.202,2.669
1040.0,-19.6,-9.373,1.47,-1.962,0.202,2.669
1044.0,-19.6,-9.373,1.509,-1.962,0.202,2.669
1048.0,-19.6,-9.235,1.509,-1.859,0.184,2.802
1052.0,-19.6,-9.235,1.509,-1.859,0.184,2.802
1056.0,-19.033,-8.934,1.582,-1.73,0.153,2.887
1060.0,-19.033,-8.934,1.582,-1.73,0.153,2.887
1064.0,-17.358,-8.423,1.585,-1.73,0.153,2.887
1068.0,-17.358,-8.423,1.585,-1.582,0.125,2.887
1072.0,-17.358,-8.423,1.585,-1.582,0.125,2.887
1076.0,-15.322,-7.778,1.584,-1.416,0.113,2.801
1080.0,-15.322,-7.778,1.584,-1.416,0.113,2.801
1084.0,-13.204,-7.089,1.667,-1.416,0.113,2.801
1088.0,-13.204,-7.089,1.667,-1.23,0.127,2.64
1092.0,-13.204,-7.089,1.667,-1.23,0.127,2.64
1096.0,-11.456,-6.375,1.786,-1.017,0.171,2.425
1100.0,-11.456,-6.375,1.786,-1.017,0.171,2.425
1104.0,-10.228,-5.687,1.951,-1.017,0.241,2.18
1108.0,-10.228,-5.687,1.951,-0.777,0.241,2.18
1112.0,-10.228,-5.687,1.951,-0.777,0.241,2.18
1116.0,-9.438,-5.046,2.074,-0.509,0.324,1.937
1119.0,-9.438,-5.046,2.074,-0.509,0.324,1.937
1123.0,-8.982,-4.54,2.116,-0.509,0.406,1.725
1127.0,-8.982,-4.54,2.116,-0.225,0.406,1.725
1131.0,-8.982,-4.54,2.116,-0.225,0.406,1.725
1135.0,-8.749,-4.164,2.146,0.058,0.478,1.557
1139.0,-8.749,-4.164,2.146,0.058,0.478,1.557
1143.0,-8.709,-3.948,2.134,0.058,0.478,1.557
1147.0,-8.709,-3.948,2.134,0.331,0.533,1.423
1150.0,-8.709,-3.948,2.134,0.331,0.533,1.423
1154.0,-8.897,-3.783,2.011,0.587,0.568,1.304
1158.0,-8.897,-3.783,2.011,0.587,0.568,1.304
1162.0,-8.897,-3.783,2.011,0.587,0.568,1.304
1166.0,-9.26,-3.667,1.778,0.817,0.579,1.19
1169.0,-9.26,-3.667,1.778,0.817,0.579,1.19
1173.0,-9.627,-3.538,1.494,1.014,0.567,1.082
1177.0,-9.627,-3.538,1.494,1.014,0.567,1.082
1181.0,-9.627,-3.538,1.494,1.014,0.567,1.082
1185.0,-9.767,-3.38,1.268,1.176,0.536,0.983
1189.0,-9.767,-3.38,1.268,1.176,0.536,0.983
1192.0,-9.584,-3.179,1.107,1.176,0.536,0.893
1196.0,-9.584,-3.179,1.107,1.297,0.489,0.893
1200.0,-9.584,-3.179,1.107,1.297,0.489,0.893
1204.0,-9.173,-2.909,1.0,1.379,0.434,0.809
1208.0,-9.173,-2.909,1.0,1.379,0.434,0.809
1211.0,-9.173,-2.909,0.9,1.379,0.434,0.809
1215.0,-8.721,-2.599,0.9,1.424,0.376,0.727
1219.0,-8.721,-2.599,0.9,1.424,0.376,0.727
1223.0,-8.255,-2.28,0.797,1.435,0.324,0.646
1227.0,-8.255,-2.28,0.797,1.435,0.324,0.646
1231.0,-8.255,-2.28,0.797,1.435,0.324,0.646
1234.0,-7.789,-1.967,0.738,1.413,0.275,0.572
1238.0,-7.789,-1.967,0.738,1.413,0.275,0.572
1242.0,-7.355,-1.644,0.691,1.361,0.23,0.501
1246.0,-7.355,-1.644,0.691,1.361,0.23,0.501
1250.0,-7.355,-1.644,0.691,1.361,0.23,0.501
1254.0,-6.951,-1.426,0.714,1.283,0.193,0.45
1257.0,-6.951,-1.426,0.714,1.283,0.193,0.45
1261.0,-6.506,-1.214,0.787,1.283,0.193,0.45
1265.0,-6.506,-1.214,0.787,1.187,0.16,0.427
1269.0,-6.506,-1.214,0.787,1.187,0.16,0.427
1273.0,-6.13,-1.05,0.835,1.072,0.132,0.418
1276.0,-6.13,-1.05,0.835,1.072,0.132,0.418
1280.0,-6.13,-1.05,0.835,1.072,0.132,0.418
1284.0,-5.802,-0.939,0.913,0.937,0.108,0.41
1288.0,-5.802,-0.939,0.913,0.937,0.108,0.41
1292.0,-5.544,-0.828,1.003,0.784,0.082,0.394
1296.0,-5.544,-0.828,1.003,0.784,0.082,0.394
1299.0,-5.544,-0.828,1.003,0.784,0.082,0.394
1303.0,-5.397,-0.712,1.12,0.617,0.049,0.366
1307.0,-5.397,-0.712,1.12,0.617,0.049,0.366
1311.0,-5.246,-0.6,1.184,0.617,0.049,0.328
1315.0,-5.246,-0.6,1.184,0.437,0.005,0.328
1318.0,-5.246,-0.6,1.184,0.437,0.005,0.328
1322.0,-5.029,-0.517,1.178,0.248,-0.05,0.277
1326.0,-5.029,-0.517,1.178,0.248,-0.05,0.277
1330.0,-5.029,-0.441,1.124,0.248,-0.05,0.277
1334.0,-4.745,-0.441,1.124,0.052,-0.107,0.212
1338.0,-4.745,-0.441,1.124,0.052,-0.107,0.212
1342.0,-4.416,-0.375,1.07,-0.147,-0.159,0.135
1346.0,-4.416,-0.375,1.07,-0.147,-0.159,0.135
1350.0,-4.416,-0.375,1.071,-0.147,-0.159,0.135
1354.0,-4.093,-0.296,1.071,-0.343,-0.202,0.053
1358.0,-4.093,-0.296,1.071,-0.343,-0.202,0.053
1362.0,-3.823,-0.194,1.171,-0.533,-0.24,-0.026
1366.0,-3.823,-0.194,1.171,-0.533,-0.24,-0.026
1370.0,-3.572,-0.093,1.268,-0.533,-0.24,-0.026
1374.0,-3.572,-0.093,1.268,-0.714,-0.283,-0.097
1378.0,-3.572,-0.093,1.268,-0.714,-0.283,-0.097
1382.0,-3.344,-0.062,1.269,-0.893,-0.331,-0.16
1386.0,-3.344,-0.062,1.269,-0.893,-0.331,-0.16
1390.0,-3.178,-0.084,1.222,-1.066,-0.365,-0.221
1394.0,-3.178,-0.084,1.222,-1.066,-0.365,-0.221
1398.0,-3.178,-0.084,1.222,-1.066,-0.365,-0.221
1403.0,-3.02,-0.144,1.198,-1.23,-0.379,-0.288
1407.0,-3.02,-0.144,1.198,-1.23,-0.379,-0.288
1411.0,-2.873,-0.223,1.222,-1.386,-0.378,-0.362
1415.0,-2.873,-0.223,1.222,-1.386,-0.378,-0.362
1419.0,-2.873,-0.223,1.355,-1.386,-0.378,-0.362
1423.0,-2.73,-0.308,1.355,-1.527,-0.368,-0.448
1427.0,-2.73,-0.308,1.355,-1.527,-0.368,-0.448
1431.0,-2.634,-0.35,1.586,-1.646,-0.349,-0.554
1435.0,-2.634,-0.35,1.586,-1.646,-0.349,-0.554
1439.0,-2.605,-0.382,1.866,-1.646,-0.334,-0.68
1443.0,-2.605,-0.382,1.866,-1.736,-0.334,-0.68
1447.0,-2.605,-0.382,1.866,-1.736,-0.334,-0.68
1452.0,-2.588,-0.383,2.255,-1.789,-0.332,-0.822
1456.0,-2.588,-0.383,2.255,-1.789,-0.332,-0.822
1460.0,-2.579,-0.389,2.626,-1.802,-0.348,-0.972
1464.0,-2.579,-0.389,2.626,-1.802,-0.348,-0.972
1468.0,-2.579,-0.389,2.626,-1.802,-0.348,-0.972
1472.0,-2.559,-0.424,2.881,-1.772,-0.368,-1.124
1476.0,-2.559,-0.424,2.881,-1.772,-0.368,-1.124
1480.0,-2.73,-0.458,3.112,-1.699,-0.364,-1.274
1484.0,-2.73,-0.458,3.112,-1.699,-0.364,-1.274
1488.0,-3.269,-0.444,3.43,-1.699,-0.364,-1.274
1492.0,-3.269,-0.444,3.43,-1.585,-0.323,-1.404
1496.0,-3.269,-0.444,3.43,-1.585,-0.323,-1.404
1500.0,-4.136,-0.464,3.824,-1.436,-0.255,-1.49
1505.0,-4.136,-0.464,3.824,-1.436,-0.255,-1.49
1509.0,-5.31,-0.5,4.368,-1.252,-0.181,-1.517
1513.0,-5.31,-0.5,4.368,-1.252,-0.181,-1.517
1517.0,-5.31,-0.5,4.368,-1.252,-0.181,-1.517
1521.0,-6.693,-0.657,4.947,-1.031,-0.11,-1.503
1525.0,-6.693,-0.657,4.947,-1.031,-0.11,-1.503
1529.0,-8.185,-0.876,5.633,-0.772,-0.047,-1.464
1533.0,-8.185,-0.876,5.633,-0.772,-0.047,-1.464
1537.0,-8.185,-0.876,6.622,-0.772,-0.047,-1.464
1541.0,-9.528,-0.983,6.622,-0.48,-0.013,-1.4
1545.0,-9.528,-0.983,6.622,-0.48,-0.013,-1.4
1549.0,-10.379,-0.966,7.742,-0.173,-0.041,-1.294
1554.0,-10.379,-0.966,7.742,-0.173,-0.041,-1.294
1558.0,-10.598,-0.831,8.691,-0.173,-0.125,-1.139
1562.0,-10.598,-0.831,8.691,0.123,-0.125,-1.139
1566.0,-10.598,-0.831,8.691,0.123,-0.125,-1.139
1570.0,-10.517,-0.746,9.172,0.378,-0.215,-0.936
1574.0,-10.517,-0.746,9.172,0.378,-0.215,-0.936
1578.0,-10.696,-0.794,9.072,0.571,-0.256,-0.702
1582.0,-10.696,-0.794,9.072,0.571,-0.256,-0.702
1586.0,-10.696,-0.794,9.072,0.571,-0.256,-0.702
1590.0,-11.372,-0.909,8.693,0.693,-0.219,-0.449
1595.0,-11.372,-0.909,8.693,0.693,-0.219,-0.449
1599.0,-12.516,-1.138,8.456,0.739,-0.123,-0.196
1603.0,-12.516,-1.138,8.456,0.739,-0.123,-0.196
1607.0,-13.902,-1.44,8.381,0.739,-0.123,-0.196
1611.0,-13.902,-1.44,8.381,0.711,-0.018,0.018
1615.0,-13.902,-1.44,8.381,0.711,-0.018,0.018
1619.0,-15.232,-1.637,8.405,0.626,0.06,0.167
1623.0,-15.232,-1.637,8.405,0.626,0.06,0.167
1627.0,-16.545,-1.71,8.461,0.626,0.06,0.252
1631.0,-16.545,-1.71,8.461,0.502,0.098,0.252
1634.0,-16.545,-1.71,8.461,0.502,0.098,0.252
1638.0,-17.81,-1.698,8.346,0.367,0.101,0.292
1642.0,-17.81,-1.698,8.346,0.367,0.101,0.292
1646.0,-18.908,-1.592,8.007,0.367,0.101,0.292
1650.0,-18.908,-1.592,8.007,0.231,0.086,0.324
1654.0,-18.908,-1.592,8.007,0.231,0.086,0.324
1658.0,-19.507,-1.452,7.714,0.103,0.067,0.379
1662.0,-19.507,-1.452,7.714,0.103,0.067,0.379
1666.0,-19.507,-1.305,7.652,0.103,0.067,0.379
1670.0,-19.274,-1.305,7.652,-0.015,0.037,0.46
1674.0,-19.274,-1.305,7.652,-0.015,0.037,0.46
1678.0,-18.164,-1.3,7.747,-0.117,-0.015,0.551
1682.0,-18.164,-1.3,7.747,-0.117,-0.015,0.551
1686.0,-16.714,-1.437,7.702,-0.117,-0.015,0.551
1690.0,-16.714,-1.437,7.702,-0.19,-0.079,0.612
1694.0,-16.714,-1.437,7.702,-0.19,-0.079,0.612
1698.0,-15.534,-1.653,7.33,-0.23,-0.138,0.623
1702.0,-15.534,-1.653,7.33,-0.23,-0.138,0.623
1706.0,-14.773,-1.944,6.662,-0.248,-0.177,0.585
1710.0,-14.773,-1.944,6.662,-0.248,-0.177,0.585
1714.0,-14.773,-1.944,6.662,-0.248,-0.177,0.585
1718.0,-14.246,-2.26,5.838,-0.253,-0.196,0.514
1723.0,-14.246,-2.26,5.838,-0.253,-0.196,0.514
1727.0,-13.877,-2.57,5.024,-0.255,-0.199,0.426
1731.0,-13.877,-2.57,5.024,-0.255,-0.199,0.426
1735.0,-13.877,-2.57,4.366,-0.255,-0.199,0.426
1739.0,-13.671,-2.838,4.366,-0.252,-0.184,0.326
1743.0,-13.671,-2.838,4.366,-0.252,-0.184,0.326
1747.0,-13.443,-3.044,4.006,-0.235,-0.168,0.217
1751.0,-13.443,-3.044,4.006,-0.235,-0.168,0.217
1755.0,-12.991,-3.215,3.885,-0.235,-0.19,0.097
1759.0,-12.991,-3.215,3.885,-0.19,-0.19,0.097
1763.0,-12.991,-3.215,3.885,-0.19,-0.19,0.097
1767.0,-12.384,-3.413,3.664,-0.101,-0.28,-0.041
1772.0,-12.384,-3.413,3.664,-0.101,-0.28,-0.041
1776.0,-11.853,-3.537,3.154,0.04,-0.42,-0.205
1780.0,-11.853,-3.537,3.154,0.04,-0.42,-0.205
1784.0,-11.853,-3.537,3.154,0.04,-0.42,-0.205
1788.0,-11.626,-3.532,2.368,0.226,-0.571,-0.388
1792.0,-11.626,-3.532,2.368,0.226,-0.571,-0.388
1796.0,-11.768,-3.377,1.546,0.433,-0.697,-0.567
1800.0,-11.768,-3.377,1.546,0.433,-0.697,-0.567
1804.0,-12.103,-3.194,0.889,0.433,-0.697,-0.707
1808.0,-12.103,-3.194,0.889,0.632,-0.778,-0.707
1812.0,-12.103,-3.194,0.889,0.632,-0.778,-0.707
1817.0,-12.413,-3.059,0.584,0.81,-0.817,-0.791
1821.0,-12.413,-3.059,0.584,0.81,-0.817,-0.791
1825.0,-12.65,-3.031,0.511,0.959,-0.838,-0.827
1829.0,-12.65,-3.031,0.511,0.959,-0.838,-0.827
1833.0,-12.65,-3.031,0.511,0.959,-0.838,-0.827
1837.0,-12.75,-3.041,0.523,1.081,-0.87,-0.831
1841.0,-12.75,-3.041,0.523,1.081,-0.87,-0.831
1845.0,-12.598,-3.023,0.484,1.177,-0.925,-0.825
1849.0,-12.598,-3.023,0.484,1.177,-0.925,-0.825
1853.0,-12.598,-2.962,0.415,1.177,-0.925,-0.825
1857.0,-12.181,-2.962,0.415,1.247,-0.997,-0.827
1861.0,-12.181,-2.962,0.415,1.247,-0.997,-0.827
1865.0,-11.546,-2.835,0.307,1.292,-1.069,-0.841
1870.0,-11.546,-2.835,0.307,1.292,-1.069,-0.841
1874.0,-10.962,-2.667,0.195,1.292,-1.12,-0.863
1878.0,-10.962,-2.667,0.195,1.317,-1.12,-0.863
1882.0,-10.962,-2.667,0.195,1.317,-1.12,-0.863
1886.0,-10.527,-2.475,0.042,1.319,-1.141,-0.887
1890.0,-10.527,-2.475,0.042,1.319,-1.141,-0.887
1894.0,-10.26,-2.267,-0.014,1.295,-1.134,-0.906
1898.0,-10.26,-2.267,-0.014,1.295,-1.134,-0.906
1902.0,-10.26,-2.267,-0.014,1.295,-1.134,-0.906
1907.0,-9.925,-2.066,-0.038,1.244,-1.116,-0.913
1911.0,-9.925,-2.066,-0.038,1.244,-1.116,-0.913
1915.0,-9.498,-1.896,-0.08,1.17,-1.101,-0.912
1919.0,-9.498,-1.896,-0.08,1.17,-1.101,-0.912
1923.0,-9.092,-1.769,-0.081,1.17,-1.101,-0.915
1927.0,-9.092,-1.769,-0.081,1.079,-1.083,-0.915
1931.0,-9.092,-1.769,-0.081,1.079,-1.083,-0.915
1935.0,-8.729,-1.665,-0.124,0.973,-1.057,-0.923
1939.0,-8.729,-1.665,-0.124,0.973,-1.057,-0.923
1943.0,-8.474,-1.585,-0.141,0.859,-1.019,-0.932
1947.0,-8.474,-1.585,-0.141,0.859,-1.019,-0.932
1951.0,-8.474,-1.585,-0.141,0.859,-1.019,-0.932
1955.0,-8.201,-1.541,-0.142,0.738,-0.975,-0.94
1960.0,-8.201,-1.541,-0.142,0.738,-0.975,-0.94
1964.0,-7.882,-1.484,-0.132,0.615,-0.936,-0.948
1968.0,-7.882,-1.484,-0.132,0.615,-0.936,-0.948
1972.0,-7.882,-1.436,-0.129,0.615,-0.936,-0.948
1976.0,-7.503,-1.436,-0.129,0.491,-0.899,-0.96
1980.0,-7.503,-1.436,-0.129,0.491,-0.899,-0.96
1984.0,-7.09,-1.404,-0.151,0.372,-0.859,-0.977
1988.0,-7.09,-1.404,-0.151,0.372,-0.859,-0.977
1992.0,-6.636,-1.349,-0.139,0.258,-0.814,-1.001
1996.0,-6.636,-1.349,-0.139,0.258,-0.814,-1.001
2000.0,-6.636,-1.349,-0.139,0.258,-0.814,-1.001
2004.0,-6.165,-1.284,-0.151,0.151,-0.766,-1.034
2009.0,-6.165,-1.284,-0.151,0.151,-0.766,-1.034
2013.0,-5.712,-1.251,-0.143,0.049,-0.712,-1.074
2017.0,-5.712,-1.251,-0.143,0.049,-0.712,-1.074
2021.0,-5.712,-1.251,-0.143,0.049,-0.712,-1.074
2025.0,-5.239,-1.238,-0.132,-0.044,-0.65,-1.115
2029.0,-5.239,-1.238,-0.132,-0.044,-0.65,-1.115
2033.0,-4.752,-1.285,-0.116,-0.122,-0.577,-1.156
2037.0,-4.752,-1.285,-0.116,-0.122,-0.577,-1.156
2042.0,-4.252,-1.327,-0.066,-0.122,-0.492,-1.195
2046.0,-4.252,-1.327,-0.066,-0.177,-0.492,-1.195
2050.0,-4.252,-1.327,-0.066,-0.177,-0.492,-1.195
2054.0,-3.756,-1.383,0.037,-0.208,-0.399,-1.235
2058.0,-3.756,-1.383,0.037,-0.208,-0.399,-1.235
2062.0,-3.323,-1.426,0.16,-0.214,-0.301,-1.27
2066.0,-3.323,-1.426,0.16,-0.214,-0.301,-1.27
2070.0,-3.323,-1.426,0.312,-0.214,-0.301,-1.27
2074.0,-2.967,-1.484,0.312,-0.196,-0.201,-1.3
2078.0,-2.967,-1.484,0.312,-0.196,-0.201,-1.3
2083.0,-2.747,-1.521,0.468,-0.155,-0.105,-1.316
2087.0,-2.747,-1.521,0.468,-0.155,-0.105,-1.316
2091.0,-2.615,-1.548,0.666,-0.155,-0.02,-1.316
2095.0,-2.615,-1.548,0.666,-0.096,-0.02,-1.316
2099.0,-2.615,-1.548,0.666,-0.096,-0.02,-1.316
2103.0,-2.58,-1.614,0.866,-0.019,0.05,-1.297
2107.0,-2.58,-1.614,0.866,-0.019,0.05,-1.297
2111.0,-2.567,-1.661,1.013,0.074,0.101,-1.258
2115.0,-2.567,-1.661,1.013,0.074,0.101,-1.258
2119.0,-2.567,-1.661,1.013,0.074,0.101,-1.258
2123.0,-2.599,-1.669,0.995,0.173,0.141,-1.204
2127.0,-2.599,-1.669,0.995,0.173,0.141,-1.204
2130.0,-2.627,-1.704,0.928,0.27,0.182,-1.136
2134.0,-2.627,-1.704,0.928,0.27,0.182,-1.136
2138.0,-2.627,-1.704,0.928,0.27,0.182,-1.136
2142.0,-2.685,-1.714,0.838,0.359,0.235,-1.051
2146.0,-2.685,-1.714,0.838,0.359,0.235,-1.051
2150.0,-2.791,-1.766,0.737,0.359,0.307,-0.942
2154.0,-2.791,-1.766,0.737,0.437,0.307,-0.942
2158.0,-2.791,-1.766,0.737,0.437,0.307,-0.942
2162.0,-3.02,-1.829,0.668,0.502,0.403,-0.808
2166.0,-3.02,-1.829,0.668,0.502,0.403,-0.808
2170.0,-3.373,-1.988,0.69,0.502,0.403,-0.65
2173.0,-3.373,-1.988,0.69,0.55,0.519,-0.65
2177.0,-3.373,-1.988,0.69,0.55,0.519,-0.65
2181.0,-3.858,-2.244,0.857,0.582,0.65,-0.469
2185.0,-3.858,-2.244,0.857,0.582,0.65,-0.469
2189.0,-4.507,-2.597,1.165,0.582,0.65,-0.469
2193.0,-4.507,-2.597,1.165,0.603,0.786,-0.272
2197.0,-4.507,-2.597,1.165,0.603,0.786,-0.272
2201.0,-5.327,-3.085,1.653,0.619,0.92,-0.072
2205.0,-5.327,-3.085,1.653,0.619,0.92,-0.072
2209.0,-5.327,-3.74,2.297,0.619,0.92,-0.072
2213.0,-6.476,-3.74,2.297,0.64,1.036,0.118
2216.0,-6.476,-3.74,2.297,0.64,1.036,0.118
2220.0,-7.948,-4.379,2.882,0.676,1.114,0.287
2224.0,-7.948,-4.379,2.882,0.676,1.114,0.287
2228.0,-7.948,-4.379,2.882,0.676,1.114,0.287
2232.0,-9.618,-4.93,3.284,0.735,1.155,0.434
2235.0,-9.618,-4.93,3.284,0.735,1.155,0.434
2239.0,-11.402,-5.273,3.49,0.819,1.177,0.564
2243.0,-11.402,-5.273,3.49,0.819,1.177,0.564
2247.0,-11.402,-5.273,3.49,0.819,1.177,0.564
2251.0,-13.213,-5.332,3.601,0.919,1.202,0.707
2255.0,-13.213,-5.332,3.601,0.919,1.202,0.707
2259.0,-14.959,-5.243,3.645,1.026,1.233,0.896
2263.0,-14.959,-5.243,3.645,1.026,1.233,0.896
2267.0,-14.959,-5.243,3.645,1.026,1.233,0.896
2271.0,-16.561,-5.199,3.709,1.131,1.261,1.128
2274.0,-16.561,-5.199,3.709,1.131,1.261,1.128
2278.0,-17.991,-5.364,3.782,1.131,1.258,1.37
2282.0,-17.991,-5.364,3.782,1.23,1.258,1.37
2286.0,-17.991,-5.364,3.782,1.23,1.258,1.37
2290.0,-18.997,-5.502,3.784,1.318,1.21,1.58
2294.0,-18.997,-5.502,3.784,1.318,1.21,1.58
2298.0,-18.995,-5.405,3.747,1.318,1.21,1.736
2302.0,-18.995,-5.405,3.747,1.386,1.122,1.736
2306.0,-18.995,-5.405,3.747,1.386,1.122,1.736
2310.0,-18.166,-5.037,3.541,1.412,1.014,1.83
2313.0,-18.166,-5.037,3.541,1.412,1.014,1.83
2317.0,-17.293,-4.534,3.233,1.412,1.014,1.83
2321.0,-17.293,-4.534,3.233,1.381,0.946,1.869
2325.0,-17.293,-4.534,3.233,1.381,0.946,1.869
2329.0,-16.827,-4.031,2.966,1.289,0.952,1.885
2333.0,-16.827,-4.031,2.966,1.289,0.952,1.885
2337.0,-16.827,-4.031,2.954,1.289,0.952,1.885
2341.0,-16.466,-3.629,2.954,1.138,1.006,1.909
2345.0,-16.466,-3.629,2.954,1.138,1.006,1.909
2349.0,-15.453,-3.298,3.074,0.944,1.048,1.942
2353.0,-15.453,-3.298,3.074,0.944,1.048,1.942
2356.0,-15.453,-3.298,3.074,0.944,1.048,1.942
2360.0,-14.22,-2.996,3.083,0.722,1.048,1.956
2364.0,-14.22,-2.996,3.083,0.722,1.048,1.956
2368.0,-13.012,-2.618,3.025,0.489,1.035,1.929
2372.0,-13.012,-2.618,3.025,0.489,1.035,1.929
2376.0,-13.012,-2.618,3.025,0.489,1.035,1.929
2380.0,-11.803,-2.283,2.9,0.262,1.023,1.862
2384.0,-11.803,-2.283,2.9,0.262,1.023,1.862
2388.0,-10.874,-2.001,2.749,0.046,1.024,1.773
2392.0,-10.874,-2.001,2.749,0.046,1.024,1.773
2396.0,-10.874,-2.001,2.749,0.046,1.024,1.773
2399.0,-10.766,-1.856,2.546,-0.159,1.062,1.672
2403.0,-10.766,-1.856,2.546,-0.159,1.062,1.672
2407.0,-11.889,-1.875,2.277,-0.353,1.149,1.583
2411.0,-11.889,-1.875,2.277,-0.353,1.149,1.583
2415.0,-11.889,-1.875,2.277,-0.353,1.149,1.583
2419.0,-13.639,-2.109,2.012,-0.54,1.261,1.536
2423.0,-13.639,-2.109,2.012,-0.54,1.261,1.536
2427.0,-15.033,-2.424,1.868,-0.72,1.335,1.546
2431.0,-15.033,-2.424,1.868,-0.72,1.335,1.546
2435.0,-15.033,-2.424,1.868,-0.72,1.335,1.546
2439.0,-15.357,-2.745,1.794,-0.879,1.323,1.592
2443.0,-15.357,-2.745,1.794,-0.879,1.323,1.592
2447.0,-14.91,-2.937,1.555,-0.997,1.241,1.61
2451.0,-14.91,-2.937,1.555,-0.997,1.241,1.61
2455.0,-14.91,-2.937,1.14,-0.997,1.241,1.61
2459.0,-14.654,-2.894,1.14,-1.067,1.148,1.55
2463.0,-14.654,-2.894,1.14,-1.067,1.148,1.55
2467.0,-14.818,-2.651,0.584,-1.1,1.074,1.418
2471.0,-14.818,-2.651,0.584,-1.1,1.074,1.418
2475.0,-15.002,-2.369,0.17,-1.1,1.074,1.418
2479.0,-15.002,-2.369,0.17,-1.115,1.009,1.258
2483.0,-15.002,-2.369,0.17,-1.115,1.009,1.258
2487.0,-15.073,-2.104,0.081,-1.121,0.943,1.101
2491.0,-15.073,-2.104,0.081,-1.121,0.943,1.101
2495.0,-14.981,-1.817,0.232,-1.121,0.943,1.101
2499.0,-14.981,-1.817,0.232,-1.104,0.881,0.96
2503.0,-14.981,-1.817,0.232,-1.104,0.881,0.96
2507.0,-14.64,-1.632,0.511,-1.037,0.822,0.835
2511.0,-14.64,-1.632,0.511,-1.037,0.822,0.835
2515.0,-14.091,-1.413,0.736,-1.037,0.755,0.713
2519.0,-14.091,-1.413,0.736,-0.892,0.755,0.713
2523.0,-14.091,-1.413,0.736,-0.892,0.755,0.713
2527.0,-13.344,-1.117,0.767,-0.655,0.673,0.59
2531.0,-13.344,-1.117,0.767,-0.655,0.673,0.59
2535.0,-12.126,-0.62,0.441,-0.332,0.577,0.477
2539.0,-12.126,-0.62,0.441,-0.332,0.577,0.477
2543.0,-12.126,-0.62,0.441,-0.332,0.577,0.477
2547.0,-10.531,0.054,0.016,0.042,0.506,0.383
2551.0,-10.531,0.054,0.016,0.042,0.506,0.383
2555.0,-9.108,0.802,-0.437,0.042,0.494,0.311
2559.0,-9.108,0.802,-0.437,0.413,0.494,0.311
2562.0,-9.108,0.802,-0.437,0.413,0.494,0.311
2566.0,-7.955,1.427,-0.815,0.739,0.549,0.262
2570.0,-7.955,1.427,-0.815,0.739,0.549,0.262
2574.0,-7.955,1.878,-0.947,0.739,0.549,0.262
2578.0,-7.116,1.878,-0.947,0.99,0.648,0.236
2582.0,-7.116,1.878,-0.947,0.99,0.648,0.236
2585.0,-6.522,2.11,-0.922,1.155,0.752,0.23
2589.0,-6.522,2.11,-0.922,1.155,0.752,0.23
2593.0,-6.522,2.11,-0.922,1.155,0.752,0.23
2597.0,-5.995,2.162,-0.801,1.231,0.835,0.23
2601.0,-5.995,2.162,-0.801,1.231,0.835,0.23
2604.0,-5.707,2.207,-0.222,1.221,0.881,0.221
2608.0,-5.707,2.207,-0.222,1.221,0.881,0.221
2612.0,-5.707,2.207,-0.222,1.221,0.881,0.221
2616.0,-5.607,2.038,0.245,1.13,0.867,0.215
2620.0,-5.607,2.038,0.245,1.13,0.867,0.215
2623.0,-5.436,1.798,0.58,1.13,0.867,0.215
2627.0,-5.436,1.798,0.58,0.957,0.808,0.203
2631.0,-5.436,1.798,0.58,0.957,0.808,0.203
2635.0,-5.311,1.525,1.03,0.717,0.729,0.185
2638.0,-5.311,1.525,1.03,0.717,0.729,0.185
2642.0,-5.311,1.525,1.03,0.717,0.729,0.185
2646.0,-5.405,1.199,1.269,0.43,0.651,0.164
2649.0,-5.405,1.199,1.269,0.43,0.651,0.164
2653.0,-5.561,0.76,1.361,0.43,0.651,0.144
2657.0,-5.561,0.76,1.361,0.112,0.579,0.144
2661.0,-5.561,0.76,1.361,0.112,0.579,0.144
2664.0,-5.521,0.304,1.35,-0.223,0.508,0.129
2668.0,-5.521,0.304,1.35,-0.223,0.508,0.129
2672.0,-5.521,0.304,1.35,-0.223,0.508,0.129
2676.0,-5.242,-0.041,1.345,-0.562,0.454,0.124
2680.0,-5.242,-0.041,1.345,-0.562,0.454,0.124
2684.0,-4.801,-0.302,1.357,-0.89,0.427,0.135
2688.0,-4.801,-0.302,1.357,-0.89,0.427,0.135
2692.0,-4.801,-0.302,1.357,-0.89,0.427,0.135
2695.0,-4.194,-0.578,1.313,-1.197,0.438,0.163
2699.0,-4.194,-0.578,1.313,-1.197,0.438,0.163
2703.0,-3.608,-0.834,1.43,-1.478,0.503,0.204
2707.0,-3.608,-0.834,1.43,-1.478,0.503,0.204
2711.0,-3.608,-0.834,1.43,-1.478,0.503,0.204
2715.0,-3.136,-1.025,1.882,-1.724,0.605,0.249
2719.0,-3.136,-1.025,1.882,-1.724,0.605,0.249
2723.0,-2.964,-1.357,2.544,-1.924,0.709,0.3
2727.0,-2.964,-1.357,2.544,-1.924,0.709,0.3
2731.0,-2.964,-1.357,2.544,-1.924,0.709,0.3
2734.0,-3.259,-1.839,3.281,-2.071,0.789,0.336
2738.0,-3.259,-1.839,3.281,-2.071,0.789,0.336
2742.0,-3.995,-2.225,3.86,-2.071,0.825,0.332
2746.0,-3.995,-2.225,3.86,-2.156,0.825,0.332
2750.0,-3.995,-2.225,3.86,-2.156,0.825,0.332
2754.0,-4.991,-2.503,4.306,-2.188,0.816,0.276
2758.0,-4.991,-2.503,4.306,-2.188,0.816,0.276
2762.0,-5.974,-2.679,4.56,-2.188,0.816,0.179
2766.0,-5.974,-2.679,4.56,-2.186,0.756,0.179
2770.0,-5.974,-2.679,4.56,-2.186,0.756,0.179
2774.0,-6.909,-2.762,4.619,-2.176,0.657,0.068
2777.0,-6.909,-2.762,4.619,-2.176,0.657,0.068
2781.0,-7.669,-2.849,4.379,-2.176,0.657,0.068
2785.0,-7.669,-2.849,4.379,-2.171,0.549,-0.041
2789.0,-7.669,-2.849,4.379,-2.171,0.549,-0.041
2793.0,-8.241,-2.774,4.356,-2.173,0.461,-0.135
2797.0,-8.241,-2.774,4.356,-2.173,0.461,-0.135
2801.0,-8.751,-2.713,4.37,-2.173,0.461,-0.135
2805.0,-8.751,-2.713,4.37,-2.175,0.385,-0.196
2809.0,-8.751,-2.713,4.37,-2.175,0.385,-0.196
2813.0,-9.086,-2.741,4.425,-2.156,0.322,-0.238
2817.0,-9.086,-2.741,4.425,-2.156,0.322,-0.238
2821.0,-9.114,-2.746,4.503,-2.156,0.322,-0.293
2825.0,-9.114,-2.746,4.503,-2.098,0.262,-0.293
2829.0,-9.114,-2.746,4.503,-2.098,0.262,-0.293
2833.0,-8.822,-2.67,4.433,-1.998,0.201,-0.384
2837.0,-8.822,-2.67,4.433,-1.998,0.201,-0.384
2841.0,-8.573,-2.407,4.32,-1.872,0.167,-0.517
2845.0,-8.573,-2.407,4.32,-1.872,0.167,-0.517
2849.0,-8.573,-2.407,4.32,-1.872,0.167,-0.517
2853.0,-8.307,-2.147,4.624,-1.741,0.17,-0.675
2857.0,-8.307,-2.147,4.624,-1.741,0.17,-0.675
2861.0,-7.997,-2.043,5.064,-1.591,0.157,-0.823
2865.0,-7.997,-2.043,5.064,-1.591,0.157,-0.823
2869.0,-7.997,-2.043,5.064,-1.591,0.157,-0.823
2873.0,-8.081,-1.918,5.371,-1.409,0.13,-0.946
2877.0,-8.081,-1.918,5.371,-1.409,0.13,-0.946
2881.0,-8.55,-1.877,5.581,-1.205,0.094,-1.037
2885.0,-8.55,-1.877,5.581,-1.205,0.094,-1.037
2889.0,-8.55,-1.877,5.581,-1.205,0.094,-1.037
2893.0,-9.393,-2.011,5.349,-0.984,0.045,-1.088
2897.0,-9.393,-2.011,5.349,-0.984,0.045,-1.088
2901.0,-10.211,-2.176,5.294,-0.76,0.019,-1.105
2905.0,-10.211,-2.176,5.294,-0.76,0.019,-1.105
2909.0,-10.211,-2.176,5.294,-0.76,0.019,-1.105
2913.0,-10.836,-2.345,5.334,-0.529,-0.009,-1.09
2917.0,-10.836,-2.345,5.334,-0.529,-0.009,-1.09
2922.0,-11.835,-2.564,5.308,-0.293,-0.05,-1.041
2926.0,-11.835,-2.564,5.308,-0.293,-0.05,-1.041
2930.0,-13.169,-2.801,5.25,-0.293,-0.108,-0.97
2934.0,-13.169,-2.801,5.25,-0.057,-0.108,-0.97
2938.0,-13.169,-2.801,5.25,-0.057,-0.108,-0.97
2942.0,-14.294,-2.881,5.037,0.174,-0.211,-0.873
2947.0,-14.294,-2.881,5.037,0.174,-0.211,-0.873
2951.0,-14.876,-2.764,4.659,0.376,-0.371,-0.765
2955.0,-14.876,-2.764,4.659,0.376,-0.371,-0.765
2959.0,-14.876,-2.764,4.249,0.376,-0.371,-0.765
2963.0,-14.597,-2.439,4.249,0.534,-0.57,-0.665
2967.0,-14.597,-2.439,4.249,0.534,-0.57,-0.665
2971.0,-13.561,-2.075,3.705,0.643,-0.784,-0.602
2975.0,-13.561,-2.075,3.705,0.643,-0.784,-0.602
2979.0,-12.51,-1.701,2.986,0.643,-0.968,-0.6
2983.0,-12.51,-1.701,2.986,0.705,-0.968,-0.6
2987.0,-12.51,-1.701,2.986,0.705,-0.968,-0.6
2991.0,-11.881,-1.373,2.23,0.718,-1.087,-0.647
2996.0,-11.881,-1.373,2.23,0.718,-1.087,-0.647
3000.0,-11.732,-1.13,1.636,0.68,-1.133,-0.714
