deltaTime,Acc_X,Acc_Y,Acc_Z,Gyro_X,Gyro_Y,Gyro_Z
0.0,-8.852,0.61,2.255,1.032,0.104,-0.102
3.0,-8.852,0.61,2.255,0.958,0.064,-0.102
6.0,-8.852,0.61,2.255,0.958,0.064,-0.102
9.0,-8.852,0.61,2.255,0.958,0.064,-0.102
12.0,-8.592,0.639,2.219,0.868,0.02,-0.109
15.0,-8.592,0.639,2.219,0.868,0.02,-0.109
18.0,-8.592,0.639,2.219,0.868,0.02,-0.109
21.0,-8.591,0.347,2.155,0.783,-0.006,-0.101
24.0,-8.591,0.347,2.155,0.783,-0.006,-0.101
27.0,-8.591,0.347,2.155,0.783,-0.006,-0.101
30.0,-8.67,0.138,2.13,0.783,-0.001,-0.08
33.0,-8.67,0.138,2.13,0.729,-0.001,-0.08
36.0,-8.67,0.138,2.13,0.729,-0.001,-0.08
39.0,-8.67,0.138,2.073,0.729,-0.001,-0.08
43.0,-8.54,0.099,2.073,0.684,0.025,-0.06
46.0,-8.54,0.099,2.073,0.684,0.025,-0.06
50.0,-8.792,0.351,2.128,0.602,0.066,-0.056
53.0,-8.792,0.351,2.128,0.602,0.066,-0.056
57.0,-8.792,0.351,2.128,0.602,0.066,-0.056
61.0,-9.055,0.453,2.006,0.455,0.112,-0.057
64.0,-9.055,0.453,2.006,0.455,0.112,-0.057
68.0,-9.055,0.453,2.006,0.455,0.112,-0.057
72.0,-9.517,0.571,1.884,0.244,0.181,-0.071
75.0,-9.517,0.571,1.884,0.244,0.181,-0.071
79.0,-10.231,0.712,2.164,0.244,0.269,-0.099
83.0,-10.231,0.712,2.164,-0.019,0.269,-0.099
87.0,-10.231,0.712,2.164,-0.019,0.269,-0.099
90.0,-10.845,0.301,2.488,-0.276,0.342,-0.106
94.0,-10.845,0.301,2.488,-0.276,0.342,-0.106
98.0,-10.845,0.301,2.78,-0.276,0.342,-0.106
102.0,-11.507,-0.126,2.78,-0.459,0.404,-0.098
106.0,-11.507,-0.126,2.78,-0.459,0.404,-0.098
110.0,-11.524,-0.214,3.297,-0.565,0.459,-0.094
114.0,-11.524,-0.214,3.297,-0.565,0.459,-0.094
118.0,-11.524,-0.332,3.789,-0.565,0.459,-0.094
122.0,-10.876,-0.332,3.789,-0.619,0.471,-0.089
126.0,-10.876,-0.332,3.789,-0.619,0.471,-0.089
130.0,-10.682,-0.469,4.002,-0.622,0.445,-0.078
134.0,-10.682,-0.469,4.002,-0.622,0.445,-0.078
138.0,-10.764,-0.604,3.964,-0.622,0.445,-0.078
142.0,-10.764,-0.604,3.964,-0.593,0.418,-0.056
146.0,-10.764,-0.604,3.964,-0.593,0.418,-0.056
150.0,-10.395,-0.76,3.705,-0.545,0.397,-0.016
154.0,-10.395,-0.76,3.705,-0.545,0.397,-0.016
158.0,-10.024,-0.767,3.541,-0.545,0.397,0.015
162.0,-10.024,-0.767,3.541,-0.502,0.395,0.015
166.0,-10.024,-0.767,3.541,-0.502,0.395,0.015
169.0,-10.052,-0.629,3.612,-0.497,0.404,0.031
173.0,-10.052,-0.629,3.612,-0.497,0.404,0.031
177.0,-10.118,-0.519,3.811,-0.497,0.404,0.031
181.0,-10.118,-0.519,3.811,-0.534,0.403,0.042
185.0,-10.118,-0.519,3.811,-0.534,0.403,0.042
189.0,-9.922,-0.371,4.186,-0.597,0.381,0.048
193.0,-9.922,-0.371,4.186,-0.597,0.381,0.048
197.0,-9.922,-0.371,4.411,-0.597,0.381,0.048
200.0,-8.931,-0.108,4.411,-0.679,0.324,0.039
204.0,-8.931,-0.108,4.411,-0.679,0.324,0.039
208.0,-7.639,0.546,4.804,-0.814,0.25,-0.032
212.0,-7.639,0.546,4.804,-0.814,0.25,-0.032
216.0,-7.639,0.546,4.804,-0.814,0.25,-0.032
220.0,-7.019,0.337,5.428,-0.993,0.162,-0.138
223.0,-7.019,0.337,5.428,-0.993,0.162,-0.138
227.0,-6.826,-0.391,5.833,-1.067,0.054,-0.182
231.0,-6.826,-0.391,5.833,-1.067,0.054,-0.182
235.0,-6.826,-0.391,5.833,-1.067,0.054,-0.182
239.0,-6.592,-0.891,5.923,-0.969,-0.074,-0.18
243.0,-6.592,-0.891,5.923,-0.969,-0.074,-0.18
247.0,-6.495,-1.28,5.761,-0.765,-0.173,-0.158
251.0,-6.495,-1.28,5.761,-0.765,-0.173,-0.158
255.0,-6.495,-1.28,5.761,-0.765,-0.173,-0.158
259.0,-6.643,-1.384,5.416,-0.506,-0.268,-0.139
263.0,-6.643,-1.384,5.416,-0.506,-0.268,-0.139
267.0,-7.232,-1.323,5.027,-0.247,-0.361,-0.131
271.0,-7.232,-1.323,5.027,-0.247,-0.361,-0.131
275.0,-7.232,-1.323,5.027,-0.247,-0.361,-0.131
279.0,-7.976,-0.894,4.367,-0.021,-0.46,-0.138
283.0,-7.976,-0.894,4.367,-0.021,-0.46,-0.138
287.0,-8.491,-0.817,3.784,0.133,-0.561,-0.158
291.0,-8.491,-0.817,3.784,0.133,-0.561,-0.158
295.0,-8.491,-0.817,3.784,0.133,-0.561,-0.158
299.0,-9.066,-0.042,3.272,0.233,-0.657,-0.168
302.0,-9.066,-0.042,3.272,0.233,-0.657,-0.168
306.0,-9.503,0.39,2.776,0.219,-0.748,-0.18
310.0,-9.503,0.39,2.776,0.219,-0.748,-0.18
314.0,-9.503,0.39,2.776,0.219,-0.748,-0.18
318.0,-9.977,0.581,2.313,0.136,-0.799,-0.159
322.0,-9.977,0.581,2.313,0.136,-0.799,-0.159
325.0,-10.589,0.79,1.994,0.136,-0.799,-0.159
329.0,-10.589,0.79,1.994,0.029,-0.796,-0.104
333.0,-10.589,0.79,1.994,0.029,-0.796,-0.104
337.0,-11.242,0.976,1.771,-0.1,-0.758,-0.022
341.0,-11.242,0.976,1.771,-0.1,-0.758,-0.022
345.0,-11.841,1.058,1.582,-0.1,-0.758,-0.022
349.0,-11.841,1.058,1.582,-0.256,-0.702,0.077
353.0,-11.841,1.058,1.582,-0.256,-0.702,0.077
357.0,-12.251,1.109,1.479,-0.441,-0.64,0.178
361.0,-12.251,1.109,1.479,-0.441,-0.64,0.178
365.0,-12.134,1.213,1.493,-0.441,-0.64,0.178
369.0,-12.134,1.213,1.493,-0.647,-0.591,0.273
373.0,-12.134,1.213,1.493,-0.647,-0.591,0.273
376.0,-11.343,1.193,1.482,-0.863,-0.568,0.357
380.0,-11.343,1.193,1.482,-0.863,-0.568,0.357
384.0,-11.343,1.193,1.349,-0.863,-0.568,0.357
388.0,-10.33,1.033,1.349,-1.075,-0.553,0.416
392.0,-10.33,1.033,1.349,-1.075,-0.553,0.416
396.0,-9.461,0.873,1.084,-1.262,-0.517,0.442
400.0,-9.461,0.873,1.084,-1.262,-0.517,0.442
404.0,-9.461,0.873,1.084,-1.262,-0.517,0.442
407.0,-8.867,0.683,0.767,-1.422,-0.456,0.45
411.0,-8.867,0.683,0.767,-1.422,-0.456,0.45
415.0,-8.781,0.593,0.461,-1.556,-0.383,0.447
419.0,-8.781,0.593,0.461,-1.556,-0.383,0.447
423.0,-8.781,0.593,0.461,-1.556,-0.383,0.447
427.0,-8.983,0.556,0.165,-1.664,-0.314,0.449
430.0,-8.983,0.556,0.165,-1.664,-0.314,0.449
434.0,-9.24,0.478,-0.131,-1.664,-0.314,0.47
438.0,-9.24,0.478,-0.131,-1.748,-0.267,0.47
442.0,-9.24,0.478,-0.131,-1.748,-0.267,0.47
446.0,-9.48,0.388,-0.484,-1.81,-0.245,0.51
450.0,-9.48,0.388,-0.484,-1.81,-0.245,0.51
454.0,-9.793,0.279,-0.875,-1.81,-0.245,0.51
458.0,-9.793,0.279,-0.875,-1.855,-0.232,0.567
462.0,-9.793,0.279,-0.875,-1.855,-0.232,0.567
465.0,-10.104,0.177,-1.241,-1.89,-0.216,0.64
469.0,-10.104,0.177,-1.241,-1.89,-0.216,0.64
473.0,-10.322,0.042,-1.477,-1.89,-0.216,0.64
477.0,-10.322,0.042,-1.477,-1.924,-0.188,0.724
481.0,-10.322,0.042,-1.477,-1.924,-0.188,0.724
485.0,-10.39,-0.118,-1.552,-1.959,-0.147,0.813
489.0,-10.39,-0.118,-1.552,-1.959,-0.147,0.813
494.0,-10.372,-0.267,-1.516,-1.959,-0.098,0.898
498.0,-10.372,-0.267,-1.516,-2.003,-0.098,0.898
502.0,-10.372,-0.267,-1.516,-2.003,-0.098,0.898
506.0,-10.244,-0.435,-1.38,-2.056,-0.042,0.971
510.0,-10.244,-0.435,-1.38,-2.056,-0.042,0.971
514.0,-9.955,-0.644,-1.139,-2.112,0.014,1.032
518.0,-9.955,-0.644,-1.139,-2.112,0.014,1.032
522.0,-9.955,-0.644,-1.139,-2.112,0.014,1.032
526.0,-9.813,-0.841,-0.949,-2.165,0.066,1.077
530.0,-9.813,-0.841,-0.949,-2.165,0.066,1.077
533.0,-9.832,-1.013,-0.732,-2.211,0.123,1.108
537.0,-9.832,-1.013,-0.732,-2.211,0.123,1.108
541.0,-9.832,-1.013,-0.732,-2.211,0.123,1.108
545.0,-9.984,-1.196,-0.511,-2.247,0.183,1.137
549.0,-9.984,-1.196,-0.511,-2.247,0.183,1.137
553.0,-10.232,-1.367,-0.327,-2.271,0.239,1.175
557.0,-10.232,-1.367,-0.327,-2.271,0.239,1.175
561.0,-10.232,-1.367,-0.327,-2.271,0.239,1.175
565.0,-10.534,-1.568,-0.214,-2.281,0.299,1.229
569.0,-10.534,-1.568,-0.214,-2.281,0.299,1.229
573.0,-10.807,-1.769,-0.105,-2.277,0.363,1.3
577.0,-10.807,-1.769,-0.105,-2.277,0.363,1.3
581.0,-10.807,-1.769,-0.105,-2.277,0.363,1.3
585.0,-11.104,-1.979,0.016,-2.257,0.432,1.386
589.0,-11.104,-1.979,0.016,-2.257,0.432,1.386
593.0,-11.404,-2.175,0.117,-2.218,0.505,1.487
597.0,-11.404,-2.175,0.117,-2.218,0.505,1.487
601.0,-11.404,-2.175,0.117,-2.218,0.505,1.487
605.0,-11.62,-2.389,0.287,-2.162,0.579,1.599
608.0,-11.62,-2.389,0.287,-2.162,0.579,1.599
612.0,-11.722,-2.606,0.558,-2.085,0.634,1.717
616.0,-11.722,-2.606,0.558,-2.085,0.634,1.717
620.0,-11.722,-2.606,0.558,-2.085,0.634,1.717
624.0,-11.872,-2.779,0.832,-1.992,0.668,1.83
628.0,-11.872,-2.779,0.832,-1.992,0.668,1.83
632.0,-12.195,-2.969,1.031,-1.884,0.688,1.936
636.0,-12.195,-2.969,1.031,-1.884,0.688,1.936
640.0,-12.195,-2.969,1.031,-1.884,0.688,1.936
644.0,-12.652,-3.153,1.243,-1.763,0.693,2.042
647.0,-12.652,-3.153,1.243,-1.763,0.693,2.042
651.0,-13.083,-3.325,1.466,-1.763,0.682,2.142
655.0,-13.083,-3.325,1.466,-1.629,0.682,2.142
659.0,-13.083,-3.325,1.466,-1.629,0.682,2.142
663.0,-13.291,-3.457,1.618,-1.481,0.654,2.231
667.0,-13.291,-3.457,1.618,-1.481,0.654,2.231
671.0,-13.261,-3.516,1.693,-1.481,0.654,2.231
675.0,-13.261,-3.516,1.693,-1.324,0.614,2.3
679.0,-13.261,-3.516,1.693,-1.324,0.614,2.3
683.0,-13.014,-3.494,1.704,-1.169,0.573,2.347
687.0,-13.014,-3.494,1.704,-1.169,0.573,2.347
690.0,-12.645,-3.391,1.625,-1.169,0.573,2.347
694.0,-12.645,-3.391,1.625,-1.023,0.54,2.367
698.0,-12.645,-3.391,1.625,-1.023,0.54,2.367
702.0,-12.117,-3.211,1.497,-0.896,0.521,2.354
706.0,-12.117,-3.211,1.497,-0.896,0.521,2.354
710.0,-12.117,-3.211,1.431,-0.896,0.521,2.354
714.0,-11.382,-3.035,1.431,-0.795,0.515,2.307
718.0,-11.382,-3.035,1.431,-0.795,0.515,2.307
722.0,-10.547,-2.87,1.42,-0.718,0.517,2.222
726.0,-10.547,-2.87,1.42,-0.718,0.517,2.222
730.0,-10.547,-2.87,1.42,-0.718,0.517,2.222
733.0,-9.862,-2.649,1.51,-0.661,0.533,2.1
737.0,-9.862,-2.649,1.51,-0.661,0.533,2.1
741.0,-9.369,-2.465,1.697,-0.623,0.561,1.956
745.0,-9.369,-2.465,1.697,-0.623,0.561,1.956
749.0,-9.369,-2.465,1.697,-0.623,0.561,1.956
753.0,-9.208,-2.289,1.807,-0.606,0.591,1.811
756.0,-9.208,-2.289,1.807,-0.606,0.591,1.811
760.0,-9.705,-2.153,1.842,-0.614,0.638,1.677
764.0,-9.705,-2.153,1.842,-0.614,0.638,1.677
768.0,-9.705,-2.153,1.842,-0.614,0.638,1.677
772.0,-10.66,-2.228,1.989,-0.646,0.708,1.567
776.0,-10.66,-2.228,1.989,-0.646,0.708,1.567
779.0,-11.524,-2.512,2.353,-0.646,0.708,1.567
783.0,-11.524,-2.512,2.353,-0.688,0.765,1.478
787.0,-11.524,-2.512,2.353,-0.688,0.765,1.478
791.0,-12.014,-2.821,2.797,-0.722,0.767,1.4
795.0,-12.014,-2.821,2.797,-0.722,0.767,1.4
799.0,-12.014,-3.117,3.06,-0.722,0.767,1.4
803.0,-12.075,-3.117,3.06,-0.735,0.719,1.323
807.0,-12.075,-3.117,3.06,-0.735,0.719,1.323
811.0,-11.614,-3.354,3.179,-0.719,0.655,1.234
815.0,-11.614,-3.354,3.179,-0.719,0.655,1.234
818.0,-11.614,-3.354,3.318,-0.719,0.655,1.234
822.0,-10.651,-3.467,3.318,-0.676,0.591,1.137
826.0,-10.651,-3.467,3.318,-0.676,0.591,1.137
830.0,-9.641,-3.471,3.404,-0.614,0.54,1.031
834.0,-9.641,-3.471,3.404,-0.614,0.54,1.031
838.0,-9.641,-3.471,3.404,-0.614,0.54,1.031
842.0,-8.813,-3.44,3.494,-0.533,0.507,0.917
845.0,-8.813,-3.44,3.494,-0.533,0.507,0.917
849.0,-8.115,-3.396,3.532,-0.433,0.48,0.796
853.0,-8.115,-3.396,3.532,-0.433,0.48,0.796
857.0,-8.115,-3.396,3.532,-0.433,0.48,0.796
861.0,-7.498,-3.385,3.495,-0.311,0.451,0.672
865.0,-7.498,-3.385,3.495,-0.311,0.451,0.672
868.0,-7.274,-3.414,3.484,-0.311,0.451,0.556
872.0,-7.274,-3.414,3.484,-0.165,0.437,0.556
876.0,-7.274,-3.414,3.484,-0.165,0.437,0.556
880.0,-7.607,-3.624,3.433,0.01,0.437,0.465
884.0,-7.607,-3.624,3.433,0.01,0.437,0.465
887.0,-7.607,-3.624,3.433,0.01,0.437,0.465
891.0,-8.523,-3.948,3.556,0.215,0.448,0.404
895.0,-8.523,-3.948,3.556,0.215,0.448,0.404
899.0,-9.587,-4.366,3.826,0.451,0.443,0.363
902.0,-9.587,-4.366,3.826,0.451,0.443,0.363
906.0,-9.587,-4.366,3.826,0.451,0.443,0.363
910.0,-10.356,-4.772,4.131,0.715,0.39,0.33
914.0,-10.356,-4.772,4.131,0.715,0.39,0.33
917.0,-10.356,-5.085,4.287,0.715,0.39,0.33
921.0,-10.667,-5.085,4.287,1.003,0.289,0.278
925.0,-10.667,-5.085,4.287,1.003,0.289,0.278
929.0,-10.548,-5.161,4.251,1.306,0.171,0.186
933.0,-10.548,-5.161,4.251,1.306,0.171,0.186
936.0,-10.548,-5.161,4.251,1.306,0.171,0.186
940.0,-10.26,-4.982,4.122,1.606,0.063,0.052
944.0,-10.26,-4.982,4.122,1.606,0.063,0.052
948.0,-9.922,-4.563,3.941,1.885,-0.032,-0.112
952.0,-9.922,-4.563,3.941,1.885,-0.032,-0.112
956.0,-9.922,-4.563,3.941,1.885,-0.032,-0.112
960.0,-9.376,-4.062,3.68,2.126,-0.124,-0.29
964.0,-9.376,-4.062,3.68,2.126,-0.124,-0.29
967.0,-8.849,-3.585,3.43,2.328,-0.21,-0.479
971.0,-8.849,-3.585,3.43,2.328,-0.21,-0.479
975.0,-8.849,-3.585,3.43,2.328,-0.21,-0.479
979.0,-8.509,-3.181,3.236,2.499,-0.287,-0.672
983.0,-8.509,-3.181,3.236,2.499,-0.287,-0.672
987.0,-8.148,-2.811,3.007,2.499,-0.287,-0.864
991.0,-8.148,-2.811,3.007,2.653,-0.37,-0.864
995.0,-8.148,-2.811,3.007,2.653,-0.37,-0.864
999.0,-7.837,-2.491,2.692,2.788,-0.459,-1.05
1003.0,-7.837,-2.491,2.692,2.788,-0.459,-1.05
1007.0,-7.872,-2.222,2.373,2.788,-0.459,-1.225
1011.0,-7.872,-2.222,2.373,2.899,-0.535,-1.225
1015.0,-7.872,-2.222,2.373,2.899,-0.535,-1.225
1019.0,-8.307,-2.059,2.1,2.985,-0.598,-1.389
1023.0,-8.307,-2.059,2.1,2.985,-0.598,-1.389
1027.0,-8.905,-1.946,1.775,2.985,-0.663,-1.539
1031.0,-8.905,-1.946,1.775,3.045,-0.663,-1.539
1035.0,-8.905,-1.946,1.775,3.045,-0.663,-1.539
1039.0,-9.678,-1.875,1.431,3.081,-0.731,-1.676
1043.0,-9.678,-1.875,1.431,3.081,-0.731,-1.676
1047.0,-10.623,-1.855,1.112,3.099,-0.795,-1.801
1051.0,-10.623,-1.855,1.112,3.099,-0.795,-1.801
1055.0,-10.623,-1.855,1.112,3.099,-0.795,-1.801
1059.0,-11.521,-1.845,0.845,3.102,-0.869,-1.905
1063.0,-11.521,-1.845,0.845,3.102,-0.869,-1.905
1067.0,-12.262,-1.801,0.584,3.094,-0.958,-1.985
1071.0,-12.262,-1.801,0.584,3.094,-0.958,-1.985
1075.0,-12.262,-1.801,0.32,3.094,-0.958,-1.985
1079.0,-12.901,-1.747,0.32,3.071,-1.058,-2.048
1083.0,-12.901,-1.747,0.32,3.071,-1.058,-2.048
1087.0,-13.471,-1.588,0.102,3.03,-1.16,-2.107
1091.0,-13.471,-1.588,0.102,3.03,-1.16,-2.107
1095.0,-13.659,-1.397,-0.138,3.03,-1.16,-2.16
1100.0,-13.659,-1.397,-0.138,2.964,-1.265,-2.16
1104.0,-13.659,-1.397,-0.138,2.964,-1.265,-2.16
1108.0,-13.423,-1.191,-0.333,2.867,-1.374,-2.21
1112.0,-13.423,-1.191,-0.333,2.867,-1.374,-2.21
1116.0,-13.037,-0.966,-0.394,2.741,-1.471,-2.262
1120.0,-13.037,-0.966,-0.394,2.741,-1.471,-2.262
1125.0,-13.037,-0.763,-0.456,2.741,-1.471,-2.262
1129.0,-12.645,-0.763,-0.456,2.593,-1.547,-2.313
1133.0,-12.645,-0.763,-0.456,2.593,-1.547,-2.313
1137.0,-12.3,-0.604,-0.443,2.426,-1.603,-2.356
1141.0,-12.3,-0.604,-0.443,2.426,-1.603,-2.356
1145.0,-12.184,-0.489,-0.553,2.247,-1.643,-2.393
1150.0,-12.184,-0.489,-0.553,2.247,-1.643,-2.393
1154.0,-12.184,-0.489,-0.553,2.247,-1.643,-2.393
1158.0,-12.162,-0.411,-0.748,2.06,-1.661,-2.426
1162.0,-12.162,-0.411,-0.748,2.06,-1.661,-2.426
1166.0,-12.059,-0.346,-0.841,1.872,-1.663,-2.455
1170.0,-12.059,-0.346,-0.841,1.872,-1.663,-2.455
1175.0,-11.787,-0.296,-0.841,1.872,-1.665,-2.478
1179.0,-11.787,-0.296,-0.841,1.693,-1.665,-2.478
1183.0,-11.787,-0.296,-0.841,1.693,-1.665,-2.478
1187.0,-11.347,-0.204,-0.885,1.532,-1.672,-2.492
1191.0,-11.347,-0.204,-0.885,1.532,-1.672,-2.492
1195.0,-10.995,-0.063,-0.955,1.39,-1.675,-2.492
1200.0,-10.995,-0.063,-0.955,1.39,-1.675,-2.492
1204.0,-10.859,0.111,-0.987,1.39,-1.675,-2.492
1208.0,-10.859,0.111,-0.987,1.262,-1.661,-2.466
1212.0,-10.859,0.111,-0.987,1.262,-1.661,-2.466
1216.0,-11.046,0.264,-1.06,1.134,-1.63,-2.405
1220.0,-11.046,0.264,-1.06,1.134,-1.63,-2.405
1224.0,-11.422,0.315,-1.191,0.998,-1.583,-2.308
1228.0,-11.422,0.315,-1.191,0.998,-1.583,-2.308
1232.0,-11.422,0.315,-1.191,0.998,-1.583,-2.308
1236.0,-11.876,0.27,-1.353,0.857,-1.523,-2.185
1241.0,-11.876,0.27,-1.353,0.857,-1.523,-2.185
1245.0,-12.143,0.264,-1.439,0.715,-1.464,-2.06
1249.0,-12.143,0.264,-1.439,0.715,-1.464,-2.06
1253.0,-12.143,0.264,-1.463,0.715,-1.464,-2.06
1257.0,-11.946,0.288,-1.463,0.58,-1.419,-1.942
1261.0,-11.946,0.288,-1.463,0.58,-1.419,-1.942
1265.0,-11.491,0.334,-1.39,0.452,-1.39,-1.845
1269.0,-11.491,0.334,-1.39,0.452,-1.39,-1.845
1273.0,-11.065,0.413,-1.259,0.452,-1.39,-1.781
1277.0,-11.065,0.413,-1.259,0.337,-1.37,-1.781
1281.0,-11.065,0.413,-1.259,0.337,-1.37,-1.781
1285.0,-10.875,0.552,-1.161,0.232,-1.354,-1.749
1289.0,-10.875,0.552,-1.161,0.232,-1.354,-1.749
1294.0,-10.991,0.854,-1.195,0.128,-1.336,-1.728
1298.0,-10.991,0.854,-1.195,0.128,-1.336,-1.728
1302.0,-10.991,0.854,-1.195,0.128,-1.336,-1.728
1306.0,-11.149,1.192,-1.318,0.017,-1.303,-1.691
1310.0,-11.149,1.192,-1.318,0.017,-1.303,-1.691
1314.0,-11.11,1.473,-1.385,-0.101,-1.251,-1.627
1318.0,-11.11,1.473,-1.385,-0.101,-1.251,-1.627
1322.0,-10.836,1.682,-1.415,-0.101,-1.251,-1.627
1326.0,-10.836,1.682,-1.415,-0.222,-1.177,-1.532
1331.0,-10.836,1.682,-1.415,-0.222,-1.177,-1.532
1335.0,-10.579,1.745,-1.471,-0.338,-1.081,-1.422
1339.0,-10.579,1.745,-1.471,-0.338,-1.081,-1.422
1343.0,-10.543,1.736,-1.373,-0.455,-0.957,-1.308
1347.0,-10.543,1.736,-1.373,-0.455,-0.957,-1.308
1351.0,-10.543,1.736,-1.174,-0.455,-0.957,-1.308
1356.0,-10.654,1.655,-1.174,-0.571,-0.821,-1.198
1360.0,-10.654,1.655,-1.174,-0.571,-0.821,-1.198
1364.0,-10.781,1.578,-0.915,-0.687,-0.694,-1.092
1368.0,-10.781,1.578,-0.915,-0.687,-0.694,-1.092
1372.0,-10.927,1.563,-0.557,-0.798,-0.582,-0.985
1376.0,-10.927,1.563,-0.557,-0.798,-0.582,-0.985
1381.0,-10.927,1.563,-0.557,-0.798,-0.582,-0.985
1385.0,-10.909,1.442,-0.281,-0.9,-0.491,-0.868
1389.0,-10.909,1.442,-0.281,-0.9,-0.491,-0.868
1393.0,-10.634,1.265,-0.042,-0.99,-0.42,-0.749
1397.0,-10.634,1.265,-0.042,-0.99,-0.42,-0.749
1401.0,-10.373,1.155,0.114,-0.99,-0.42,-0.64
1406.0,-10.373,1.155,0.114,-1.068,-0.36,-0.64
1410.0,-10.373,1.155,0.114,-1.068,-0.36,-0.64
1414.0,-10.207,1.055,0.154,-1.139,-0.298,-0.536
1418.0,-10.207,1.055,0.154,-1.139,-0.298,-0.536
1422.0,-10.015,0.986,0.15,-1.207,-0.232,-0.428
1426.0,-10.015,0.986,0.15,-1.207,-0.232,-0.428
1430.0,-10.015,0.986,0.15,-1.207,-0.232,-0.428
1434.0,-9.885,0.937,0.189,-1.279,-0.167,-0.317
1438.0,-9.885,0.937,0.189,-1.279,-0.167,-0.317
1442.0,-9.936,0.827,0.229,-1.358,-0.099,-0.199
1446.0,-9.936,0.827,0.229,-1.358,-0.099,-0.199
1450.0,-9.936,0.827,0.229,-1.358,-0.099,-0.199
1454.0,-10.101,0.684,0.343,-1.44,-0.028,-0.07
1458.0,-10.101,0.684,0.343,-1.44,-0.028,-0.07
1462.0,-10.265,0.527,0.485,-1.521,0.034,0.074
1466.0,-10.265,0.527,0.485,-1.521,0.034,0.074
1470.0,-10.265,0.527,0.62,-1.521,0.034,0.074
1474.0,-10.429,0.388,0.62,-1.602,0.086,0.231
1478.0,-10.429,0.388,0.62,-1.602,0.086,0.231
1482.0,-10.486,0.212,0.733,-1.683,0.133,0.397
1486.0,-10.486,0.212,0.733,-1.683,0.133,0.397
1490.0,-10.486,0.212,0.733,-1.683,0.133,0.397
1493.0,-10.394,0.003,0.829,-1.766,0.174,0.568
1497.0,-10.394,0.003,0.829,-1.766,0.174,0.568
1501.0,-10.265,-0.159,0.89,-1.854,0.215,0.734
1505.0,-10.265,-0.159,0.89,-1.854,0.215,0.734
1509.0,-10.265,-0.159,0.89,-1.854,0.215,0.734
1513.0,-10.089,-0.324,0.988,-1.947,0.263,0.894
1517.0,-10.089,-0.324,0.988,-1.947,0.263,0.894
1521.0,-9.927,-0.495,1.062,-2.042,0.31,1.045
1525.0,-9.927,-0.495,1.062,-2.042,0.31,1.045
1529.0,-9.927,-0.495,1.062,-2.042,0.31,1.045
1533.0,-9.87,-0.629,1.097,-2.138,0.361,1.19
1537.0,-9.87,-0.629,1.097,-2.138,0.361,1.19
1541.0,-9.811,-0.772,1.185,-2.232,0.412,1.333
1545.0,-9.811,-0.772,1.185,-2.232,0.412,1.333
1549.0,-9.811,-0.772,1.185,-2.232,0.412,1.333
1553.0,-9.784,-0.88,1.267,-2.319,0.454,1.471
1556.0,-9.784,-0.88,1.267,-2.319,0.454,1.471
1560.0,-9.869,-1.0,1.305,-2.399,0.487,1.607
1564.0,-9.869,-1.0,1.305,-2.399,0.487,1.607
1568.0,-9.869,-1.0,1.305,-2.399,0.487,1.607
1572.0,-9.967,-1.107,1.324,-2.467,0.51,1.739
1576.0,-9.967,-1.107,1.324,-2.467,0.51,1.739
1580.0,-10.065,-1.219,1.316,-2.525,0.516,1.868
1584.0,-10.065,-1.219,1.316,-2.525,0.516,1.868
1588.0,-10.065,-1.219,1.316,-2.525,0.516,1.868
1592.0,-10.406,-1.689,1.342,-2.571,0.513,1.992
1596.0,-10.406,-1.689,1.342,-2.571,0.513,1.992
1600.0,-10.686,-1.512,1.252,-2.583,0.502,2.108
1604.0,-10.686,-1.512,1.252,-2.583,0.502,2.108
1608.0,-10.686,-1.512,1.252,-2.583,0.502,2.108
1612.0,-10.732,-1.571,1.033,-2.607,0.498,2.248
1616.0,-10.732,-1.571,1.033,-2.607,0.498,2.248
1620.0,-10.997,-1.705,0.936,-2.649,0.509,2.38
1624.0,-10.997,-1.705,0.936,-2.649,0.509,2.38
1628.0,-10.997,-1.705,0.936,-2.649,0.509,2.38
1632.0,-11.447,-1.87,0.901,-2.69,0.518,2.511
1636.0,-11.447,-1.87,0.901,-2.69,0.518,2.511
1640.0,-11.813,-2.045,0.874,-2.719,0.517,2.639
1644.0,-11.813,-2.045,0.874,-2.719,0.517,2.639
1648.0,-11.813,-2.045,0.864,-2.719,0.517,2.639
1652.0,-12.118,-2.179,0.864,-2.741,0.511,2.758
1656.0,-12.118,-2.179,0.864,-2.741,0.511,2.758
1660.0,-12.508,-2.331,0.887,-2.76,0.505,2.864
1664.0,-12.508,-2.331,0.887,-2.76,0.505,2.864
1668.0,-12.484,-2.502,1.03,-2.76,0.505,2.864
1672.0,-12.484,-2.502,1.03,-2.767,0.486,2.953
1676.0,-12.484,-2.502,1.03,-2.767,0.486,2.953
1680.0,-12.078,-2.603,1.147,-2.762,0.438,3.01
1684.0,-12.078,-2.603,1.147,-2.762,0.438,3.01
1688.0,-11.71,-2.578,1.147,-2.762,0.438,3.022
1692.0,-11.71,-2.578,1.147,-2.751,0.38,3.022
1696.0,-11.71,-2.578,1.147,-2.751,0.38,3.022
1700.0,-11.323,-2.517,1.027,-2.742,0.324,2.996
1704.0,-11.323,-2.517,1.027,-2.742,0.324,2.996
1708.0,-10.966,-2.458,0.851,-2.742,0.28,2.943
1712.0,-10.966,-2.458,0.851,-2.738,0.28,2.943
1716.0,-10.966,-2.458,0.851,-2.738,0.28,2.943
1720.0,-10.99,-2.378,0.627,-2.744,0.267,2.875
1724.0,-10.99,-2.378,0.627,-2.744,0.267,2.875
1728.0,-11.476,-2.357,0.513,-2.758,0.3,2.807
1732.0,-11.476,-2.357,0.513,-2.758,0.3,2.807
1736.0,-11.476,-2.357,0.513,-2.758,0.3,2.807
1740.0,-12.023,-2.481,0.468,-2.772,0.35,2.749
1744.0,-12.023,-2.481,0.468,-2.772,0.35,2.749
1748.0,-12.744,-2.614,0.582,-2.783,0.399,2.698
1752.0,-12.744,-2.614,0.582,-2.783,0.399,2.698
1756.0,-12.744,-2.614,0.582,-2.783,0.399,2.698
1760.0,-13.435,-2.846,0.814,-2.783,0.442,2.647
1764.0,-13.435,-2.846,0.814,-2.783,0.442,2.647
1768.0,-13.632,-3.106,1.069,-2.762,0.449,2.588
1772.0,-13.632,-3.106,1.069,-2.762,0.449,2.588
1776.0,-13.632,-3.106,1.069,-2.762,0.449,2.588
1779.0,-13.455,-3.288,1.278,-2.726,0.419,2.512
1783.0,-13.455,-3.288,1.278,-2.726,0.419,2.512
1787.0,-12.975,-3.368,1.376,-2.675,0.38,2.411
1791.0,-12.975,-3.368,1.376,-2.675,0.38,2.411
1795.0,-12.975,-3.368,1.376,-2.675,0.38,2.411
1799.0,-12.229,-3.345,1.354,-2.622,0.341,2.285
1803.0,-12.229,-3.345,1.354,-2.622,0.341,2.285
1807.0,-11.611,-3.24,1.241,-2.582,0.318,2.146
1811.0,-11.611,-3.24,1.241,-2.582,0.318,2.146
1815.0,-11.611,-3.24,1.14,-2.582,0.318,2.146
1819.0,-11.202,-3.172,1.14,-2.559,0.327,2.009
1823.0,-11.202,-3.172,1.14,-2.559,0.327,2.009
1827.0,-10.882,-3.19,1.095,-2.542,0.353,1.879
1831.0,-10.882,-3.19,1.095,-2.542,0.353,1.879
1835.0,-10.882,-3.31,1.12,-2.542,0.353,1.879
1839.0,-10.729,-3.31,1.12,-2.522,0.383,1.761
1843.0,-10.729,-3.31,1.12,-2.522,0.383,1.761
1847.0,-10.75,-3.501,1.251,-2.48,0.419,1.651
1851.0,-10.75,-3.501,1.251,-2.48,0.419,1.651
1855.0,-10.637,-3.728,1.443,-2.48,0.419,1.651
1859.0,-10.637,-3.728,1.443,-2.406,0.44,1.548
1863.0,-10.637,-3.728,1.443,-2.406,0.44,1.548
1867.0,-10.44,-3.91,1.646,-2.298,0.441,1.448
1871.0,-10.44,-3.91,1.646,-2.298,0.441,1.448
1875.0,-10.338,-4.038,1.826,-2.298,0.441,1.351
1879.0,-10.338,-4.038,1.826,-2.161,0.436,1.351
1883.0,-10.338,-4.038,1.826,-2.161,0.436,1.351
1887.0,-10.293,-4.116,1.928,-2.002,0.43,1.265
1891.0,-10.293,-4.116,1.928,-2.002,0.43,1.265
1895.0,-10.255,-4.162,2.015,-1.837,0.428,1.198
1899.0,-10.255,-4.162,2.015,-1.837,0.428,1.198
1903.0,-10.255,-4.162,2.015,-1.837,0.428,1.198
1907.0,-10.197,-4.22,2.114,-1.678,0.434,1.145
1911.0,-10.197,-4.22,2.114,-1.678,0.434,1.145
1915.0,-10.068,-4.35,2.253,-1.524,0.444,1.101
1919.0,-10.068,-4.35,2.253,-1.524,0.444,1.101
1923.0,-10.068,-4.35,2.253,-1.524,0.444,1.101
1927.0,-9.806,-4.494,2.458,-1.369,0.451,1.056
1931.0,-9.806,-4.494,2.458,-1.369,0.451,1.056
1935.0,-9.361,-4.595,2.677,-1.206,0.448,0.998
1939.0,-9.361,-4.595,2.677,-1.206,0.448,0.998
1943.0,-9.361,-4.595,2.677,-1.206,0.448,0.998
1947.0,-8.887,-4.643,2.911,-1.033,0.438,0.923
1951.0,-8.887,-4.643,2.911,-1.033,0.438,0.923
1955.0,-8.323,-4.63,3.083,-0.85,0.417,0.829
1958.0,-8.323,-4.63,3.083,-0.85,0.417,0.829
1962.0,-8.323,-4.63,3.083,-0.85,0.417,0.829
1966.0,-7.789,-4.576,3.212,-0.664,0.395,0.723
1970.0,-7.789,-4.576,3.212,-0.664,0.395,0.723
1974.0,-7.473,-4.503,3.315,-0.664,0.383,0.607
1978.0,-7.473,-4.503,3.315,-0.479,0.383,0.607
1982.0,-7.473,-4.503,3.315,-0.479,0.383,0.607
1986.0,-7.451,-4.488,3.404,-0.295,0.379,0.489
1990.0,-7.451,-4.488,3.404,-0.295,0.379,0.489
1994.0,-7.64,-4.518,3.482,-0.295,0.379,0.369
1998.0,-7.64,-4.518,3.482,-0.109,0.378,0.369
2001.0,-7.64,-4.518,3.482,-0.109,0.378,0.369
2005.0,-8.078,-4.583,3.537,0.08,0.373,0.241
2009.0,-8.078,-4.583,3.537,0.08,0.373,0.241
2013.0,-8.078,-4.692,3.604,0.08,0.373,0.241
2017.0,-8.667,-4.692,3.604,0.275,0.366,0.105
2021.0,-8.667,-4.692,3.604,0.275,0.366,0.105
2024.0,-9.321,-4.79,3.74,0.477,0.354,-0.04
2028.0,-9.321,-4.79,3.74,0.477,0.354,-0.04
2032.0,-9.321,-4.79,3.74,0.477,0.354,-0.04
2036.0,-9.95,-4.888,3.87,0.688,0.328,-0.196
2040.0,-9.95,-4.888,3.87,0.688,0.328,-0.196
2044.0,-10.357,-4.88,3.996,0.903,0.277,-0.369
2048.0,-10.357,-4.88,3.996,0.903,0.277,-0.369
2052.0,-10.357,-4.88,3.996,0.903,0.277,-0.369
2056.0,-10.445,-4.711,4.069,1.118,0.206,-0.562
2060.0,-10.445,-4.711,4.069,1.118,0.206,-0.562
2064.0,-10.126,-4.394,3.942,1.319,0.122,-0.766
2068.0,-10.126,-4.394,3.942,1.319,0.122,-0.766
2072.0,-10.126,-4.394,3.942,1.319,0.122,-0.766
2076.0,-9.84,-3.986,3.762,1.495,0.054,-0.972
2080.0,-9.84,-3.986,3.762,1.495,0.054,-0.972
2084.0,-9.986,-3.659,3.519,1.642,0.018,-1.171
2088.0,-9.986,-3.659,3.519,1.642,0.018,-1.171
2092.0,-9.986,-3.659,3.519,1.642,0.018,-1.171
2095.0,-10.649,-3.461,3.501,1.761,0.014,-1.354
2099.0,-10.649,-3.461,3.501,1.761,0.014,-1.354
2103.0,-11.384,-3.355,3.823,1.871,0.003,-1.52
2107.0,-11.384,-3.355,3.823,1.871,0.003,-1.52
2111.0,-11.384,-3.355,3.823,1.871,0.003,-1.52
2115.0,-11.353,-3.207,3.943,1.98,-0.079,-1.672
2120.0,-11.353,-3.207,3.943,1.98,-0.079,-1.672
2124.0,-10.867,-2.974,3.855,2.08,-0.202,-1.826
2128.0,-10.867,-2.974,3.855,2.08,-0.202,-1.826
2132.0,-10.086,-2.744,3.597,2.08,-0.202,-1.826
2136.0,-10.086,-2.744,3.597,2.169,-0.317,-1.984
2140.0,-10.086,-2.744,3.597,2.169,-0.317,-1.984
2144.0,-9.316,-2.505,3.19,2.244,-0.403,-2.131
2148.0,-9.316,-2.505,3.19,2.244,-0.403,-2.131
2152.0,-9.138,-2.343,2.919,2.309,-0.441,-2.259
2156.0,-9.138,-2.343,2.919,2.309,-0.441,-2.259
2160.0,-9.138,-2.343,2.919,2.309,-0.441,-2.259
2164.0,-9.547,-2.291,2.645,2.373,-0.446,-2.354
2168.0,-9.547,-2.291,2.645,2.373,-0.446,-2.354
2172.0,-10.354,-2.329,2.515,2.44,-0.438,-2.403
2176.0,-10.354,-2.329,2.515,2.44,-0.438,-2.403
2180.0,-10.354,-2.329,2.515,2.44,-0.438,-2.403
2184.0,-11.377,-2.475,2.575,2.519,-0.435,-2.407
2188.0,-11.377,-2.475,2.575,2.519,-0.435,-2.407
2192.0,-12.223,-2.66,2.542,2.62,-0.468,-2.368
2196.0,-12.223,-2.66,2.542,2.62,-0.468,-2.368
2200.0,-12.223,-2.66,2.505,2.62,-0.468,-2.368
2205.0,-12.842,-2.774,2.505,2.732,-0.535,-2.305
2209.0,-12.842,-2.774,2.505,2.732,-0.535,-2.305
2213.0,-13.244,-2.827,2.383,2.845,-0.62,-2.227
2217.0,-13.244,-2.827,2.383,2.845,-0.62,-2.227
2221.0,-13.439,-2.802,2.189,2.845,-0.71,-2.141
2225.0,-13.439,-2.802,2.189,2.942,-0.71,-2.141
2229.0,-13.439,-2.802,2.189,2.942,-0.71,-2.141
2233.0,-13.412,-2.693,1.967,3.014,-0.791,-2.05
2237.0,-13.412,-2.693,1.967,3.014,-0.791,-2.05
2241.0,-13.187,-2.518,1.766,3.051,-0.861,-1.959
2245.0,-13.187,-2.518,1.766,3.051,-0.861,-1.959
2249.0,-13.187,-2.518,1.766,3.051,-0.861,-1.959
2254.0,-12.884,-2.338,1.588,3.053,-0.915,-1.869
2258.0,-12.884,-2.338,1.588,3.053,-0.915,-1.869
2262.0,-12.491,-2.168,1.459,3.029,-0.955,-1.781
2266.0,-12.491,-2.168,1.459,3.029,-0.955,-1.781
2270.0,-11.955,-2.009,1.372,3.029,-0.955,-1.781
2274.0,-11.955,-2.009,1.372,2.987,-0.99,-1.702
2278.0,-11.955,-2.009,1.372,2.987,-0.99,-1.702
2282.0,-11.351,-1.832,1.25,2.933,-1.025,-1.633
2286.0,-11.351,-1.832,1.25,2.933,-1.025,-1.633
2290.0,-10.799,-1.661,1.076,2.866,-1.055,-1.574
2294.0,-10.799,-1.661,1.076,2.866,-1.055,-1.574
2298.0,-10.799,-1.661,1.076,2.866,-1.055,-1.574
2302.0,-10.439,-1.577,0.809,2.788,-1.067,-1.523
2307.0,-10.439,-1.577,0.809,2.788,-1.067,-1.523
2311.0,-10.585,-1.532,0.439,2.706,-1.045,-1.47
2315.0,-10.585,-1.532,0.439,2.706,-1.045,-1.47
2319.0,-10.585,-1.532,0.286,2.706,-1.045,-1.47
2323.0,-11.475,-1.583,0.286,2.618,-0.968,-1.394
2327.0,-11.475,-1.583,0.286,2.618,-0.968,-1.394
2331.0,-12.203,-1.806,0.499,2.542,-0.886,-1.284
2335.0,-12.203,-1.806,0.499,2.542,-0.886,-1.284
2339.0,-11.837,-2.051,0.799,2.542,-0.886,-1.158
2343.0,-11.837,-2.051,0.799,2.494,-0.877,-1.158
2347.0,-11.837,-2.051,0.799,2.494,-0.877,-1.158
2351.0,-10.723,-2.191,0.766,2.478,-0.944,-1.062
2356.0,-10.723,-2.191,0.766,2.478,-0.944,-1.062
2360.0,-10.225,-2.189,0.291,2.474,-0.995,-1.02
2364.0,-10.225,-2.189,0.291,2.474,-0.995,-1.02
2368.0,-10.225,-2.189,0.291,2.474,-0.995,-1.02
2372.0,-10.93,-2.158,-0.249,2.463,-0.949,-0.996
2376.0,-10.93,-2.158,-0.249,2.463,-0.949,-0.996
2380.0,-11.947,-2.159,-0.422,2.436,-0.835,-0.935
2384.0,-11.947,-2.159,-0.422,2.436,-0.835,-0.935
2389.0,-12.593,-2.187,-0.117,2.436,-0.835,-0.834
2393.0,-12.593,-2.187,-0.117,2.401,-0.73,-0.834
2397.0,-12.593,-2.187,-0.117,2.401,-0.73,-0.834
2401.0,-12.216,-2.292,0.357,2.376,-0.702,-0.733
2405.0,-12.216,-2.292,0.357,2.376,-0.702,-0.733
2409.0,-10.774,-2.358,0.595,2.378,-0.774,-0.68
2413.0,-10.774,-2.358,0.595,2.378,-0.774,-0.68
2417.0,-10.774,-2.358,0.595,2.378,-0.774,-0.68
2421.0,-9.427,-2.225,0.407,2.4,-0.878,-0.7
2425.0,-9.427,-2.225,0.407,2.4,-0.878,-0.7
2429.0,-8.593,-1.99,-0.08,2.422,-0.941,-0.768
2433.0,-8.593,-1.99,-0.08,2.422,-0.941,-0.768
2438.0,-8.436,-1.702,-0.626,2.422,-0.941,-0.768
2442.0,-8.436,-1.702,-0.626,2.419,-0.932,-0.843
2446.0,-8.436,-1.702,-0.626,2.419,-0.932,-0.843
2450.0,-9.069,-1.435,-1.039,2.379,-0.849,-0.892
2454.0,-9.069,-1.435,-1.039,2.379,-0.849,-0.892
2458.0,-10.074,-1.318,-1.16,2.306,-0.73,-0.901
2462.0,-10.074,-1.318,-1.16,2.306,-0.73,-0.901
2466.0,-10.074,-1.318,-1.16,2.306,-0.73,-0.901
2470.0,-10.805,-1.399,-1.027,2.214,-0.628,-0.88
2475.0,-10.805,-1.399,-1.027,2.214,-0.628,-0.88
2479.0,-10.998,-1.497,-0.784,2.119,-0.573,-0.85
2483.0,-10.998,-1.497,-0.784,2.119,-0.573,-0.85
2487.0,-10.543,-1.601,-0.601,2.119,-0.573,-0.85
2491.0,-10.543,-1.601,-0.601,2.027,-0.557,-0.828
2495.0,-10.543,-1.601,-0.601,2.027,-0.557,-0.828
2500.0,-9.887,-1.628,-0.572,1.938,-0.551,-0.823
2504.0,-9.887,-1.628,-0.572,1.938,-0.551,-0.823
2508.0,-9.29,-1.564,-0.574,1.849,-0.522,-0.834
2512.0,-9.29,-1.564,-0.574,1.849,-0.522,-0.834
2516.0,-9.29,-1.564,-0.574,1.849,-0.522,-0.834
2520.0,-8.826,-1.454,-0.559,1.75,-0.475,-0.854
2524.0,-8.826,-1.454,-0.559,1.75,-0.475,-0.854
2528.0,-8.533,-1.309,-0.473,1.638,-0.421,-0.877
2532.0,-8.533,-1.309,-0.473,1.638,-0.421,-0.877
2536.0,-8.302,-1.207,-0.394,1.638,-0.421,-0.877
2540.0,-8.302,-1.207,-0.394,1.512,-0.361,-0.898
2545.0,-8.302,-1.207,-0.394,1.512,-0.361,-0.898
2549.0,-8.119,-1.141,-0.339,1.379,-0.306,-0.917
2553.0,-8.119,-1.141,-0.339,1.379,-0.306,-0.917
2557.0,-8.09,-1.086,-0.288,1.24,-0.251,-0.933
2561.0,-8.09,-1.086,-0.288,1.24,-0.251,-0.933
2565.0,-8.09,-1.086,-0.288,1.24,-0.251,-0.933
2569.0,-8.225,-1.097,-0.273,1.102,-0.195,-0.942
2573.0,-8.225,-1.097,-0.273,1.102,-0.195,-0.942
2577.0,-8.576,-1.18,-0.329,0.968,-0.139,-0.935
2581.0,-8.576,-1.18,-0.329,0.968,-0.139,-0.935
2585.0,-8.576,-1.18,-0.338,0.968,-0.139,-0.935
2589.0,-9.036,-1.296,-0.338,0.844,-0.076,-0.911
2593.0,-9.036,-1.296,-0.338,0.844,-0.076,-0.911
2598.0,-9.531,-1.447,-0.308,0.735,-0.018,-0.879
2602.0,-9.531,-1.447,-0.308,0.735,-0.018,-0.879
2606.0,-9.918,-1.588,-0.307,0.735,-0.018,-0.849
2610.0,-9.918,-1.588,-0.307,0.644,0.026,-0.849
2614.0,-9.918,-1.588,-0.307,0.644,0.026,-0.849
2618.0,-10.132,-1.675,-0.251,0.571,0.054,-0.837
2622.0,-10.132,-1.675,-0.251,0.571,0.054,-0.837
2626.0,-10.219,-1.633,-0.166,0.515,0.069,-0.861
2630.0,-10.219,-1.633,-0.166,0.515,0.069,-0.861
2634.0,-10.219,-1.633,-0.166,0.515,0.069,-0.861
2638.0,-10.023,-1.506,-0.061,0.475,0.066,-0.925
2642.0,-10.023,-1.506,-0.061,0.475,0.066,-0.925
2646.0,-9.68,-1.332,-0.05,0.446,0.048,-1.024
2650.0,-9.68,-1.332,-0.05,0.446,0.048,-1.024
2654.0,-9.68,-1.332,-0.05,0.446,0.048,-1.024
2658.0,-9.567,-1.047,-0.1,0.422,0.032,-1.147
2662.0,-9.567,-1.047,-0.1,0.422,0.032,-1.147
2666.0,-9.652,-0.728,-0.139,0.393,0.034,-1.264
2670.0,-9.652,-0.728,-0.139,0.393,0.034,-1.264
2674.0,-9.652,-0.728,-0.093,0.393,0.034,-1.264
2678.0,-9.73,-0.415,-0.093,0.354,0.046,-1.345
2682.0,-9.73,-0.415,-0.093,0.354,0.046,-1.345
2686.0,-9.858,-0.057,-0.012,0.31,0.066,-1.371
2690.0,-9.858,-0.057,-0.012,0.31,0.066,-1.371
2694.0,-10.021,0.217,0.102,0.31,0.066,-1.371
2698.0,-10.021,0.217,0.102,0.267,0.097,-1.336
2702.0,-10.021,0.217,0.102,0.267,0.097,-1.336
2706.0,-9.989,0.383,0.257,0.231,0.128,-1.241
2710.0,-9.989,0.383,0.257,0.231,0.128,-1.241
2714.0,-9.989,0.383,0.434,0.231,0.128,-1.241
2717.0,-9.823,0.522,0.434,0.205,0.152,-1.1
2721.0,-9.823,0.522,0.434,0.205,0.152,-1.1
2725.0,-9.733,0.632,0.588,0.185,0.175,-0.934
2729.0,-9.733,0.632,0.588,0.185,0.175,-0.934
2733.0,-9.733,0.632,0.588,0.185,0.175,-0.934
2737.0,-9.763,0.666,0.665,0.159,0.202,-0.758
2740.0,-9.763,0.666,0.665,0.159,0.202,-0.758
2744.0,-9.75,0.66,0.716,0.117,0.231,-0.583
2748.0,-9.75,0.66,0.716,0.117,0.231,-0.583
2752.0,-9.75,0.66,0.716,0.117,0.231,-0.583
2756.0,-9.701,0.626,0.788,0.051,0.256,-0.419
2759.0,-9.701,0.626,0.788,0.051,0.256,-0.419
2763.0,-9.701,0.561,0.86,0.051,0.256,-0.419
2767.0,-9.642,0.561,0.86,-0.039,0.281,-0.279
2771.0,-9.642,0.561,0.86,-0.039,0.281,-0.279
2775.0,-9.651,0.507,0.904,-0.155,0.313,-0.171
2779.0,-9.651,0.507,0.904,-0.155,0.313,-0.171
2783.0,-9.651,0.507,0.952,-0.155,0.313,-0.171
2787.0,-9.663,0.498,0.952,-0.291,0.352,-0.094
2791.0,-9.663,0.498,0.952,-0.291,0.352,-0.094
2794.0,-9.693,0.596,1.0,-0.443,0.397,-0.041
2798.0,-9.693,0.596,1.0,-0.443,0.397,-0.041
2802.0,-9.693,0.596,1.0,-0.443,0.397,-0.041
2806.0,-9.804,0.75,1.055,-0.607,0.446,0.005
2810.0,-9.804,0.75,1.055,-0.607,0.446,0.005
2814.0,-10.089,0.826,1.052,-0.774,0.503,0.057
2818.0,-10.089,0.826,1.052,-0.774,0.503,0.057
2822.0,-10.089,0.826,1.052,-0.774,0.503,0.057
2825.0,-10.573,0.866,0.98,-0.944,0.576,0.128
2829.0,-10.573,0.866,0.98,-0.944,0.576,0.128
2833.0,-11.228,0.893,0.876,-1.121,0.674,0.226
2837.0,-11.228,0.893,0.876,-1.121,0.674,0.226
2841.0,-11.228,0.893,0.876,-1.121,0.674,0.226
2845.0,-11.803,0.864,0.895,-1.31,0.8,0.363
2849.0,-11.803,0.864,0.895,-1.31,0.8,0.363
2853.0,-12.136,0.757,1.053,-1.513,0.935,0.545
2857.0,-12.136,0.757,1.053,-1.513,0.935,0.545
2861.0,-12.136,0.757,1.053,-1.513,0.935,0.545
2865.0,-12.424,0.568,1.164,-1.733,1.063,0.759
2868.0,-12.424,0.568,1.164,-1.733,1.063,0.759
2872.0,-12.981,0.269,1.204,-1.733,1.202,0.983
2876.0,-12.981,0.269,1.204,-1.965,1.202,0.983
2880.0,-12.981,0.269,1.204,-1.965,1.202,0.983
2884.0,-13.113,-0.07,1.32,-2.192,1.344,1.217
2888.0,-13.113,-0.07,1.32,-2.192,1.344,1.217
2892.0,-12.261,-0.416,1.617,-2.192,1.445,1.431
2896.0,-12.261,-0.416,1.617,-2.407,1.445,1.431
2900.0,-12.261,-0.416,1.617,-2.407,1.445,1.431
2904.0,-10.954,-0.715,1.889,-2.597,1.486,1.589
2908.0,-10.954,-0.715,1.889,-2.597,1.486,1.589
2912.0,-9.899,-0.899,2.017,-2.74,1.493,1.667
2916.0,-9.899,-0.899,2.017,-2.74,1.493,1.667
2920.0,-9.899,-0.899,2.017,-2.74,1.493,1.667
2924.0,-9.266,-0.974,2.075,-2.829,1.488,1.672
2928.0,-9.266,-0.974,2.075,-2.829,1.488,1.672
2932.0,-9.215,-0.968,2.061,-2.829,1.477,1.646
2935.0,-9.215,-0.968,2.061,-2.875,1.477,1.646
2939.0,-9.215,-0.968,2.061,-2.875,1.477,1.646
2943.0,-9.712,-0.978,1.957,-2.881,1.467,1.637
2947.0,-9.712,-0.978,1.957,-2.881,1.467,1.637
2951.0,-10.408,-1.207,1.938,-2.881,1.467,1.685
2955.0,-10.408,-1.207,1.938,-2.847,1.452,1.685
2959.0,-10.408,-1.207,1.938,-2.847,1.452,1.685
2963.0,-10.676,-1.405,1.952,-2.76,1.417,1.787
2967.0,-10.676,-1.405,1.952,-2.76,1.417,1.787
2971.0,-10.655,-1.71,2.014,-2.76,1.341,1.881
2975.0,-10.655,-1.71,2.014,-2.636,1.341,1.881
2979.0,-10.655,-1.71,2.014,-2.636,1.341,1.881
2983.0,-10.594,-1.984,1.966,-2.473,1.232,1.968
2987.0,-10.594,-1.984,1.966,-2.473,1.232,1.968
2991.0,-10.776,-2.146,1.755,-2.283,1.118,2.043
2995.0,-10.776,-2.146,1.755,-2.283,1.118,2.043
2999.0,-10.776,-2.146,1.755,-2.283,1.118,2.043
