deltaTime,Acc_X,Acc_Y,Acc_Z,Gyro_X,Gyro_Y,Gyro_Z
0.0,-15.13,-3.969,0.737,1.406,0.681,0.22
3.0,-15.13,-3.969,0.737,1.878,0.681,0.22
6.0,-15.13,-3.969,0.737,1.878,0.681,0.22
9.0,-15.13,-3.969,0.737,1.878,0.681,0.22
12.0,-14.088,-3.85,-0.146,2.245,0.607,0.282
15.0,-14.088,-3.85,-0.146,2.245,0.607,0.282
18.0,-14.088,-3.85,-0.146,2.245,0.607,0.282
21.0,-13.208,-3.683,-0.098,2.534,0.534,0.336
24.0,-13.208,-3.683,-0.098,2.534,0.534,0.336
27.0,-13.208,-3.683,-0.098,2.534,0.534,0.336
30.0,-12.433,-3.227,0.034,2.805,0.414,0.375
33.0,-12.433,-3.227,0.034,2.805,0.414,0.375
37.0,-12.433,-3.227,0.034,2.805,0.414,0.375
40.0,-11.179,-2.606,-0.261,3.027,0.246,0.353
44.0,-11.179,-2.606,-0.261,3.027,0.246,0.353
48.0,-11.179,-2.606,-0.261,3.027,0.246,0.353
52.0,-10.241,-1.753,-0.863,3.198,0.086,0.298
56.0,-10.241,-1.753,-0.863,3.198,0.086,0.298
60.0,-10.769,-1.37,-1.583,3.198,0.001,0.22
63.0,-10.769,-1.37,-1.583,3.246,0.001,0.22
67.0,-10.769,-1.37,-1.583,3.246,0.001,0.22
71.0,-11.437,-0.961,-2.264,3.212,-0.027,0.172
75.0,-11.437,-0.961,-2.264,3.212,-0.027,0.172
79.0,-11.954,-0.366,-2.567,3.212,-0.027,0.172
83.0,-11.954,-0.366,-2.567,3.103,0.019,0.187
87.0,-11.954,-0.366,-2.567,3.103,0.019,0.187
90.0,-12.065,0.033,-2.512,2.897,0.055,0.25
94.0,-12.065,0.033,-2.512,2.897,0.055,0.25
98.0,-12.065,0.033,-2.512,2.897,0.055,0.25
102.0,-12.18,-0.203,-2.159,2.592,0.102,0.333
106.0,-12.18,-0.203,-2.159,2.592,0.102,0.333
109.0,-11.701,-0.934,-1.423,2.278,0.145,0.416
113.0,-11.701,-0.934,-1.423,2.278,0.145,0.416
117.0,-11.701,-0.934,-1.423,2.278,0.145,0.416
121.0,-10.77,-1.749,-0.595,2.049,0.159,0.478
125.0,-10.77,-1.749,-0.595,2.049,0.159,0.478
129.0,-10.035,-2.121,0.156,1.905,0.151,0.476
133.0,-10.035,-2.121,0.156,1.905,0.151,0.476
137.0,-10.035,-2.121,0.156,1.905,0.151,0.476
140.0,-9.551,-2.295,0.759,1.79,0.131,0.404
144.0,-9.551,-2.295,0.759,1.79,0.131,0.404
148.0,-8.981,-2.118,1.113,1.79,0.131,0.404
152.0,-8.981,-2.118,1.113,1.676,0.111,0.29
155.0,-8.981,-2.118,1.113,1.676,0.111,0.29
159.0,-8.627,-1.732,1.356,1.536,0.11,0.159
163.0,-8.627,-1.732,1.356,1.536,0.11,0.159
167.0,-8.627,-1.732,1.356,1.536,0.11,0.159
170.0,-8.648,-1.667,1.612,1.372,0.127,0.069
174.0,-8.648,-1.667,1.612,1.372,0.127,0.069
178.0,-8.745,-1.593,1.885,1.372,0.127,0.052
181.0,-8.745,-1.593,1.885,1.227,0.149,0.052
185.0,-8.745,-1.593,1.885,1.227,0.149,0.052
189.0,-8.981,-1.525,2.154,1.094,0.172,0.067
193.0,-8.981,-1.525,2.154,1.094,0.172,0.067
196.0,-8.981,-1.525,2.154,1.094,0.172,0.067
200.0,-9.081,-1.693,2.46,0.966,0.189,0.092
204.0,-9.081,-1.693,2.46,0.966,0.189,0.092
208.0,-8.816,-1.913,2.718,0.966,0.195,0.137
211.0,-8.816,-1.913,2.718,0.873,0.195,0.137
215.0,-8.816,-1.913,2.718,0.873,0.195,0.137
219.0,-8.242,-2.013,2.815,0.815,0.183,0.18
223.0,-8.242,-2.013,2.815,0.815,0.183,0.18
226.0,-8.242,-2.013,2.815,0.815,0.183,0.18
230.0,-7.836,-2.112,2.886,0.772,0.18,0.209
234.0,-7.836,-2.112,2.886,0.772,0.18,0.209
237.0,-7.57,-2.299,3.016,0.767,0.2,0.249
241.0,-7.57,-2.299,3.016,0.767,0.2,0.249
245.0,-7.57,-2.299,3.016,0.767,0.2,0.249
249.0,-7.12,-2.246,3.29,0.793,0.209,0.292
252.0,-7.12,-2.246,3.29,0.793,0.209,0.292
256.0,-7.12,-2.246,3.659,0.793,0.209,0.292
260.0,-7.425,-2.387,3.659,0.849,0.249,0.339
264.0,-7.425,-2.387,3.659,0.849,0.249,0.339
267.0,-7.665,-2.52,3.945,0.915,0.227,0.396
271.0,-7.665,-2.52,3.945,0.915,0.227,0.396
275.0,-7.665,-2.52,3.945,0.915,0.227,0.396
279.0,-7.63,-2.628,4.006,0.992,0.16,0.454
282.0,-7.63,-2.628,4.006,0.992,0.16,0.454
286.0,-7.63,-2.699,3.82,0.992,0.16,0.454
290.0,-7.424,-2.699,3.82,1.068,0.072,0.488
293.0,-7.424,-2.699,3.82,1.068,0.072,0.488
297.0,-7.256,-2.885,3.528,1.135,0.002,0.508
301.0,-7.256,-2.885,3.528,1.135,0.002,0.508
305.0,-7.256,-2.885,3.528,1.135,0.002,0.508
308.0,-7.126,-3.003,3.303,1.192,-0.033,0.528
312.0,-7.126,-3.003,3.303,1.192,-0.033,0.528
316.0,-7.123,-2.925,3.095,1.192,-0.033,0.544
320.0,-7.123,-2.925,3.095,1.222,-0.036,0.544
324.0,-7.123,-2.925,3.095,1.222,-0.036,0.544
327.0,-7.281,-2.744,2.935,1.203,-0.026,0.546
331.0,-7.281,-2.744,2.935,1.203,-0.026,0.546
335.0,-7.281,-2.744,2.853,1.203,-0.026,0.546
339.0,-7.539,-2.499,2.853,1.126,-0.022,0.526
343.0,-7.539,-2.499,2.853,1.126,-0.022,0.526
347.0,-7.732,-2.31,2.8,0.997,-0.036,0.483
350.0,-7.732,-2.31,2.8,0.997,-0.036,0.483
354.0,-7.732,-2.31,2.8,0.997,-0.036,0.483
358.0,-7.844,-2.272,2.781,0.839,-0.057,0.433
362.0,-7.844,-2.272,2.781,0.839,-0.057,0.433
366.0,-7.959,-2.377,2.729,0.691,-0.076,0.395
369.0,-7.959,-2.377,2.729,0.691,-0.076,0.395
373.0,-7.959,-2.377,2.729,0.691,-0.076,0.395
377.0,-8.045,-2.541,2.592,0.579,-0.088,0.375
381.0,-8.045,-2.541,2.592,0.579,-0.088,0.375
385.0,-8.025,-2.686,2.451,0.579,-0.088,0.375
389.0,-8.025,-2.686,2.451,0.505,-0.094,0.361
392.0,-8.025,-2.686,2.451,0.505,-0.094,0.361
396.0,-7.945,-2.789,2.349,0.466,-0.096,0.346
400.0,-7.945,-2.789,2.349,0.466,-0.096,0.346
404.0,-7.945,-2.789,2.349,0.466,-0.096,0.346
408.0,-7.83,-2.734,2.21,0.45,-0.106,0.319
411.0,-7.83,-2.734,2.21,0.45,-0.106,0.319
415.0,-7.67,-2.756,2.028,0.441,-0.126,0.28
419.0,-7.67,-2.756,2.028,0.441,-0.126,0.28
423.0,-7.67,-2.756,2.028,0.441,-0.126,0.28
427.0,-7.417,-2.636,1.825,0.443,-0.148,0.232
431.0,-7.417,-2.636,1.825,0.443,-0.148,0.232
434.0,-7.037,-2.592,1.685,0.443,-0.148,0.167
438.0,-7.037,-2.592,1.685,0.44,-0.162,0.167
442.0,-7.037,-2.592,1.685,0.44,-0.162,0.167
446.0,-6.678,-2.55,1.641,0.446,-0.168,0.1
450.0,-6.678,-2.55,1.641,0.446,-0.168,0.1
454.0,-6.678,-2.55,1.622,0.446,-0.168,0.1
457.0,-6.382,-2.483,1.622,0.464,-0.164,0.032
461.0,-6.382,-2.483,1.622,0.464,-0.164,0.032
465.0,-6.212,-2.443,1.652,0.496,-0.156,-0.03
469.0,-6.212,-2.443,1.652,0.496,-0.156,-0.03
473.0,-6.212,-2.443,1.652,0.496,-0.156,-0.03
477.0,-6.169,-2.438,1.77,0.549,-0.157,-0.085
481.0,-6.169,-2.438,1.77,0.549,-0.157,-0.085
485.0,-6.129,-2.435,1.908,0.628,-0.182,-0.135
488.0,-6.129,-2.435,1.908,0.628,-0.182,-0.135
492.0,-6.129,-2.435,1.908,0.628,-0.182,-0.135
496.0,-5.943,-2.38,1.854,0.729,-0.237,-0.181
500.0,-5.943,-2.38,1.854,0.729,-0.237,-0.181
504.0,-5.689,-2.27,1.775,0.832,-0.301,-0.222
508.0,-5.689,-2.27,1.775,0.832,-0.301,-0.222
512.0,-5.689,-2.27,1.775,0.832,-0.301,-0.222
516.0,-5.545,-2.171,1.798,0.92,-0.353,-0.251
520.0,-5.545,-2.171,1.798,0.92,-0.353,-0.251
524.0,-5.729,-2.175,1.867,0.984,-0.384,-0.266
527.0,-5.729,-2.175,1.867,0.984,-0.384,-0.266
531.0,-5.729,-2.175,1.867,0.984,-0.384,-0.266
535.0,-6.294,-2.206,1.912,1.02,-0.403,-0.269
539.0,-6.294,-2.206,1.912,1.02,-0.403,-0.269
543.0,-7.125,-2.201,1.971,1.02,-0.425,-0.263
547.0,-7.125,-2.201,1.971,1.03,-0.425,-0.263
551.0,-7.125,-2.201,1.971,1.03,-0.425,-0.263
555.0,-8.178,-2.246,2.092,1.014,-0.455,-0.25
559.0,-8.178,-2.246,2.092,1.014,-0.455,-0.25
563.0,-9.433,-2.481,2.224,1.014,-0.455,-0.25
567.0,-9.433,-2.481,2.224,0.97,-0.487,-0.227
570.0,-9.433,-2.481,2.224,0.97,-0.487,-0.227
574.0,-10.787,-2.867,2.276,0.904,-0.51,-0.193
578.0,-10.787,-2.867,2.276,0.904,-0.51,-0.193
582.0,-11.925,-3.172,2.287,0.904,-0.51,-0.193
586.0,-11.925,-3.172,2.287,0.821,-0.53,-0.143
590.0,-11.925,-3.172,2.287,0.821,-0.53,-0.143
594.0,-12.635,-3.345,2.387,0.724,-0.558,-0.076
598.0,-12.635,-3.345,2.387,0.724,-0.558,-0.076
602.0,-12.964,-3.476,2.53,0.724,-0.558,0.001
606.0,-12.964,-3.476,2.53,0.612,-0.596,0.001
610.0,-12.964,-3.476,2.53,0.612,-0.596,0.001
614.0,-13.134,-3.607,2.557,0.493,-0.629,0.082
618.0,-13.134,-3.607,2.557,0.493,-0.629,0.082
622.0,-13.343,-3.642,2.498,0.493,-0.629,0.082
626.0,-13.343,-3.642,2.498,0.374,-0.634,0.154
630.0,-13.343,-3.642,2.498,0.374,-0.634,0.154
634.0,-13.801,-3.595,2.341,0.247,-0.605,0.227
637.0,-13.801,-3.595,2.341,0.247,-0.605,0.227
641.0,-13.801,-3.518,2.297,0.247,-0.605,0.227
645.0,-14.518,-3.518,2.297,0.096,-0.542,0.316
649.0,-14.518,-3.518,2.297,0.096,-0.542,0.316
653.0,-15.359,-3.452,2.351,-0.082,-0.465,0.428
657.0,-15.359,-3.452,2.351,-0.082,-0.465,0.428
661.0,-15.359,-3.421,2.45,-0.082,-0.465,0.428
665.0,-15.994,-3.421,2.45,-0.283,-0.394,0.553
669.0,-15.994,-3.421,2.45,-0.283,-0.394,0.553
673.0,-15.897,-3.433,2.596,-0.495,-0.347,0.669
677.0,-15.897,-3.433,2.596,-0.495,-0.347,0.669
681.0,-15.007,-3.404,2.745,-0.495,-0.347,0.669
685.0,-15.007,-3.404,2.745,-0.703,-0.333,0.746
689.0,-15.007,-3.404,2.745,-0.703,-0.333,0.746
693.0,-13.755,-3.258,2.742,-0.899,-0.338,0.768
697.0,-13.755,-3.258,2.742,-0.899,-0.338,0.768
701.0,-12.64,-3.025,2.544,-0.899,-0.338,0.735
705.0,-12.64,-3.025,2.544,-1.08,-0.336,0.735
709.0,-12.64,-3.025,2.544,-1.08,-0.336,0.735
713.0,-11.728,-2.771,2.197,-1.249,-0.313,0.665
717.0,-11.728,-2.771,2.197,-1.249,-0.313,0.665
721.0,-11.062,-2.562,1.813,-1.407,-0.266,0.583
725.0,-11.062,-2.562,1.813,-1.407,-0.266,0.583
729.0,-11.062,-2.562,1.813,-1.407,-0.266,0.583
733.0,-10.743,-2.48,1.424,-1.55,-0.188,0.506
737.0,-10.743,-2.48,1.424,-1.55,-0.188,0.506
741.0,-10.927,-2.5,1.077,-1.672,-0.083,0.449
745.0,-10.927,-2.5,1.077,-1.672,-0.083,0.449
749.0,-10.927,-2.5,1.077,-1.672,-0.083,0.449
753.0,-11.658,-2.642,0.791,-1.761,0.039,0.423
757.0,-11.658,-2.642,0.791,-1.761,0.039,0.423
761.0,-12.567,-2.908,0.572,-1.816,0.16,0.428
765.0,-12.567,-2.908,0.572,-1.816,0.16,0.428
769.0,-12.567,-2.908,0.572,-1.816,0.16,0.428
772.0,-13.208,-3.223,0.531,-1.832,0.254,0.455
776.0,-13.208,-3.223,0.531,-1.832,0.254,0.455
780.0,-13.263,-3.525,0.683,-1.803,0.294,0.481
784.0,-13.263,-3.525,0.683,-1.803,0.294,0.481
788.0,-13.263,-3.525,0.683,-1.803,0.294,0.481
792.0,-12.583,-3.747,0.866,-1.716,0.27,0.486
796.0,-12.583,-3.747,0.866,-1.716,0.27,0.486
800.0,-11.612,-3.788,0.838,-1.716,0.198,0.447
804.0,-11.612,-3.788,0.838,-1.571,0.198,0.447
808.0,-11.612,-3.788,0.838,-1.571,0.198,0.447
811.0,-11.096,-3.642,0.526,-1.38,0.121,0.363
815.0,-11.096,-3.642,0.526,-1.38,0.121,0.363
819.0,-11.335,-3.367,0.034,-1.38,0.121,0.258
823.0,-11.335,-3.367,0.034,-1.163,0.072,0.258
827.0,-11.335,-3.367,0.034,-1.163,0.072,0.258
831.0,-11.931,-3.042,-0.443,-0.94,0.062,0.179
835.0,-11.931,-3.042,-0.443,-0.94,0.062,0.179
839.0,-12.355,-2.827,-0.678,-0.94,0.062,0.179
843.0,-12.355,-2.827,-0.678,-0.723,0.076,0.159
847.0,-12.355,-2.827,-0.678,-0.723,0.076,0.159
851.0,-12.264,-2.69,-0.639,-0.516,0.099,0.193
855.0,-12.264,-2.69,-0.639,-0.516,0.099,0.193
859.0,-11.766,-2.566,-0.401,-0.516,0.119,0.25
863.0,-11.766,-2.566,-0.401,-0.32,0.119,0.25
867.0,-11.766,-2.566,-0.401,-0.32,0.119,0.25
871.0,-11.177,-2.387,-0.224,-0.129,0.132,0.31
875.0,-11.177,-2.387,-0.224,-0.129,0.132,0.31
879.0,-10.644,-2.142,-0.146,0.051,0.143,0.365
883.0,-10.644,-2.142,-0.146,0.051,0.143,0.365
887.0,-10.644,-2.142,-0.146,0.051,0.143,0.365
891.0,-10.223,-1.85,-0.083,0.213,0.156,0.419
895.0,-10.223,-1.85,-0.083,0.213,0.156,0.419
898.0,-9.857,-1.548,-0.071,0.213,0.175,0.471
902.0,-9.857,-1.548,-0.071,0.347,0.175,0.471
906.0,-9.857,-1.548,-0.071,0.347,0.175,0.471
910.0,-9.431,-1.34,-0.017,0.451,0.206,0.531
914.0,-9.431,-1.34,-0.017,0.451,0.206,0.531
918.0,-9.431,-1.34,0.067,0.451,0.206,0.531
921.0,-8.962,-1.131,0.067,0.527,0.246,0.585
925.0,-8.962,-1.131,0.067,0.527,0.246,0.585
929.0,-8.58,-0.981,0.228,0.569,0.293,0.622
933.0,-8.58,-0.981,0.228,0.569,0.293,0.622
936.0,-8.58,-0.981,0.228,0.569,0.293,0.622
940.0,-8.353,-0.843,0.369,0.585,0.337,0.642
944.0,-8.353,-0.843,0.369,0.585,0.337,0.642
947.0,-8.146,-0.698,0.443,0.585,0.337,0.642
951.0,-8.146,-0.698,0.443,0.582,0.373,0.649
955.0,-8.146,-0.698,0.443,0.582,0.373,0.649
959.0,-7.971,-0.495,0.568,0.567,0.399,0.653
962.0,-7.971,-0.495,0.568,0.567,0.399,0.653
966.0,-7.971,-0.495,0.568,0.567,0.399,0.653
970.0,-7.951,-0.273,0.575,0.544,0.414,0.662
974.0,-7.951,-0.273,0.575,0.544,0.414,0.662
977.0,-7.99,-0.09,0.476,0.544,0.414,0.681
981.0,-7.99,-0.09,0.476,0.517,0.431,0.681
985.0,-7.99,-0.09,0.476,0.517,0.431,0.681
988.0,-8.073,0.059,0.41,0.485,0.459,0.707
992.0,-8.073,0.059,0.41,0.485,0.459,0.707
996.0,-8.073,0.059,0.41,0.485,0.459,0.707
999.0,-8.111,0.217,0.346,0.447,0.494,0.738
1003.0,-8.111,0.217,0.346,0.447,0.494,0.738
1007.0,-7.988,0.343,0.386,0.447,0.494,0.738
1011.0,-7.988,0.343,0.386,0.402,0.534,0.77
1014.0,-7.988,0.343,0.386,0.402,0.534,0.77
1018.0,-7.848,0.471,0.444,0.355,0.57,0.795
1022.0,-7.848,0.471,0.444,0.355,0.57,0.795
1025.0,-7.848,0.471,0.444,0.355,0.57,0.795
1029.0,-7.831,0.542,0.461,0.304,0.602,0.807
1033.0,-7.831,0.542,0.461,0.304,0.602,0.807
1037.0,-7.909,0.608,0.505,0.304,0.634,0.801
1040.0,-7.909,0.608,0.505,0.249,0.634,0.801
1044.0,-7.909,0.608,0.505,0.249,0.634,0.801
1048.0,-8.085,0.694,0.635,0.191,0.653,0.776
1052.0,-8.085,0.694,0.635,0.191,0.653,0.776
1055.0,-8.085,0.694,0.635,0.191,0.653,0.776
1059.0,-8.506,0.831,0.614,0.128,0.657,0.742
1063.0,-8.506,0.831,0.614,0.128,0.657,0.742
1067.0,-8.722,0.842,0.468,0.052,0.652,0.708
1070.0,-8.722,0.842,0.468,0.052,0.652,0.708
1074.0,-8.722,0.842,0.468,0.052,0.652,0.708
1078.0,-8.609,0.906,0.531,-0.038,0.638,0.668
1082.0,-8.609,0.906,0.531,-0.038,0.638,0.668
1085.0,-8.609,0.906,0.53,-0.038,0.638,0.668
1089.0,-8.507,1.034,0.53,-0.137,0.61,0.62
1093.0,-8.507,1.034,0.53,-0.137,0.61,0.62
1097.0,-8.502,1.158,0.51,-0.246,0.586,0.567
1101.0,-8.502,1.158,0.51,-0.246,0.586,0.567
1104.0,-8.502,1.158,0.51,-0.246,0.586,0.567
1108.0,-8.483,1.265,0.515,-0.369,0.56,0.517
1112.0,-8.483,1.265,0.515,-0.369,0.56,0.517
1116.0,-8.459,0.601,0.856,-0.49,0.525,0.469
1120.0,-8.459,0.601,0.856,-0.49,0.525,0.469
1124.0,-8.459,0.601,0.856,-0.49,0.525,0.469
1127.0,-8.353,1.216,0.683,-0.57,0.479,0.428
1131.0,-8.353,1.216,0.683,-0.57,0.479,0.428
1135.0,-7.848,1.394,0.492,-0.57,0.479,0.428
1139.0,-7.848,1.394,0.492,-0.702,0.458,0.414
1143.0,-7.848,1.394,0.492,-0.702,0.458,0.414
1146.0,-7.646,1.454,0.462,-0.877,0.46,0.387
1150.0,-7.646,1.454,0.462,-0.877,0.46,0.387
1154.0,-7.646,1.454,0.462,-0.877,0.46,0.387
1158.0,-7.598,1.695,0.363,-1.075,0.449,0.369
1162.0,-7.598,1.695,0.363,-1.075,0.449,0.369
1166.0,-7.501,1.635,0.307,-1.289,0.428,0.363
1169.0,-7.501,1.635,0.307,-1.289,0.428,0.363
1173.0,-7.501,1.635,0.307,-1.289,0.428,0.363
1177.0,-7.316,1.497,0.376,-1.497,0.393,0.346
1181.0,-7.316,1.497,0.376,-1.497,0.393,0.346
1185.0,-6.913,1.364,0.386,-1.497,0.343,0.321
1188.0,-6.913,1.364,0.386,-1.688,0.343,0.321
1192.0,-6.913,1.364,0.386,-1.688,0.343,0.321
1196.0,-6.434,1.336,0.462,-1.862,0.287,0.284
1200.0,-6.434,1.336,0.462,-1.862,0.287,0.284
1204.0,-6.434,1.336,0.51,-1.862,0.287,0.284
1208.0,-5.986,1.428,0.51,-2.018,0.227,0.249
1211.0,-5.986,1.428,0.51,-2.018,0.227,0.249
1215.0,-5.583,1.29,0.435,-2.159,0.171,0.226
1219.0,-5.583,1.29,0.435,-2.159,0.171,0.226
1223.0,-5.583,1.29,0.435,-2.159,0.171,0.226
1227.0,-5.093,1.496,0.276,-2.277,0.135,0.214
1231.0,-5.093,1.496,0.276,-2.277,0.135,0.214
1234.0,-4.733,1.534,0.153,-2.417,0.129,0.213
1238.0,-4.733,1.534,0.153,-2.417,0.129,0.213
1242.0,-4.733,1.534,0.153,-2.417,0.129,0.213
1246.0,-4.746,1.453,0.077,-2.567,0.157,0.212
1250.0,-4.746,1.453,0.077,-2.567,0.157,0.212
1253.0,-5.075,1.524,0.078,-2.567,0.157,0.212
1257.0,-5.075,1.524,0.078,-2.72,0.214,0.218
1261.0,-5.075,1.524,0.078,-2.72,0.214,0.218
1265.0,-5.715,1.566,0.269,-2.876,0.285,0.241
1269.0,-5.715,1.566,0.269,-2.876,0.285,0.241
1273.0,-5.715,1.566,0.269,-2.876,0.285,0.241
1276.0,-6.476,1.427,0.604,-3.035,0.352,0.284
1280.0,-6.476,1.427,0.604,-3.035,0.352,0.284
1284.0,-7.204,1.025,0.93,-3.186,0.405,0.33
1288.0,-7.204,1.025,0.93,-3.186,0.405,0.33
1292.0,-7.204,1.025,0.93,-3.186,0.405,0.33
1295.0,-7.938,0.8,1.113,-3.313,0.454,0.37
1299.0,-7.938,0.8,1.113,-3.313,0.454,0.37
1303.0,-8.849,0.537,1.257,-3.313,0.454,0.405
1307.0,-8.849,0.537,1.257,-3.431,0.518,0.405
1311.0,-8.849,0.537,1.257,-3.431,0.518,0.405
1315.0,-9.843,0.257,1.424,-3.543,0.6,0.436
1318.0,-9.843,0.257,1.424,-3.543,0.6,0.436
1322.0,-9.843,0.257,1.683,-3.543,0.6,0.436
1326.0,-10.876,0.105,1.683,-3.651,0.683,0.464
1330.0,-10.876,0.105,1.683,-3.651,0.683,0.464
1334.0,-11.83,-0.072,2.15,-3.755,0.751,0.494
1338.0,-11.83,-0.072,2.15,-3.755,0.751,0.494
1342.0,-11.83,-0.072,2.15,-3.755,0.751,0.494
1346.0,-12.281,-0.467,2.627,-3.828,0.784,0.527
1350.0,-12.281,-0.467,2.627,-3.828,0.784,0.527
1354.0,-12.413,-0.956,2.95,-3.847,0.795,0.547
1358.0,-12.413,-0.956,2.95,-3.847,0.795,0.547
1362.0,-12.413,-0.956,3.235,-3.847,0.795,0.547
1366.0,-12.594,-1.397,3.235,-3.788,0.821,0.551
1370.0,-12.594,-1.397,3.235,-3.788,0.821,0.551
1374.0,-12.829,-1.777,3.614,-3.64,0.871,0.559
1378.0,-12.829,-1.777,3.614,-3.64,0.871,0.559
1382.0,-13.06,-2.072,4.228,-3.64,0.871,0.559
1386.0,-13.06,-2.072,4.228,-3.4,0.927,0.586
1390.0,-13.06,-2.072,4.228,-3.4,0.927,0.586
1394.0,-13.12,-2.38,4.74,-3.068,0.957,0.633
1398.0,-13.12,-2.38,4.74,-3.068,0.957,0.633
1402.0,-13.122,-2.597,5.154,-3.068,0.957,0.679
1406.0,-13.122,-2.597,5.154,-2.663,0.967,0.679
1410.0,-13.122,-2.597,5.154,-2.663,0.967,0.679
1414.0,-12.862,-2.737,5.576,-2.214,0.964,0.714
1418.0,-12.862,-2.737,5.576,-2.214,0.964,0.714
1422.0,-12.233,-2.841,5.914,-2.214,0.948,0.735
1426.0,-12.233,-2.841,5.914,-1.742,0.948,0.735
1430.0,-12.233,-2.841,5.914,-1.742,0.948,0.735
1434.0,-11.474,-2.916,6.246,-1.263,0.933,0.74
1438.0,-11.474,-2.916,6.246,-1.263,0.933,0.74
1442.0,-10.601,-2.846,6.434,-0.787,0.923,0.731
1446.0,-10.601,-2.846,6.434,-0.787,0.923,0.731
1450.0,-10.601,-2.846,6.434,-0.787,0.923,0.731
1454.0,-9.963,-2.81,6.689,-0.331,0.914,0.708
1457.0,-9.963,-2.81,6.689,-0.331,0.914,0.708
1461.0,-9.669,-2.788,6.934,0.115,0.894,0.675
1465.0,-9.669,-2.788,6.934,0.115,0.894,0.675
1469.0,-9.669,-2.788,6.934,0.115,0.894,0.675
1473.0,-9.434,-2.544,6.851,0.549,0.865,0.647
1477.0,-9.434,-2.544,6.851,0.549,0.865,0.647
1480.0,-9.344,-2.179,6.671,0.549,0.865,0.647
1484.0,-9.344,-2.179,6.671,0.933,0.84,0.621
1488.0,-9.344,-2.179,6.671,0.933,0.84,0.621
1492.0,-9.456,-1.829,6.552,1.247,0.816,0.593
1496.0,-9.456,-1.829,6.552,1.247,0.816,0.593
1500.0,-9.456,-1.829,6.552,1.247,0.816,0.593
1503.0,-9.711,-1.522,6.551,1.496,0.783,0.566
1507.0,-9.711,-1.522,6.551,1.496,0.783,0.566
1511.0,-10.007,-1.237,6.595,1.685,0.726,0.539
1515.0,-10.007,-1.237,6.595,1.685,0.726,0.539
1519.0,-10.007,-1.237,6.595,1.685,0.726,0.539
1523.0,-10.292,-0.98,6.646,1.82,0.636,0.519
1527.0,-10.292,-0.98,6.646,1.82,0.636,0.519
1531.0,-10.577,-0.743,6.696,1.901,0.51,0.513
1534.0,-10.577,-0.743,6.696,1.901,0.51,0.513
1538.0,-10.577,-0.743,6.696,1.901,0.51,0.513
1542.0,-10.926,-0.662,6.837,1.928,0.345,0.515
1546.0,-10.926,-0.662,6.837,1.928,0.345,0.515
1550.0,-11.516,-0.682,6.883,1.919,0.124,0.514
1554.0,-11.516,-0.682,6.883,1.919,0.124,0.514
1558.0,-11.516,-0.682,6.883,1.919,0.124,0.514
1562.0,-12.23,-0.703,6.612,1.884,-0.153,0.498
1566.0,-12.23,-0.703,6.612,1.884,-0.153,0.498
1570.0,-12.754,-0.657,5.803,1.821,-0.463,0.458
1574.0,-12.754,-0.657,5.803,1.821,-0.463,0.458
1578.0,-12.754,-0.657,5.803,1.821,-0.463,0.458
1582.0,-13.027,-0.524,4.61,1.719,-0.747,0.389
1586.0,-13.027,-0.524,4.61,1.719,-0.747,0.389
1590.0,-13.467,-0.414,3.559,1.577,-0.955,0.297
1594.0,-13.467,-0.414,3.559,1.577,-0.955,0.297
1598.0,-13.467,-0.414,3.559,1.577,-0.955,0.297
1602.0,-14.207,-0.448,2.952,1.411,-1.093,0.195
1606.0,-14.207,-0.448,2.952,1.411,-1.093,0.195
1610.0,-14.912,-0.564,2.819,1.252,-1.215,0.092
1614.0,-14.912,-0.564,2.819,1.252,-1.215,0.092
1618.0,-14.912,-0.564,2.819,1.252,-1.215,0.092
1622.0,-15.383,-0.684,2.886,1.122,-1.364,-0.018
1626.0,-15.383,-0.684,2.886,1.122,-1.364,-0.018
1630.0,-15.595,-0.723,2.936,1.025,-1.549,-0.145
1634.0,-15.595,-0.723,2.936,1.025,-1.549,-0.145
1638.0,-15.595,-0.723,2.794,1.025,-1.549,-0.145
1642.0,-15.551,-0.699,2.794,0.946,-1.761,-0.289
1646.0,-15.551,-0.699,2.794,0.946,-1.761,-0.289
1650.0,-15.325,-0.623,2.504,0.875,-1.972,-0.444
1654.0,-15.325,-0.623,2.504,0.875,-1.972,-0.444
1658.0,-15.012,-0.522,2.21,0.875,-2.153,-0.602
1663.0,-15.012,-0.522,2.21,0.808,-2.153,-0.602
1667.0,-15.012,-0.522,2.21,0.808,-2.153,-0.602
1671.0,-14.671,-0.453,1.976,0.743,-2.297,-0.753
1675.0,-14.671,-0.453,1.976,0.743,-2.297,-0.753
1679.0,-14.305,-0.44,1.768,0.678,-2.411,-0.884
1683.0,-14.305,-0.44,1.768,0.678,-2.411,-0.884
1687.0,-14.305,-0.44,1.768,0.678,-2.411,-0.884
1691.0,-13.856,-0.488,1.581,0.613,-2.5,-1.0
1695.0,-13.856,-0.488,1.581,0.613,-2.5,-1.0
1699.0,-13.391,-0.578,1.348,0.547,-2.565,-1.108
1703.0,-13.391,-0.578,1.348,0.547,-2.565,-1.108
1707.0,-12.974,-0.731,1.166,0.547,-2.565,-1.108
1711.0,-12.974,-0.731,1.166,0.478,-2.608,-1.209
1716.0,-12.974,-0.731,1.166,0.478,-2.608,-1.209
1720.0,-12.839,-0.969,0.943,0.403,-2.63,-1.312
1724.0,-12.839,-0.969,0.943,0.403,-2.63,-1.312
1728.0,-12.969,-1.247,0.742,0.322,-2.63,-1.405
1732.0,-12.969,-1.247,0.742,0.322,-2.63,-1.405
1736.0,-12.969,-1.247,0.742,0.322,-2.63,-1.405
1740.0,-13.162,-1.582,0.413,0.238,-2.615,-1.478
1744.0,-13.162,-1.582,0.413,0.238,-2.615,-1.478
1748.0,-13.254,-1.916,0.134,0.146,-2.584,-1.525
1752.0,-13.254,-1.916,0.134,0.146,-2.584,-1.525
1756.0,-13.254,-1.916,0.134,0.146,-2.584,-1.525
1760.0,-13.289,-2.306,-0.004,0.046,-2.546,-1.543
1765.0,-13.289,-2.306,-0.004,0.046,-2.546,-1.543
1769.0,-13.06,-2.695,-0.199,-0.054,-2.516,-1.539
1773.0,-13.06,-2.695,-0.199,-0.054,-2.516,-1.539
1777.0,-12.494,-2.988,-0.422,-0.143,-2.481,-1.529
1782.0,-12.494,-2.988,-0.422,-0.143,-2.481,-1.529
1786.0,-12.494,-2.988,-0.422,-0.143,-2.481,-1.529
1790.0,-11.703,-3.145,-0.625,-0.214,-2.429,-1.531
1794.0,-11.703,-3.145,-0.625,-0.214,-2.429,-1.531
1799.0,-10.821,-3.173,-0.845,-0.266,-2.358,-1.552
1803.0,-10.821,-3.173,-0.845,-0.266,-2.358,-1.552
1807.0,-10.003,-3.121,-1.007,-0.301,-2.261,-1.59
1811.0,-10.003,-3.121,-1.007,-0.301,-2.261,-1.59
1816.0,-10.003,-3.121,-1.007,-0.301,-2.261,-1.59
1820.0,-9.398,-3.03,-1.062,-0.316,-2.137,-1.638
1824.0,-9.398,-3.03,-1.062,-0.316,-2.137,-1.638
1828.0,-8.993,-2.961,-1.044,-0.314,-2.0,-1.689
1832.0,-8.993,-2.961,-1.044,-0.314,-2.0,-1.689
1836.0,-8.768,-2.905,-1.037,-0.294,-1.864,-1.735
1841.0,-8.768,-2.905,-1.037,-0.294,-1.864,-1.735
1845.0,-8.768,-2.905,-1.037,-0.294,-1.864,-1.735
1849.0,-8.648,-2.864,-1.049,-0.254,-1.732,-1.776
1853.0,-8.648,-2.864,-1.049,-0.254,-1.732,-1.776
1857.0,-8.539,-2.858,-1.056,-0.198,-1.606,-1.812
1861.0,-8.539,-2.858,-1.056,-0.198,-1.606,-1.812
1866.0,-8.412,-2.851,-1.102,-0.198,-1.606,-1.837
1870.0,-8.412,-2.851,-1.102,-0.129,-1.482,-1.837
1874.0,-8.412,-2.851,-1.102,-0.129,-1.482,-1.837
1878.0,-8.268,-2.859,-1.135,-0.053,-1.355,-1.852
1882.0,-8.268,-2.859,-1.135,-0.053,-1.355,-1.852
1886.0,-8.113,-2.841,-1.176,0.022,-1.223,-1.859
1891.0,-8.113,-2.841,-1.176,0.022,-1.223,-1.859
1895.0,-8.113,-2.841,-1.152,0.022,-1.223,-1.859
1899.0,-7.945,-2.818,-1.152,0.095,-1.086,-1.866
1903.0,-7.945,-2.818,-1.152,0.095,-1.086,-1.866
1907.0,-7.741,-2.769,-1.1,0.161,-0.954,-1.876
1911.0,-7.741,-2.769,-1.1,0.161,-0.954,-1.876
1915.0,-7.508,-2.694,-1.034,0.161,-0.954,-1.891
1919.0,-7.508,-2.694,-1.034,0.219,-0.827,-1.891
1923.0,-7.508,-2.694,-1.034,0.219,-0.827,-1.891
1927.0,-7.275,-2.597,-0.929,0.267,-0.709,-1.912
1931.0,-7.275,-2.597,-0.929,0.267,-0.709,-1.912
1935.0,-7.016,-2.482,-0.831,0.306,-0.599,-1.935
1940.0,-7.016,-2.482,-0.831,0.306,-0.599,-1.935
1944.0,-7.016,-2.482,-0.831,0.306,-0.599,-1.935
1948.0,-6.751,-2.36,-0.729,0.338,-0.496,-1.957
1952.0,-6.751,-2.36,-0.729,0.338,-0.496,-1.957
1956.0,-6.533,-2.232,-0.615,0.365,-0.393,-1.975
1960.0,-6.533,-2.232,-0.615,0.365,-0.393,-1.975
1964.0,-6.473,-2.121,-0.47,0.365,-0.393,-1.975
1968.0,-6.473,-2.121,-0.47,0.389,-0.294,-1.983
1972.0,-6.473,-2.121,-0.47,0.389,-0.294,-1.983
1976.0,-6.567,-2.037,-0.331,0.409,-0.198,-1.974
1980.0,-6.567,-2.037,-0.331,0.409,-0.198,-1.974
1984.0,-6.807,-2.011,-0.202,0.423,-0.1,-1.947
1988.0,-6.807,-2.011,-0.202,0.423,-0.1,-1.947
1993.0,-6.807,-2.011,-0.202,0.423,-0.1,-1.947
1997.0,-7.137,-2.038,-0.098,0.435,0.001,-1.901
2001.0,-7.137,-2.038,-0.098,0.435,0.001,-1.901
2005.0,-7.652,-2.087,0.003,0.445,0.107,-1.834
2009.0,-7.652,-2.087,0.003,0.445,0.107,-1.834
2012.0,-7.652,-2.087,0.003,0.445,0.107,-1.834
2016.0,-8.304,-2.22,0.151,0.454,0.226,-1.751
2020.0,-8.304,-2.22,0.151,0.454,0.226,-1.751
2024.0,-9.059,-2.411,0.384,0.474,0.355,-1.648
2028.0,-9.059,-2.411,0.384,0.474,0.355,-1.648
2032.0,-9.059,-2.411,0.384,0.474,0.355,-1.648
2036.0,-9.879,-2.645,0.738,0.518,0.486,-1.524
2040.0,-9.879,-2.645,0.738,0.518,0.486,-1.524
2044.0,-10.701,-2.931,1.204,0.596,0.601,-1.388
2048.0,-10.701,-2.931,1.204,0.596,0.601,-1.388
2052.0,-10.701,-2.931,1.204,0.596,0.601,-1.388
2056.0,-11.459,-3.159,1.722,0.718,0.689,-1.257
2060.0,-11.459,-3.159,1.722,0.718,0.689,-1.257
2064.0,-12.032,-3.297,2.11,0.877,0.738,-1.144
2068.0,-12.032,-3.297,2.11,0.877,0.738,-1.144
2072.0,-12.032,-3.297,2.11,0.877,0.738,-1.144
2076.0,-12.299,-3.34,2.307,1.064,0.748,-1.063
2080.0,-12.299,-3.34,2.307,1.064,0.748,-1.063
2084.0,-12.181,-3.173,2.44,1.268,0.727,-1.021
2088.0,-12.181,-3.173,2.44,1.268,0.727,-1.021
2092.0,-12.181,-3.173,2.44,1.268,0.727,-1.021
2096.0,-11.751,-2.835,2.523,1.473,0.68,-1.012
2100.0,-11.751,-2.835,2.523,1.473,0.68,-1.012
2104.0,-11.181,-2.398,2.518,1.663,0.617,-1.027
2108.0,-11.181,-2.398,2.518,1.663,0.617,-1.027
2112.0,-11.181,-2.398,2.518,1.663,0.617,-1.027
2116.0,-10.638,-1.914,2.338,1.828,0.557,-1.055
2120.0,-10.638,-1.914,2.338,1.828,0.557,-1.055
2124.0,-10.242,-1.439,2.024,1.955,0.522,-1.076
2128.0,-10.242,-1.439,2.024,1.955,0.522,-1.076
2132.0,-10.242,-1.439,1.683,1.955,0.522,-1.076
2136.0,-10.033,-1.056,1.683,2.035,0.534,-1.07
2140.0,-10.033,-1.056,1.683,2.035,0.534,-1.07
2144.0,-9.893,-0.795,1.515,2.068,0.598,-1.022
2147.0,-9.893,-0.795,1.515,2.068,0.598,-1.022
2151.0,-9.893,-0.795,1.561,2.068,0.598,-1.022
2155.0,-9.781,-0.631,1.561,2.059,0.704,-0.932
2159.0,-9.781,-0.631,1.561,2.059,0.704,-0.932
2163.0,-9.686,-0.504,1.805,2.009,0.834,-0.807
2167.0,-9.686,-0.504,1.805,2.009,0.834,-0.807
2171.0,-9.686,-0.504,1.805,2.009,0.834,-0.807
2175.0,-9.788,-0.379,2.212,1.926,0.959,-0.649
2179.0,-9.788,-0.379,2.212,1.926,0.959,-0.649
2183.0,-10.09,-0.222,2.901,1.817,1.05,-0.457
2187.0,-10.09,-0.222,2.901,1.817,1.05,-0.457
2191.0,-10.09,-0.222,2.901,1.817,1.05,-0.457
2195.0,-10.276,-0.07,3.559,1.692,1.066,-0.232
2199.0,-10.276,-0.07,3.559,1.692,1.066,-0.232
2203.0,-10.08,0.038,3.847,1.548,1.008,0.026
2206.0,-10.08,0.038,3.847,1.548,1.008,0.026
2210.0,-10.08,0.038,3.847,1.548,1.008,0.026
2214.0,-9.611,0.094,3.765,1.376,0.937,0.298
2218.0,-9.611,0.094,3.765,1.376,0.937,0.298
2221.0,-9.136,0.133,3.471,1.168,0.924,0.562
2225.0,-9.136,0.133,3.471,1.168,0.924,0.562
2229.0,-9.136,0.133,3.471,1.168,0.924,0.562
2233.0,-8.779,0.258,3.164,0.915,1.006,0.807
2236.0,-8.779,0.258,3.164,0.915,1.006,0.807
2240.0,-8.779,0.258,2.968,0.915,1.006,0.807
2244.0,-8.621,0.348,2.968,0.615,1.173,1.035
2248.0,-8.621,0.348,2.968,0.615,1.173,1.035
2251.0,-8.743,0.392,2.9,0.281,1.39,1.241
2255.0,-8.743,0.392,2.9,0.281,1.39,1.241
2259.0,-8.743,0.392,2.9,0.281,1.39,1.241
2263.0,-9.064,0.376,2.931,-0.064,1.617,1.422
2266.0,-9.064,0.376,2.931,-0.064,1.617,1.422
2270.0,-9.431,0.349,3.088,-0.064,1.617,1.422
2274.0,-9.431,0.349,3.088,-0.397,1.816,1.576
2278.0,-9.431,0.349,3.088,-0.397,1.816,1.576
2282.0,-9.673,0.291,3.296,-0.698,1.957,1.71
2285.0,-9.673,0.291,3.296,-0.698,1.957,1.71
2289.0,-9.673,0.291,3.296,-0.698,1.957,1.71
2293.0,-9.848,0.176,3.477,-0.948,2.038,1.817
2297.0,-9.848,0.176,3.477,-0.948,2.038,1.817
2301.0,-9.971,0.031,3.574,-1.136,2.067,1.897
2305.0,-9.971,0.031,3.574,-1.136,2.067,1.897
2308.0,-9.971,0.031,3.574,-1.136,2.067,1.897
2312.0,-10.159,-0.135,3.614,-1.26,2.055,1.948
2316.0,-10.159,-0.135,3.614,-1.26,2.055,1.948
2320.0,-10.576,-0.293,3.553,-1.32,2.012,1.971
2324.0,-10.576,-0.293,3.553,-1.32,2.012,1.971
2328.0,-10.576,-0.293,3.553,-1.32,2.012,1.971
2332.0,-11.322,-0.394,3.376,-1.321,1.952,1.977
2336.0,-11.322,-0.394,3.376,-1.321,1.952,1.977
2340.0,-12.296,-0.472,3.12,-1.277,1.881,1.987
2344.0,-12.296,-0.472,3.12,-1.277,1.881,1.987
2348.0,-12.296,-0.472,3.12,-1.277,1.881,1.987
2352.0,-13.306,-0.568,2.858,-1.202,1.807,2.013
2356.0,-13.306,-0.568,2.858,-1.202,1.807,2.013
2360.0,-14.115,-0.702,2.599,-1.106,1.731,2.054
2364.0,-14.115,-0.702,2.599,-1.106,1.731,2.054
2368.0,-14.115,-0.702,2.599,-1.106,1.731,2.054
2372.0,-14.551,-0.843,2.357,-0.996,1.65,2.095
2376.0,-14.551,-0.843,2.357,-0.996,1.65,2.095
2380.0,-14.548,-0.919,2.16,-0.883,1.562,2.117
2384.0,-14.548,-0.919,2.16,-0.883,1.562,2.117
2388.0,-14.548,-0.919,2.16,-0.883,1.562,2.117
2392.0,-14.199,-0.986,2.099,-0.779,1.47,2.094
2396.0,-14.199,-0.986,2.099,-0.779,1.47,2.094
2400.0,-13.726,-1.06,2.064,-0.681,1.376,2.032
2404.0,-13.726,-1.06,2.064,-0.681,1.376,2.032
2408.0,-13.726,-1.06,1.991,-0.681,1.376,2.032
2412.0,-13.423,-1.117,1.991,-0.588,1.293,1.945
2416.0,-13.423,-1.117,1.991,-0.588,1.293,1.945
2420.0,-13.273,-1.1,2.036,-0.503,1.232,1.848
2424.0,-13.273,-1.1,2.036,-0.503,1.232,1.848
2428.0,-12.914,-1.097,2.216,-0.503,1.232,1.848
2432.0,-12.914,-1.097,2.216,-0.43,1.172,1.766
2436.0,-12.914,-1.097,2.216,-0.43,1.172,1.766
2440.0,-12.422,-1.081,2.402,-0.379,1.091,1.697
2444.0,-12.422,-1.081,2.402,-0.379,1.091,1.697
2448.0,-11.88,-1.019,2.457,-0.379,1.091,1.626
2452.0,-11.88,-1.019,2.457,-0.352,1.003,1.626
2456.0,-11.88,-1.019,2.457,-0.352,1.003,1.626
2460.0,-11.2,-0.93,2.463,-0.355,0.91,1.546
2464.0,-11.2,-0.93,2.463,-0.355,0.91,1.546
2468.0,-10.493,-0.82,2.536,-0.355,0.805,1.455
2472.0,-10.493,-0.82,2.536,-0.391,0.805,1.455
2476.0,-10.493,-0.82,2.536,-0.391,0.805,1.455
2480.0,-9.92,-0.69,2.47,-0.457,0.691,1.353
2484.0,-9.92,-0.69,2.47,-0.457,0.691,1.353
2488.0,-9.52,-0.556,2.262,-0.457,0.587,1.242
2492.0,-9.52,-0.556,2.262,-0.55,0.587,1.242
2496.0,-9.52,-0.556,2.262,-0.55,0.587,1.242
2499.0,-9.223,-0.581,2.002,-0.672,0.494,1.128
2503.0,-9.223,-0.581,2.002,-0.672,0.494,1.128
2507.0,-8.787,-0.379,1.756,-0.672,0.494,1.013
2511.0,-8.787,-0.379,1.756,-0.831,0.41,1.013
2515.0,-8.787,-0.379,1.756,-0.831,0.41,1.013
2519.0,-8.435,-0.209,1.501,-1.007,0.339,0.907
2523.0,-8.435,-0.209,1.501,-1.007,0.339,0.907
2527.0,-8.362,-0.239,1.356,-1.007,0.339,0.907
2531.0,-8.362,-0.239,1.356,-1.199,0.29,0.813
2535.0,-8.362,-0.239,1.356,-1.199,0.29,0.813
2538.0,-8.06,-0.266,1.294,-1.389,0.251,0.734
2542.0,-8.06,-0.266,1.294,-1.389,0.251,0.734
2546.0,-8.06,-0.376,1.266,-1.389,0.251,0.734
2550.0,-7.804,-0.376,1.266,-1.571,0.215,0.657
2554.0,-7.804,-0.376,1.266,-1.571,0.215,0.657
2558.0,-7.57,-0.509,1.253,-1.738,0.185,0.584
2562.0,-7.57,-0.509,1.253,-1.738,0.185,0.584
2566.0,-7.57,-0.509,1.208,-1.738,0.185,0.584
2570.0,-7.412,-0.616,1.208,-1.893,0.167,0.517
2574.0,-7.412,-0.616,1.208,-1.893,0.167,0.517
2578.0,-7.385,-0.723,1.205,-2.038,0.166,0.462
2581.0,-7.385,-0.723,1.205,-2.038,0.166,0.462
2585.0,-7.385,-0.723,1.205,-2.038,0.166,0.462
2589.0,-7.409,-0.891,1.229,-2.17,0.173,0.426
2593.0,-7.409,-0.891,1.229,-2.17,0.173,0.426
2597.0,-7.447,-1.107,1.266,-2.281,0.181,0.404
2601.0,-7.447,-1.107,1.266,-2.281,0.181,0.404
2605.0,-7.447,-1.107,1.266,-2.281,0.181,0.404
2609.0,-7.605,-1.391,1.414,-2.366,0.183,0.389
2613.0,-7.605,-1.391,1.414,-2.366,0.183,0.389
2617.0,-7.664,-1.519,1.295,-2.424,0.18,0.377
2621.0,-7.664,-1.519,1.295,-2.424,0.18,0.377
2624.0,-7.664,-1.519,1.295,-2.424,0.18,0.377
2628.0,-7.764,-1.69,1.243,-2.455,0.182,0.373
2632.0,-7.764,-1.69,1.243,-2.455,0.182,0.373
2636.0,-7.858,-1.845,1.143,-2.466,0.189,0.368
2640.0,-7.858,-1.845,1.143,-2.466,0.189,0.368
2644.0,-7.858,-1.845,1.143,-2.466,0.189,0.368
2648.0,-7.899,-1.972,1.008,-2.456,0.208,0.362
2652.0,-7.899,-1.972,1.008,-2.456,0.208,0.362
2656.0,-8.209,-2.032,0.888,-2.43,0.254,0.36
2660.0,-8.209,-2.032,0.888,-2.43,0.254,0.36
2663.0,-8.209,-2.032,0.888,-2.43,0.254,0.36
2667.0,-8.608,-2.101,1.003,-2.393,0.328,0.373
2671.0,-8.608,-2.101,1.003,-2.393,0.328,0.373
2675.0,-8.34,-2.187,1.376,-2.393,0.38,0.393
2679.0,-8.34,-2.187,1.376,-2.338,0.38,0.393
2683.0,-8.34,-2.187,1.376,-2.338,0.38,0.393
2687.0,-7.3,-2.183,1.809,-2.256,0.368,0.395
2691.0,-7.3,-2.183,1.809,-2.256,0.368,0.395
2695.0,-6.152,-2.044,2.139,-2.256,0.368,0.342
2699.0,-6.152,-2.044,2.139,-2.148,0.302,0.342
2703.0,-6.152,-2.044,2.139,-2.148,0.302,0.342
2706.0,-5.204,-1.789,2.281,-2.031,0.207,0.23
2710.0,-5.204,-1.789,2.281,-2.031,0.207,0.23
2714.0,-4.433,-1.454,2.021,-2.031,0.207,0.23
2718.0,-4.433,-1.454,2.021,-1.926,0.12,0.098
2722.0,-4.433,-1.454,2.021,-1.926,0.12,0.098
2726.0,-3.94,-1.143,1.597,-1.858,0.092,-0.012
2730.0,-3.94,-1.143,1.597,-1.858,0.092,-0.012
2734.0,-3.843,-0.926,1.272,-1.858,0.092,-0.012
2738.0,-3.843,-0.926,1.272,-1.826,0.15,-0.076
2742.0,-3.843,-0.926,1.272,-1.826,0.15,-0.076
2746.0,-4.261,-0.859,1.223,-1.817,0.277,-0.087
2750.0,-4.261,-0.859,1.223,-1.817,0.277,-0.087
2754.0,-5.139,-0.988,1.362,-1.817,0.277,-0.059
2758.0,-5.139,-0.988,1.362,-1.81,0.426,-0.059
2762.0,-5.139,-0.988,1.362,-1.81,0.426,-0.059
2766.0,-6.283,-1.216,1.726,-1.784,0.558,-0.009
2770.0,-6.283,-1.216,1.726,-1.784,0.558,-0.009
2774.0,-7.418,-1.551,2.249,-1.784,0.642,0.046
2778.0,-7.418,-1.551,2.249,-1.727,0.642,0.046
2782.0,-7.418,-1.551,2.249,-1.727,0.642,0.046
2786.0,-8.511,-1.83,2.834,-1.633,0.67,0.085
2790.0,-8.511,-1.83,2.834,-1.633,0.67,0.085
2793.0,-9.558,-1.967,3.177,-1.633,0.67,0.093
2797.0,-9.558,-1.967,3.177,-1.498,0.652,0.093
2801.0,-9.558,-1.967,3.177,-1.498,0.652,0.093
2805.0,-10.486,-1.987,3.388,-1.326,0.627,0.077
2809.0,-10.486,-1.987,3.388,-1.326,0.627,0.077
2813.0,-11.196,-1.795,3.648,-1.326,0.627,0.051
2817.0,-11.196,-1.795,3.648,-1.118,0.616,0.051
2821.0,-11.196,-1.795,3.648,-1.118,0.616,0.051
2825.0,-11.716,-1.181,3.847,-0.873,0.62,0.043
2829.0,-11.716,-1.181,3.847,-0.873,0.62,0.043
2833.0,-12.093,-0.249,3.949,-0.873,0.645,0.116
2837.0,-12.093,-0.249,3.949,-0.588,0.645,0.116
2841.0,-12.093,-0.249,3.949,-0.588,0.645,0.116
2845.0,-12.234,0.837,4.204,-0.266,0.691,0.312
2849.0,-12.234,0.837,4.204,-0.266,0.691,0.312
2853.0,-12.126,1.892,4.856,-0.266,0.755,0.627
2857.0,-12.126,1.892,4.856,0.098,0.755,0.627
2861.0,-12.126,1.892,4.856,0.098,0.755,0.627
2864.0,-11.764,2.681,5.816,0.51,0.8,1.026
2868.0,-11.764,2.681,5.816,0.51,0.8,1.026
2872.0,-11.764,3.047,6.788,0.51,0.8,1.026
2876.0,-11.091,3.047,6.788,0.944,0.767,1.45
2880.0,-11.091,3.047,6.788,0.944,0.767,1.45
2884.0,-10.049,3.313,7.631,1.349,0.637,1.817
2887.0,-10.049,3.313,7.631,1.349,0.637,1.817
2891.0,-10.049,3.313,7.631,1.349,0.637,1.817
2895.0,-8.468,3.364,7.878,1.691,0.416,2.09
2899.0,-8.468,3.364,7.878,1.691,0.416,2.09
2902.0,-6.427,3.307,7.362,1.92,0.153,2.243
2906.0,-6.427,3.307,7.362,1.92,0.153,2.243
2910.0,-6.427,3.307,7.362,1.92,0.153,2.243
2914.0,-3.651,4.037,6.42,1.99,-0.054,2.279
2917.0,-3.651,4.037,6.42,1.99,-0.054,2.279
2921.0,-3.651,4.037,5.116,1.99,-0.054,2.279
2925.0,-3.568,4.129,5.116,1.841,0.04,2.247
2929.0,-3.568,4.129,5.116,1.841,0.04,2.247
2933.0,-1.956,5.109,3.839,1.763,-0.194,2.17
2936.0,-1.956,5.109,3.839,1.763,-0.194,2.17
2940.0,-1.956,5.109,3.839,1.763,-0.194,2.17
2944.0,-2.371,5.712,2.268,1.531,-0.139,2.084
2948.0,-2.371,5.712,2.268,1.531,-0.139,2.084
2952.0,-4.687,5.709,0.998,1.239,0.096,1.982
2955.0,-4.687,5.709,0.998,1.239,0.096,1.982
2959.0,-4.687,5.709,0.998,1.239,0.096,1.982
2963.0,-8.748,4.99,0.763,0.954,0.441,1.863
2967.0,-8.748,4.99,0.763,0.954,0.441,1.863
2970.0,-8.748,4.99,0.763,0.954,0.441,1.863
2974.0,-14.864,4.292,1.952,0.749,0.789,1.743
2978.0,-14.864,4.292,1.952,0.749,0.789,1.743
2982.0,-19.503,3.422,3.709,0.676,0.963,1.673
2986.0,-19.503,3.422,3.709,0.676,0.963,1.673
2989.0,-19.503,3.422,3.709,0.676,0.963,1.673
2993.0,-19.6,3.352,4.805,0.655,0.867,1.615
2997.0,-19.6,3.352,4.805,0.655,0.867,1.615
