deltaTime,Acc_X,Acc_Y,Acc_Z,Gyro_X,Gyro_Y,Gyro_Z
0.0,-10.034,-1.356,0.532,0.298,-0.798,-0.629
3.0,-10.034,-1.356,0.532,0.298,-0.798,-0.629
6.0,-10.034,-1.356,0.532,0.298,-0.798,-0.629
9.0,-10.075,-1.108,0.581,0.249,-0.802,-0.726
12.0,-10.075,-1.108,0.581,0.249,-0.802,-0.726
15.0,-10.075,-1.108,0.581,0.249,-0.802,-0.726
18.0,-9.979,-0.946,0.638,0.171,-0.818,-0.782
21.0,-9.979,-0.946,0.638,0.171,-0.818,-0.782
24.0,-9.979,-0.946,0.638,0.171,-0.818,-0.782
27.0,-9.678,-0.7,0.607,0.171,-0.818,-0.782
30.0,-9.678,-0.7,0.607,0.059,-0.844,-0.821
34.0,-9.678,-0.7,0.607,0.059,-0.844,-0.821
37.0,-9.436,-0.586,0.593,-0.104,-0.866,-0.848
41.0,-9.436,-0.586,0.593,-0.104,-0.866,-0.848
45.0,-9.436,-0.586,0.593,-0.104,-0.866,-0.848
49.0,-9.172,-0.615,0.638,-0.285,-0.889,-0.855
53.0,-9.172,-0.615,0.638,-0.285,-0.889,-0.855
57.0,-8.722,-0.8,0.536,-0.285,-0.945,-0.841
61.0,-8.722,-0.8,0.536,-0.449,-0.945,-0.841
65.0,-8.722,-0.8,0.536,-0.449,-0.945,-0.841
69.0,-8.107,-0.969,0.341,-0.57,-1.012,-0.811
72.0,-8.107,-0.969,0.341,-0.57,-1.012,-0.811
76.0,-7.786,-1.049,0.556,-0.57,-1.012,-0.783
80.0,-7.786,-1.049,0.556,-0.657,-1.046,-0.783
84.0,-7.786,-1.049,0.556,-0.657,-1.046,-0.783
88.0,-7.198,-1.207,0.312,-0.698,-1.097,-0.762
92.0,-7.198,-1.207,0.312,-0.698,-1.097,-0.762
96.0,-6.763,-1.067,-0.028,-0.698,-1.097,-0.762
100.0,-6.763,-1.067,-0.028,-0.706,-1.14,-0.732
104.0,-6.763,-1.067,-0.028,-0.706,-1.14,-0.732
108.0,-6.805,-0.762,-0.35,-0.744,-1.121,-0.695
112.0,-6.805,-0.762,-0.35,-0.744,-1.121,-0.695
116.0,-6.869,-0.549,-0.497,-0.831,-1.074,-0.646
120.0,-6.869,-0.549,-0.497,-0.831,-1.074,-0.646
124.0,-6.869,-0.549,-0.497,-0.831,-1.074,-0.646
128.0,-6.869,-0.379,-0.508,-0.946,-1.02,-0.593
133.0,-6.869,-0.379,-0.508,-0.946,-1.02,-0.593
137.0,-7.04,-0.358,-0.476,-1.072,-0.956,-0.523
141.0,-7.04,-0.358,-0.476,-1.072,-0.956,-0.523
145.0,-7.04,-0.358,-0.476,-1.072,-0.956,-0.523
149.0,-7.649,-0.342,-0.394,-1.213,-0.856,-0.431
153.0,-7.649,-0.342,-0.394,-1.213,-0.856,-0.431
157.0,-8.32,-0.397,-0.17,-1.374,-0.749,-0.333
161.0,-8.32,-0.397,-0.17,-1.374,-0.749,-0.333
165.0,-8.9,-0.603,0.012,-1.374,-0.749,-0.23
169.0,-8.9,-0.603,0.012,-1.535,-0.676,-0.23
173.0,-8.9,-0.603,0.012,-1.535,-0.676,-0.23
177.0,-9.4,-0.94,0.229,-1.682,-0.603,-0.113
181.0,-9.4,-0.94,0.229,-1.682,-0.603,-0.113
185.0,-9.86,-1.39,0.575,-1.682,-0.513,0.01
189.0,-9.86,-1.39,0.575,-1.796,-0.513,0.01
193.0,-9.86,-1.39,0.575,-1.796,-0.513,0.01
197.0,-9.83,-1.795,0.927,-1.847,-0.458,0.116
201.0,-9.83,-1.795,0.927,-1.847,-0.458,0.116
205.0,-9.66,-2.212,1.08,-1.847,-0.458,0.196
209.0,-9.66,-2.212,1.08,-1.829,-0.439,0.196
213.0,-9.66,-2.212,1.08,-1.829,-0.439,0.196
216.0,-9.78,-2.505,1.266,-1.744,-0.387,0.259
220.0,-9.78,-2.505,1.266,-1.744,-0.387,0.259
224.0,-9.706,-2.65,1.524,-1.744,-0.387,0.259
228.0,-9.706,-2.65,1.524,-1.596,-0.313,0.318
232.0,-9.706,-2.65,1.524,-1.596,-0.313,0.318
236.0,-9.58,-2.548,1.788,-1.404,-0.231,0.36
240.0,-9.58,-2.548,1.788,-1.404,-0.231,0.36
244.0,-9.58,-2.548,2.085,-1.404,-0.231,0.36
248.0,-9.692,-2.233,2.085,-1.211,-0.139,0.387
252.0,-9.692,-2.233,2.085,-1.211,-0.139,0.387
255.0,-9.594,-2.301,2.69,-1.031,-0.041,0.415
259.0,-9.594,-2.301,2.69,-1.031,-0.041,0.415
263.0,-9.594,-2.301,2.69,-1.031,-0.041,0.415
267.0,-9.337,-2.349,3.202,-0.8,0.037,0.464
271.0,-9.337,-2.349,3.202,-0.8,0.037,0.464
275.0,-9.172,-2.276,3.516,-0.531,0.087,0.49
279.0,-9.172,-2.276,3.516,-0.531,0.087,0.49
282.0,-9.172,-2.276,3.516,-0.531,0.087,0.49
286.0,-8.931,-2.02,3.57,-0.266,0.107,0.481
290.0,-8.931,-2.02,3.57,-0.266,0.107,0.481
294.0,-8.89,-1.704,3.381,-0.048,0.104,0.451
298.0,-8.89,-1.704,3.381,-0.048,0.104,0.451
302.0,-8.89,-1.704,3.381,-0.048,0.104,0.451
305.0,-9.054,-1.34,3.195,0.115,0.071,0.419
309.0,-9.054,-1.34,3.195,0.115,0.071,0.419
313.0,-9.054,-1.34,2.783,0.115,0.071,0.419
317.0,-9.171,-1.016,2.783,0.226,-0.019,0.408
320.0,-9.171,-1.016,2.783,0.226,-0.019,0.408
324.0,-9.196,-0.654,2.6,0.27,-0.131,0.424
328.0,-9.196,-0.654,2.6,0.27,-0.131,0.424
332.0,-9.196,-0.654,2.6,0.27,-0.131,0.424
336.0,-9.053,-0.215,2.744,0.253,-0.203,0.427
340.0,-9.053,-0.215,2.744,0.253,-0.203,0.427
343.0,-8.785,0.011,2.67,0.184,-0.277,0.424
347.0,-8.785,0.011,2.67,0.184,-0.277,0.424
351.0,-8.785,0.011,2.67,0.184,-0.277,0.424
355.0,-8.521,0.167,2.451,0.087,-0.369,0.426
358.0,-8.521,0.167,2.451,0.087,-0.369,0.426
362.0,-8.521,0.167,2.451,0.087,-0.369,0.426
366.0,-8.253,0.217,2.198,-0.045,-0.437,0.42
370.0,-8.253,0.217,2.198,-0.045,-0.437,0.42
373.0,-8.113,0.26,2.047,-0.21,-0.461,0.395
377.0,-8.113,0.26,2.047,-0.21,-0.461,0.395
381.0,-8.113,0.26,2.047,-0.21,-0.461,0.395
385.0,-8.093,0.335,1.942,-0.4,-0.453,0.36
389.0,-8.093,0.335,1.942,-0.4,-0.453,0.36
392.0,-8.185,0.409,1.85,-0.4,-0.424,0.34
396.0,-8.185,0.409,1.85,-0.616,-0.424,0.34
400.0,-8.185,0.409,1.85,-0.616,-0.424,0.34
404.0,-8.422,0.486,1.808,-0.85,-0.378,0.337
408.0,-8.422,0.486,1.808,-0.85,-0.378,0.337
412.0,-8.422,0.486,1.82,-0.85,-0.378,0.337
415.0,-8.648,0.522,1.82,-1.087,-0.315,0.346
419.0,-8.648,0.522,1.82,-1.087,-0.315,0.346
423.0,-8.785,0.465,1.833,-1.318,-0.251,0.355
427.0,-8.785,0.465,1.833,-1.318,-0.251,0.355
431.0,-8.785,0.465,1.833,-1.318,-0.251,0.355
434.0,-8.955,0.335,1.822,-1.536,-0.182,0.356
438.0,-8.955,0.335,1.822,-1.536,-0.182,0.356
442.0,-9.344,0.169,1.79,-1.733,-0.098,0.349
446.0,-9.344,0.169,1.79,-1.733,-0.098,0.349
450.0,-9.344,0.169,1.79,-1.733,-0.098,0.349
454.0,-10.043,-0.008,1.79,-1.899,0.006,0.347
457.0,-10.043,-0.008,1.79,-1.899,0.006,0.347
461.0,-10.77,-0.163,1.921,-1.899,0.006,0.368
465.0,-10.77,-0.163,1.921,-2.033,0.114,0.368
469.0,-10.77,-0.163,1.921,-2.033,0.114,0.368
473.0,-11.303,-0.407,2.061,-2.139,0.198,0.422
477.0,-11.303,-0.407,2.061,-2.139,0.198,0.422
481.0,-11.896,-0.714,2.052,-2.139,0.198,0.422
485.0,-11.896,-0.714,2.052,-2.216,0.267,0.498
489.0,-11.896,-0.714,2.052,-2.216,0.267,0.498
493.0,-12.453,-1.032,2.104,-2.252,0.337,0.579
497.0,-12.453,-1.032,2.104,-2.252,0.337,0.579
500.0,-12.453,-1.302,2.156,-2.252,0.337,0.579
504.0,-12.622,-1.302,2.156,-2.249,0.391,0.659
508.0,-12.622,-1.302,2.156,-2.249,0.391,0.659
512.0,-12.478,-1.511,2.142,-2.209,0.426,0.731
516.0,-12.478,-1.511,2.142,-2.209,0.426,0.731
520.0,-12.478,-1.511,2.137,-2.209,0.426,0.731
524.0,-12.273,-1.674,2.137,-2.134,0.453,0.782
528.0,-12.273,-1.674,2.137,-2.134,0.453,0.782
532.0,-12.096,-1.772,2.063,-2.026,0.479,0.81
536.0,-12.096,-1.772,2.063,-2.026,0.479,0.81
540.0,-12.096,-1.772,2.063,-2.026,0.479,0.81
543.0,-11.857,-1.799,2.075,-1.891,0.502,0.823
547.0,-11.857,-1.799,2.075,-1.891,0.502,0.823
551.0,-11.4,-1.816,2.188,-1.732,0.506,0.834
555.0,-11.4,-1.816,2.188,-1.732,0.506,0.834
559.0,-11.4,-1.816,2.188,-1.732,0.506,0.834
563.0,-10.648,-1.857,2.297,-1.553,0.48,0.842
567.0,-10.648,-1.857,2.297,-1.553,0.48,0.842
571.0,-9.892,-1.899,2.372,-1.357,0.438,0.839
575.0,-9.892,-1.899,2.372,-1.357,0.438,0.839
578.0,-9.892,-1.899,2.372,-1.357,0.438,0.839
582.0,-9.331,-1.932,2.402,-1.151,0.393,0.824
586.0,-9.331,-1.932,2.402,-1.151,0.393,0.824
590.0,-8.749,-1.988,2.254,-1.151,0.393,0.8
594.0,-8.749,-1.988,2.254,-0.94,0.342,0.8
597.0,-8.749,-1.988,2.254,-0.94,0.342,0.8
601.0,-8.319,-1.993,2.099,-0.736,0.299,0.77
605.0,-8.319,-1.993,2.099,-0.736,0.299,0.77
609.0,-8.319,-1.993,2.008,-0.736,0.299,0.77
613.0,-8.196,-1.999,2.008,-0.541,0.274,0.734
617.0,-8.196,-1.999,2.008,-0.541,0.274,0.734
620.0,-8.363,-2.026,1.79,-0.359,0.261,0.698
624.0,-8.363,-2.026,1.79,-0.359,0.261,0.698
628.0,-8.363,-2.026,1.79,-0.359,0.261,0.698
632.0,-8.774,-2.028,1.594,-0.193,0.261,0.665
636.0,-8.774,-2.028,1.594,-0.193,0.261,0.665
640.0,-9.375,-2.058,1.594,-0.047,0.265,0.636
643.0,-9.375,-2.058,1.594,-0.047,0.265,0.636
647.0,-9.375,-2.058,1.594,-0.047,0.265,0.636
651.0,-9.966,-2.091,1.682,0.086,0.25,0.613
655.0,-9.966,-2.091,1.682,0.086,0.25,0.613
658.0,-9.966,-2.094,1.782,0.086,0.25,0.613
662.0,-10.41,-2.094,1.782,0.207,0.208,0.597
666.0,-10.41,-2.094,1.782,0.207,0.208,0.597
670.0,-10.651,-2.089,1.817,0.315,0.145,0.587
674.0,-10.651,-2.089,1.817,0.315,0.145,0.587
677.0,-10.651,-2.089,1.817,0.315,0.145,0.587
681.0,-10.756,-2.038,1.717,0.406,0.075,0.58
685.0,-10.756,-2.038,1.717,0.406,0.075,0.58
689.0,-10.716,-1.967,1.56,0.474,0.013,0.573
693.0,-10.716,-1.967,1.56,0.474,0.013,0.573
697.0,-10.716,-1.967,1.56,0.474,0.013,0.573
700.0,-10.55,-1.877,1.406,0.519,-0.039,0.562
704.0,-10.55,-1.877,1.406,0.519,-0.039,0.562
708.0,-10.382,-1.762,1.226,0.519,-0.039,0.548
712.0,-10.382,-1.762,1.226,0.536,-0.077,0.548
716.0,-10.382,-1.762,1.226,0.536,-0.077,0.548
720.0,-10.375,-1.685,1.078,0.528,-0.097,0.53
724.0,-10.375,-1.685,1.078,0.528,-0.097,0.53
728.0,-10.522,-1.616,0.927,0.528,-0.097,0.53
732.0,-10.522,-1.616,0.927,0.5,-0.105,0.514
736.0,-10.522,-1.616,0.927,0.5,-0.105,0.514
739.0,-10.765,-1.589,0.874,0.453,-0.105,0.507
743.0,-10.765,-1.589,0.874,0.453,-0.105,0.507
747.0,-10.765,-1.589,0.883,0.453,-0.105,0.507
751.0,-11.096,-1.63,0.883,0.398,-0.103,0.507
755.0,-11.096,-1.63,0.883,0.398,-0.103,0.507
759.0,-11.369,-1.658,0.839,0.338,-0.111,0.513
763.0,-11.369,-1.658,0.839,0.338,-0.111,0.513
767.0,-11.369,-1.658,0.839,0.338,-0.111,0.513
771.0,-11.501,-1.656,0.874,0.27,-0.128,0.522
775.0,-11.501,-1.656,0.874,0.27,-0.128,0.522
778.0,-11.41,-1.644,0.929,0.194,-0.153,0.523
782.0,-11.41,-1.644,0.929,0.194,-0.153,0.523
786.0,-11.41,-1.644,0.929,0.194,-0.153,0.523
790.0,-11.121,-1.634,0.949,0.109,-0.181,0.509
794.0,-11.121,-1.634,0.949,0.109,-0.181,0.509
798.0,-10.692,-1.584,0.925,0.022,-0.209,0.477
802.0,-10.692,-1.584,0.925,0.022,-0.209,0.477
806.0,-10.692,-1.584,0.925,0.022,-0.209,0.477
810.0,-10.109,-1.476,0.893,-0.063,-0.238,0.429
814.0,-10.109,-1.476,0.893,-0.063,-0.238,0.429
818.0,-9.49,-1.375,0.869,-0.145,-0.265,0.369
822.0,-9.49,-1.375,0.869,-0.145,-0.265,0.369
826.0,-9.49,-1.375,0.869,-0.145,-0.265,0.369
829.0,-8.855,-1.305,0.811,-0.22,-0.285,0.298
833.0,-8.855,-1.305,0.811,-0.22,-0.285,0.298
837.0,-8.261,-1.273,0.684,-0.283,-0.302,0.221
841.0,-8.261,-1.273,0.684,-0.283,-0.302,0.221
845.0,-8.261,-1.273,0.684,-0.283,-0.302,0.221
849.0,-7.777,-1.219,0.565,-0.336,-0.308,0.14
853.0,-7.777,-1.219,0.565,-0.336,-0.308,0.14
857.0,-7.452,-1.208,0.46,-0.384,-0.293,0.062
861.0,-7.452,-1.208,0.46,-0.384,-0.293,0.062
865.0,-7.452,-1.208,0.46,-0.384,-0.293,0.062
868.0,-7.345,-1.234,0.459,-0.424,-0.247,-0.009
872.0,-7.345,-1.234,0.459,-0.424,-0.247,-0.009
876.0,-7.579,-1.331,0.618,-0.45,-0.176,-0.063
880.0,-7.579,-1.331,0.618,-0.45,-0.176,-0.063
884.0,-7.579,-1.331,0.618,-0.45,-0.176,-0.063
888.0,-8.145,-1.484,0.778,-0.46,-0.095,-0.091
892.0,-8.145,-1.484,0.778,-0.46,-0.095,-0.091
896.0,-8.928,-1.694,0.969,-0.456,-0.022,-0.085
900.0,-8.928,-1.694,0.969,-0.456,-0.022,-0.085
904.0,-8.928,-1.694,0.969,-0.456,-0.022,-0.085
908.0,-9.792,-1.962,1.183,-0.437,0.028,-0.048
912.0,-9.792,-1.962,1.183,-0.437,0.028,-0.048
916.0,-10.541,-2.265,1.391,-0.401,0.049,0.013
920.0,-10.541,-2.265,1.391,-0.401,0.049,0.013
924.0,-10.541,-2.265,1.391,-0.401,0.049,0.013
928.0,-10.95,-2.539,1.553,-0.343,0.043,0.089
932.0,-10.95,-2.539,1.553,-0.343,0.043,0.089
936.0,-10.9,-2.751,1.566,-0.267,0.016,0.167
940.0,-10.9,-2.751,1.566,-0.267,0.016,0.167
944.0,-10.9,-2.751,1.566,-0.267,0.016,0.167
947.0,-10.513,-2.87,1.487,-0.183,-0.02,0.232
951.0,-10.513,-2.87,1.487,-0.183,-0.02,0.232
955.0,-9.987,-2.888,1.334,-0.091,-0.037,0.275
959.0,-9.987,-2.888,1.334,-0.091,-0.037,0.275
963.0,-9.987,-2.888,1.334,-0.091,-0.037,0.275
967.0,-9.514,-2.837,1.148,0.005,-0.027,0.297
971.0,-9.514,-2.837,1.148,0.005,-0.027,0.297
975.0,-9.289,-2.754,1.043,0.005,-0.027,0.302
979.0,-9.289,-2.754,1.043,0.102,0.009,0.302
982.0,-9.289,-2.754,1.043,0.102,0.009,0.302
986.0,-9.381,-2.643,0.998,0.204,0.063,0.296
990.0,-9.381,-2.643,0.998,0.204,0.063,0.296
994.0,-9.381,-2.643,0.998,0.204,0.063,0.296
997.0,-9.779,-2.605,0.953,0.311,0.119,0.285
1001.0,-9.779,-2.605,0.953,0.311,0.119,0.285
1005.0,-10.377,-2.609,0.947,0.424,0.172,0.272
1009.0,-10.377,-2.609,0.947,0.424,0.172,0.272
1013.0,-10.377,-2.609,0.947,0.424,0.172,0.272
1017.0,-10.969,-2.581,1.046,0.538,0.212,0.259
1020.0,-10.969,-2.581,1.046,0.538,0.212,0.259
1024.0,-11.319,-2.555,1.152,0.538,0.232,0.246
1028.0,-11.319,-2.555,1.152,0.649,0.232,0.246
1032.0,-11.319,-2.555,1.152,0.649,0.232,0.246
1036.0,-11.285,-2.535,1.289,0.754,0.233,0.221
1040.0,-11.285,-2.535,1.289,0.754,0.233,0.221
1044.0,-10.829,-2.489,1.391,0.754,0.233,0.175
1048.0,-10.829,-2.489,1.391,0.852,0.214,0.175
1052.0,-10.829,-2.489,1.391,0.852,0.214,0.175
1056.0,-10.068,-2.343,1.366,0.941,0.182,0.103
1060.0,-10.068,-2.343,1.366,0.941,0.182,0.103
1063.0,-9.209,-2.124,1.28,0.941,0.182,0.103
1067.0,-9.209,-2.124,1.28,1.017,0.154,0.001
1071.0,-9.209,-2.124,1.28,1.017,0.154,0.001
1075.0,-8.432,-1.874,1.215,1.085,0.134,-0.122
1079.0,-8.432,-1.874,1.215,1.085,0.134,-0.122
1083.0,-8.432,-1.874,1.104,1.085,0.134,-0.122
1087.0,-7.79,-1.616,1.104,1.147,0.115,-0.25
1091.0,-7.79,-1.616,1.104,1.147,0.115,-0.25
1094.0,-7.28,-1.405,0.945,1.198,0.092,-0.373
1098.0,-7.28,-1.405,0.945,1.198,0.092,-0.373
1102.0,-7.28,-1.405,0.945,1.198,0.092,-0.373
1106.0,-7.004,-1.242,0.814,1.237,0.074,-0.482
1110.0,-7.004,-1.242,0.814,1.237,0.074,-0.482
1114.0,-6.992,-1.16,0.739,1.264,0.066,-0.579
1118.0,-6.992,-1.16,0.739,1.264,0.066,-0.579
1122.0,-6.992,-1.16,0.739,1.264,0.066,-0.579
1126.0,-7.296,-1.119,0.678,1.279,0.061,-0.668
1130.0,-7.296,-1.119,0.678,1.279,0.061,-0.668
1134.0,-7.895,-1.14,0.595,1.285,0.055,-0.739
1137.0,-7.895,-1.14,0.595,1.285,0.055,-0.739
1141.0,-7.895,-1.14,0.595,1.285,0.055,-0.739
1145.0,-8.748,-1.195,0.595,1.287,0.051,-0.791
1149.0,-8.748,-1.195,0.595,1.287,0.051,-0.791
1153.0,-9.836,-1.235,0.68,1.289,0.042,-0.825
1157.0,-9.836,-1.235,0.68,1.289,0.042,-0.825
1161.0,-9.836,-1.235,0.68,1.289,0.042,-0.825
1165.0,-10.969,-1.317,0.802,1.294,0.011,-0.84
1169.0,-10.969,-1.317,0.802,1.294,0.011,-0.84
1173.0,-11.979,-1.352,0.948,1.3,-0.052,-0.837
1177.0,-11.979,-1.352,0.948,1.3,-0.052,-0.837
1181.0,-11.979,-1.352,0.948,1.3,-0.052,-0.837
1185.0,-12.799,-1.35,1.064,1.301,-0.147,-0.821
1189.0,-12.799,-1.35,1.064,1.301,-0.147,-0.821
1193.0,-13.377,-1.31,1.047,1.299,-0.259,-0.798
1197.0,-13.377,-1.31,1.047,1.299,-0.259,-0.798
1201.0,-13.377,-1.31,0.848,1.299,-0.259,-0.798
1205.0,-13.826,-1.223,0.848,1.286,-0.373,-0.777
1209.0,-13.826,-1.223,0.848,1.286,-0.373,-0.777
1214.0,-14.049,-1.064,0.534,1.251,-0.469,-0.757
1218.0,-14.049,-1.064,0.534,1.251,-0.469,-0.757
1222.0,-14.036,-0.853,0.206,1.251,-0.539,-0.738
1226.0,-14.036,-0.853,0.206,1.188,-0.539,-0.738
1230.0,-14.036,-0.853,0.206,1.188,-0.539,-0.738
1234.0,-13.963,-0.625,0.013,1.093,-0.582,-0.714
1238.0,-13.963,-0.625,0.013,1.093,-0.582,-0.714
1242.0,-13.807,-0.416,-0.023,0.973,-0.599,-0.683
1246.0,-13.807,-0.416,-0.023,0.973,-0.599,-0.683
1250.0,-13.807,-0.416,-0.023,0.973,-0.599,-0.683
1255.0,-13.566,-0.29,0.022,0.833,-0.606,-0.647
1259.0,-13.566,-0.29,0.022,0.833,-0.606,-0.647
1263.0,-13.346,-0.182,0.121,0.678,-0.608,-0.607
1267.0,-13.346,-0.182,0.121,0.678,-0.608,-0.607
1271.0,-12.921,-0.118,0.27,0.678,-0.608,-0.566
1275.0,-12.921,-0.118,0.27,0.512,-0.613,-0.566
1279.0,-12.921,-0.118,0.27,0.512,-0.613,-0.566
1283.0,-12.229,-0.086,0.395,0.342,-0.632,-0.529
1287.0,-12.229,-0.086,0.395,0.342,-0.632,-0.529
1291.0,-11.447,-0.057,0.471,0.168,-0.657,-0.507
1295.0,-11.447,-0.057,0.471,0.168,-0.657,-0.507
1299.0,-11.447,-0.057,0.471,0.168,-0.657,-0.507
1304.0,-10.686,-0.025,0.523,-0.006,-0.679,-0.505
1308.0,-10.686,-0.025,0.523,-0.006,-0.679,-0.505
1312.0,-9.958,0.001,0.557,-0.173,-0.694,-0.521
1316.0,-9.958,0.001,0.557,-0.173,-0.694,-0.521
1320.0,-9.958,-0.013,0.47,-0.173,-0.694,-0.521
1324.0,-9.383,-0.013,0.47,-0.333,-0.701,-0.546
1328.0,-9.383,-0.013,0.47,-0.333,-0.701,-0.546
1332.0,-9.075,0.008,0.255,-0.488,-0.691,-0.576
1336.0,-9.075,0.008,0.255,-0.488,-0.691,-0.576
1340.0,-8.901,-0.118,0.214,-0.488,-0.691,-0.601
1344.0,-8.901,-0.118,0.214,-0.633,-0.653,-0.601
1348.0,-8.901,-0.118,0.214,-0.633,-0.653,-0.601
1352.0,-8.74,-0.185,0.145,-0.75,-0.602,-0.604
1356.0,-8.74,-0.185,0.145,-0.75,-0.602,-0.604
1361.0,-8.705,-0.272,0.158,-0.857,-0.548,-0.599
1365.0,-8.705,-0.272,0.158,-0.857,-0.548,-0.599
1369.0,-8.705,-0.272,0.158,-0.857,-0.548,-0.599
1373.0,-8.712,-0.417,0.232,-0.949,-0.484,-0.582
1377.0,-8.712,-0.417,0.232,-0.949,-0.484,-0.582
1381.0,-8.657,-0.564,0.327,-1.016,-0.418,-0.549
1385.0,-8.657,-0.564,0.327,-1.016,-0.418,-0.549
1389.0,-8.6,-0.707,0.397,-1.016,-0.418,-0.549
1393.0,-8.6,-0.707,0.397,-1.058,-0.353,-0.501
1397.0,-8.6,-0.707,0.397,-1.058,-0.353,-0.501
1401.0,-8.634,-0.849,0.473,-1.079,-0.29,-0.441
1405.0,-8.634,-0.849,0.473,-1.079,-0.29,-0.441
1409.0,-8.672,-1.002,0.622,-1.076,-0.227,-0.371
1414.0,-8.672,-1.002,0.622,-1.076,-0.227,-0.371
1418.0,-8.672,-1.002,0.622,-1.076,-0.227,-0.371
1422.0,-8.661,-1.165,0.764,-1.045,-0.171,-0.292
1426.0,-8.661,-1.165,0.764,-1.045,-0.171,-0.292
1430.0,-8.81,-1.26,0.79,-0.994,-0.121,-0.214
1434.0,-8.81,-1.26,0.79,-0.994,-0.121,-0.214
1438.0,-8.81,-1.26,0.79,-0.994,-0.121,-0.214
1442.0,-9.063,-1.348,0.782,-0.924,-0.065,-0.14
1446.0,-9.063,-1.348,0.782,-0.924,-0.065,-0.14
1450.0,-9.239,-1.394,0.759,-0.84,-0.017,-0.072
1454.0,-9.239,-1.394,0.759,-0.84,-0.017,-0.072
1458.0,-9.403,-1.447,0.746,-0.84,-0.017,-0.005
1462.0,-9.403,-1.447,0.746,-0.749,0.019,-0.005
1466.0,-9.403,-1.447,0.746,-0.749,0.019,-0.005
1470.0,-9.603,-1.483,0.712,-0.645,0.054,0.065
1474.0,-9.603,-1.483,0.712,-0.645,0.054,0.065
1478.0,-9.716,-1.505,0.722,-0.645,0.054,0.135
1482.0,-9.716,-1.505,0.722,-0.526,0.091,0.135
1486.0,-9.716,-1.505,0.722,-0.526,0.091,0.135
1490.0,-9.702,-1.475,0.747,-0.398,0.121,0.206
1494.0,-9.702,-1.475,0.747,-0.398,0.121,0.206
1498.0,-9.634,-1.496,0.744,-0.398,0.121,0.206
1502.0,-9.634,-1.496,0.744,-0.263,0.146,0.275
1506.0,-9.634,-1.496,0.744,-0.263,0.146,0.275
1510.0,-9.595,-1.484,0.679,-0.123,0.173,0.332
1513.0,-9.595,-1.484,0.679,-0.123,0.173,0.332
1517.0,-9.595,-1.458,0.652,-0.123,0.173,0.332
1521.0,-9.547,-1.458,0.652,0.015,0.204,0.382
1525.0,-9.547,-1.458,0.652,0.015,0.204,0.382
1529.0,-9.552,-1.39,0.626,0.144,0.238,0.429
1533.0,-9.552,-1.39,0.626,0.144,0.238,0.429
1537.0,-9.552,-1.39,0.626,0.144,0.238,0.429
1540.0,-9.547,-1.328,0.677,0.257,0.276,0.473
1544.0,-9.547,-1.328,0.677,0.257,0.276,0.473
1548.0,-9.586,-1.284,0.72,0.354,0.314,0.519
1552.0,-9.586,-1.284,0.72,0.354,0.314,0.519
1556.0,-9.586,-1.284,0.72,0.354,0.314,0.519
1559.0,-9.6,-1.234,0.821,0.437,0.349,0.559
1563.0,-9.6,-1.234,0.821,0.437,0.349,0.559
1567.0,-9.432,-1.169,1.008,0.437,0.349,0.587
1571.0,-9.432,-1.169,1.008,0.511,0.37,0.587
1575.0,-9.432,-1.169,1.008,0.511,0.37,0.587
1579.0,-9.218,-1.086,1.125,0.575,0.373,0.601
1582.0,-9.218,-1.086,1.125,0.575,0.373,0.601
1586.0,-9.218,-1.086,1.169,0.575,0.373,0.601
1590.0,-9.042,-0.974,1.169,0.63,0.369,0.601
1594.0,-9.042,-0.974,1.169,0.63,0.369,0.601
1598.0,-8.818,-0.866,1.181,0.675,0.359,0.585
1601.0,-8.818,-0.866,1.181,0.675,0.359,0.585
1605.0,-8.818,-0.866,1.181,0.675,0.359,0.585
1609.0,-8.659,-0.754,1.151,0.712,0.34,0.557
1613.0,-8.659,-0.754,1.151,0.712,0.34,0.557
1617.0,-8.621,-0.626,1.089,0.734,0.324,0.519
1621.0,-8.621,-0.626,1.089,0.734,0.324,0.519
1624.0,-8.621,-0.626,1.089,0.734,0.324,0.519
1628.0,-8.65,-0.481,1.013,0.74,0.317,0.48
1632.0,-8.65,-0.481,1.013,0.74,0.317,0.48
1636.0,-8.729,-0.363,0.981,0.74,0.317,0.48
1640.0,-8.729,-0.363,0.981,0.728,0.316,0.445
1643.0,-8.729,-0.363,0.981,0.728,0.316,0.445
1647.0,-8.94,-0.277,0.964,0.7,0.324,0.42
1651.0,-8.94,-0.277,0.964,0.7,0.324,0.42
1655.0,-8.94,-0.277,0.964,0.7,0.324,0.42
1659.0,-9.258,-0.2,0.998,0.657,0.344,0.406
1663.0,-9.258,-0.2,0.998,0.657,0.344,0.406
1666.0,-9.581,-0.154,1.094,0.598,0.367,0.403
1670.0,-9.581,-0.154,1.094,0.598,0.367,0.403
1674.0,-9.581,-0.154,1.094,0.598,0.367,0.403
1678.0,-9.913,-0.127,1.179,0.526,0.386,0.411
1682.0,-9.913,-0.127,1.179,0.526,0.386,0.411
1685.0,-10.186,-0.093,1.299,0.526,0.386,0.429
1689.0,-10.186,-0.093,1.299,0.441,0.405,0.429
1693.0,-10.186,-0.093,1.299,0.441,0.405,0.429
1697.0,-10.385,-0.071,1.435,0.345,0.424,0.449
1701.0,-10.385,-0.071,1.435,0.345,0.424,0.449
1705.0,-10.408,-0.057,1.636,0.345,0.424,0.449
1709.0,-10.408,-0.057,1.636,0.242,0.436,0.471
1713.0,-10.408,-0.057,1.636,0.242,0.436,0.471
1717.0,-10.079,-0.031,1.882,0.138,0.428,0.489
1721.0,-10.079,-0.031,1.882,0.138,0.428,0.489
1725.0,-10.079,0.011,2.027,0.138,0.428,0.489
1728.0,-9.456,0.011,2.027,0.035,0.387,0.491
1732.0,-9.456,0.011,2.027,0.035,0.387,0.491
1736.0,-8.833,0.063,2.016,-0.063,0.33,0.461
1740.0,-8.833,0.063,2.016,-0.063,0.33,0.461
1743.0,-8.833,0.063,2.016,-0.063,0.33,0.461
1747.0,-8.371,0.15,1.927,-0.154,0.279,0.398
1751.0,-8.371,0.15,1.927,-0.154,0.279,0.398
1755.0,-8.008,0.224,1.791,-0.24,0.237,0.313
1759.0,-8.008,0.224,1.791,-0.24,0.237,0.313
1763.0,-8.008,0.224,1.791,-0.24,0.237,0.313
1766.0,-7.713,0.318,1.619,-0.319,0.204,0.222
1770.0,-7.713,0.318,1.619,-0.319,0.204,0.222
1774.0,-7.713,0.401,1.527,-0.319,0.204,0.222
1778.0,-7.524,0.401,1.527,-0.397,0.182,0.134
1782.0,-7.524,0.401,1.527,-0.397,0.182,0.134
1785.0,-7.425,0.423,1.569,-0.469,0.169,0.054
1789.0,-7.425,0.423,1.569,-0.469,0.169,0.054
1793.0,-7.425,0.423,1.569,-0.469,0.169,0.054
1797.0,-7.329,0.405,1.595,-0.527,0.153,-0.014
1801.0,-7.329,0.405,1.595,-0.527,0.153,-0.014
1805.0,-7.308,0.317,1.577,-0.575,0.135,-0.069
1809.0,-7.308,0.317,1.577,-0.575,0.135,-0.069
1813.0,-7.308,0.317,1.577,-0.575,0.135,-0.069
1816.0,-7.503,0.175,1.549,-0.612,0.124,-0.121
1820.0,-7.503,0.175,1.549,-0.612,0.124,-0.121
1824.0,-7.914,0.069,1.566,-0.637,0.124,-0.163
1828.0,-7.914,0.069,1.566,-0.637,0.124,-0.163
1832.0,-7.914,0.069,1.566,-0.637,0.124,-0.163
1836.0,-8.453,-0.051,1.537,-0.656,0.125,-0.186
1840.0,-8.453,-0.051,1.537,-0.656,0.125,-0.186
1844.0,-9.105,-0.18,1.544,-0.674,0.135,-0.191
1848.0,-9.105,-0.18,1.544,-0.674,0.135,-0.191
1852.0,-9.105,-0.18,1.544,-0.674,0.135,-0.191
1856.0,-9.887,-0.291,1.638,-0.691,0.153,-0.183
1860.0,-9.887,-0.291,1.638,-0.691,0.153,-0.183
1864.0,-10.653,-0.389,1.759,-0.705,0.164,-0.159
1868.0,-10.653,-0.389,1.759,-0.705,0.164,-0.159
1872.0,-10.653,-0.389,1.759,-0.705,0.164,-0.159
1876.0,-11.096,-0.455,1.892,-0.715,0.149,-0.12
1880.0,-11.096,-0.455,1.892,-0.715,0.149,-0.12
1884.0,-11.061,-0.491,2.042,-0.721,0.101,-0.074
1888.0,-11.061,-0.491,2.042,-0.721,0.101,-0.074
1893.0,-10.542,-0.497,2.149,-0.721,0.101,-0.074
1897.0,-10.542,-0.497,2.149,-0.724,0.027,-0.04
1901.0,-10.542,-0.497,2.149,-0.724,0.027,-0.04
1905.0,-9.812,-0.394,2.11,-0.723,-0.055,-0.036
1909.0,-9.812,-0.394,2.11,-0.723,-0.055,-0.036
1913.0,-9.182,-0.232,1.985,-0.722,-0.123,-0.067
1917.0,-9.182,-0.232,1.985,-0.722,-0.123,-0.067
1921.0,-9.182,-0.232,1.985,-0.722,-0.123,-0.067
1925.0,-8.718,-0.062,1.844,-0.728,-0.176,-0.125
1929.0,-8.718,-0.062,1.844,-0.728,-0.176,-0.125
1933.0,-8.39,0.104,1.683,-0.743,-0.213,-0.198
1937.0,-8.39,0.104,1.683,-0.743,-0.213,-0.198
1941.0,-8.39,0.104,1.683,-0.743,-0.213,-0.198
1945.0,-8.011,0.279,1.626,-0.768,-0.241,-0.277
1949.0,-8.011,0.279,1.626,-0.768,-0.241,-0.277
1953.0,-7.612,0.373,1.683,-0.797,-0.271,-0.355
1957.0,-7.612,0.373,1.683,-0.797,-0.271,-0.355
1961.0,-7.612,0.373,1.638,-0.797,-0.271,-0.355
1965.0,-7.22,0.366,1.638,-0.826,-0.303,-0.432
1969.0,-7.22,0.366,1.638,-0.826,-0.303,-0.432
1973.0,-7.032,0.364,1.573,-0.851,-0.315,-0.518
1977.0,-7.032,0.364,1.573,-0.851,-0.315,-0.518
1981.0,-7.032,0.375,1.607,-0.851,-0.315,-0.518
1985.0,-7.092,0.375,1.607,-0.872,-0.3,-0.611
1989.0,-7.092,0.375,1.607,-0.872,-0.3,-0.611
1993.0,-7.329,0.288,1.545,-0.894,-0.267,-0.689
1997.0,-7.329,0.288,1.545,-0.894,-0.267,-0.689
2001.0,-7.836,0.197,1.523,-0.894,-0.267,-0.689
2005.0,-7.836,0.197,1.523,-0.921,-0.202,-0.742
2009.0,-7.836,0.197,1.523,-0.921,-0.202,-0.742
2013.0,-8.559,0.151,1.779,-0.944,-0.105,-0.761
2017.0,-8.559,0.151,1.779,-0.944,-0.105,-0.761
2021.0,-9.331,0.044,1.999,-0.944,-0.105,-0.731
2025.0,-9.331,0.044,1.999,-0.962,-0.013,-0.731
2029.0,-9.331,0.044,1.999,-0.962,-0.013,-0.731
2033.0,-9.915,-0.169,2.141,-0.975,0.069,-0.644
2037.0,-9.915,-0.169,2.141,-0.975,0.069,-0.644
2041.0,-10.292,-0.428,2.331,-0.975,0.14,-0.513
2045.0,-10.292,-0.428,2.331,-0.985,0.14,-0.513
2049.0,-10.292,-0.428,2.331,-0.985,0.14,-0.513
2053.0,-10.598,-0.715,2.515,-0.988,0.203,-0.354
2057.0,-10.598,-0.715,2.515,-0.988,0.203,-0.354
2062.0,-10.916,-1.027,2.572,-0.979,0.263,-0.181
2066.0,-10.916,-1.027,2.572,-0.979,0.263,-0.181
2070.0,-10.916,-1.027,2.572,-0.979,0.263,-0.181
2074.0,-11.143,-1.269,2.611,-0.958,0.325,-0.004
2078.0,-11.143,-1.269,2.611,-0.958,0.325,-0.004
2082.0,-11.405,-1.475,2.595,-0.922,0.387,0.175
2086.0,-11.405,-1.475,2.595,-0.922,0.387,0.175
2090.0,-11.405,-1.639,2.562,-0.922,0.387,0.175
2094.0,-11.815,-1.639,2.562,-0.876,0.454,0.35
2098.0,-11.815,-1.639,2.562,-0.876,0.454,0.35
2102.0,-12.19,-1.717,2.639,-0.814,0.521,0.521
2106.0,-12.19,-1.717,2.639,-0.814,0.521,0.521
2110.0,-12.327,-1.783,2.771,-0.814,0.521,0.521
2114.0,-12.327,-1.783,2.771,-0.734,0.561,0.688
2118.0,-12.327,-1.783,2.771,-0.734,0.561,0.688
2122.0,-12.389,-1.87,2.833,-0.626,0.566,0.835
2126.0,-12.389,-1.87,2.833,-0.626,0.566,0.835
2130.0,-12.327,-1.914,2.822,-0.626,0.566,0.942
2134.0,-12.327,-1.914,2.822,-0.489,0.548,0.942
2138.0,-12.327,-1.914,2.822,-0.489,0.548,0.942
2142.0,-12.223,-1.955,2.742,-0.328,0.518,1.004
2146.0,-12.223,-1.955,2.742,-0.328,0.518,1.004
2150.0,-12.206,-1.939,2.654,-0.148,0.489,1.021
2154.0,-12.206,-1.939,2.654,-0.148,0.489,1.021
2158.0,-12.206,-1.939,2.654,-0.148,0.489,1.021
2162.0,-12.231,-1.895,2.536,0.044,0.459,1.004
2166.0,-12.231,-1.895,2.536,0.044,0.459,1.004
2170.0,-12.481,-1.857,2.401,0.242,0.433,0.962
2174.0,-12.481,-1.857,2.401,0.242,0.433,0.962
2177.0,-12.481,-1.857,2.401,0.242,0.433,0.962
2181.0,-12.72,-1.752,2.358,0.439,0.405,0.903
2185.0,-12.72,-1.752,2.358,0.439,0.405,0.903
2189.0,-12.636,-1.671,2.453,0.439,0.351,0.831
2193.0,-12.636,-1.671,2.453,0.63,0.351,0.831
2197.0,-12.636,-1.671,2.453,0.63,0.351,0.831
2201.0,-12.093,-1.593,2.431,0.809,0.257,0.743
2205.0,-12.093,-1.593,2.431,0.809,0.257,0.743
2209.0,-11.317,-1.501,2.265,0.809,0.257,0.628
2213.0,-11.317,-1.501,2.265,0.967,0.146,0.628
2216.0,-11.317,-1.501,2.265,0.967,0.146,0.628
2220.0,-10.634,-1.381,2.055,1.102,0.049,0.482
2224.0,-10.634,-1.381,2.055,1.102,0.049,0.482
2228.0,-10.207,-1.225,1.807,1.102,0.049,0.482
2232.0,-10.207,-1.225,1.807,1.211,-0.024,0.314
2236.0,-10.207,-1.225,1.807,1.211,-0.024,0.314
2240.0,-10.058,-1.052,1.58,1.289,-0.073,0.143
2244.0,-10.058,-1.052,1.58,1.289,-0.073,0.143
2248.0,-10.11,-0.83,1.447,1.289,-0.073,0.143
2252.0,-10.11,-0.83,1.447,1.336,-0.107,-0.018
2256.0,-10.11,-0.83,1.447,1.336,-0.107,-0.018
2260.0,-10.21,-0.633,1.396,1.351,-0.145,-0.158
2264.0,-10.21,-0.633,1.396,1.351,-0.145,-0.158
2268.0,-10.214,-0.5,1.41,1.337,-0.191,-0.274
2272.0,-10.214,-0.5,1.41,1.337,-0.191,-0.274
2277.0,-10.214,-0.5,1.41,1.337,-0.191,-0.274
2281.0,-9.989,-0.428,1.433,1.298,-0.247,-0.37
2285.0,-9.989,-0.428,1.433,1.298,-0.247,-0.37
2289.0,-9.591,-0.38,1.451,1.236,-0.308,-0.454
2293.0,-9.591,-0.38,1.451,1.236,-0.308,-0.454
2297.0,-9.591,-0.38,1.451,1.236,-0.308,-0.454
2301.0,-9.162,-0.373,1.32,1.155,-0.361,-0.527
2305.0,-9.162,-0.373,1.32,1.155,-0.361,-0.527
2309.0,-9.05,-0.352,1.176,1.054,-0.387,-0.597
2313.0,-9.05,-0.352,1.176,1.054,-0.387,-0.597
2317.0,-9.05,-0.352,1.176,1.054,-0.387,-0.597
2321.0,-9.258,-0.346,1.066,0.936,-0.379,-0.661
2325.0,-9.258,-0.346,1.066,0.936,-0.379,-0.661
2329.0,-9.591,-0.36,1.045,0.805,-0.356,-0.705
2333.0,-9.591,-0.36,1.045,0.805,-0.356,-0.705
2337.0,-9.591,-0.36,1.076,0.805,-0.356,-0.705
2341.0,-9.928,-0.458,1.076,0.665,-0.333,-0.723
2345.0,-9.928,-0.458,1.076,0.665,-0.333,-0.723
2349.0,-10.222,-0.603,1.128,0.529,-0.317,-0.716
2353.0,-10.222,-0.603,1.128,0.529,-0.317,-0.716
2357.0,-10.519,-0.751,1.207,0.529,-0.317,-0.716
2361.0,-10.519,-0.751,1.207,0.405,-0.308,-0.692
2365.0,-10.519,-0.751,1.207,0.405,-0.308,-0.692
2369.0,-10.794,-0.917,1.228,0.296,-0.305,-0.65
2373.0,-10.794,-0.917,1.228,0.296,-0.305,-0.65
2377.0,-11.071,-1.093,1.218,0.202,-0.309,-0.598
2381.0,-11.071,-1.093,1.218,0.202,-0.309,-0.598
2385.0,-11.071,-1.093,1.218,0.202,-0.309,-0.598
2389.0,-11.42,-1.236,1.181,0.126,-0.31,-0.549
2393.0,-11.42,-1.236,1.181,0.126,-0.31,-0.549
2397.0,-11.682,-1.277,1.221,0.069,-0.316,-0.504
2402.0,-11.682,-1.277,1.221,0.069,-0.316,-0.504
2406.0,-11.682,-1.277,1.441,0.069,-0.316,-0.504
2410.0,-11.41,-1.211,1.441,0.032,-0.36,-0.463
2414.0,-11.41,-1.211,1.441,0.032,-0.36,-0.463
2418.0,-10.842,-1.147,1.564,0.016,-0.459,-0.434
2422.0,-10.842,-1.147,1.564,0.016,-0.459,-0.434
2426.0,-10.56,-1.079,1.449,0.016,-0.572,-0.441
2430.0,-10.56,-1.079,1.449,0.017,-0.572,-0.441
2434.0,-10.56,-1.079,1.449,0.017,-0.572,-0.441
2438.0,-10.421,-0.94,1.299,0.033,-0.678,-0.485
2442.0,-10.421,-0.94,1.299,0.033,-0.678,-0.485
2446.0,-10.178,-0.777,1.216,0.053,-0.799,-0.552
2451.0,-10.178,-0.777,1.216,0.053,-0.799,-0.552
2455.0,-10.178,-0.777,1.216,0.053,-0.799,-0.552
2459.0,-9.783,-0.644,1.083,0.071,-0.951,-0.639
2463.0,-9.783,-0.644,1.083,0.071,-0.951,-0.639
2467.0,-9.208,-0.501,0.725,0.091,-1.123,-0.753
2471.0,-9.208,-0.501,0.725,0.091,-1.123,-0.753
2475.0,-9.208,-0.501,0.169,0.091,-1.123,-0.753
2479.0,-8.615,-0.323,0.169,0.102,-1.283,-0.9
2483.0,-8.615,-0.323,0.169,0.102,-1.283,-0.9
2487.0,-8.208,-0.121,-0.492,0.089,-1.394,-1.075
2491.0,-8.208,-0.121,-0.492,0.089,-1.394,-1.075
2495.0,-8.08,0.075,-1.058,0.089,-1.394,-1.075
2499.0,-8.08,0.075,-1.058,0.041,-1.43,-1.259
2503.0,-8.08,0.075,-1.058,0.041,-1.43,-1.259
2507.0,-8.246,0.228,-1.423,-0.043,-1.385,-1.428
2511.0,-8.246,0.228,-1.423,-0.043,-1.385,-1.428
2515.0,-8.785,0.332,-1.624,-0.043,-1.26,-1.566
2519.0,-8.785,0.332,-1.624,-0.159,-1.26,-1.566
2523.0,-8.785,0.332,-1.624,-0.159,-1.26,-1.566
2527.0,-9.907,0.492,-1.576,-0.299,-1.053,-1.662
2531.0,-9.907,0.492,-1.576,-0.299,-1.053,-1.662
2535.0,-11.002,0.561,-1.214,-0.46,-0.789,-1.684
2539.0,-11.002,0.561,-1.214,-0.46,-0.789,-1.684
2544.0,-11.002,0.561,-1.214,-0.46,-0.789,-1.684
2548.0,-11.65,0.515,-0.316,-0.644,-0.522,-1.613
2552.0,-11.65,0.515,-0.316,-0.644,-0.522,-1.613
2556.0,-11.817,0.233,0.709,-0.845,-0.291,-1.441
2560.0,-11.817,0.233,0.709,-0.845,-0.291,-1.441
2564.0,-11.547,-0.307,1.631,-0.845,-0.11,-1.184
2568.0,-11.547,-0.307,1.631,-1.046,-0.11,-1.184
2573.0,-11.547,-0.307,1.631,-1.046,-0.11,-1.184
2577.0,-10.858,-0.988,2.209,-1.22,-0.003,-0.894
2581.0,-10.858,-0.988,2.209,-1.22,-0.003,-0.894
2585.0,-10.045,-1.618,2.423,-1.346,0.035,-0.65
2589.0,-10.045,-1.618,2.423,-1.346,0.035,-0.65
2593.0,-10.045,-2.066,2.387,-1.346,0.035,-0.65
2597.0,-9.345,-2.066,2.387,-1.419,0.034,-0.494
2601.0,-9.345,-2.066,2.387,-1.419,0.034,-0.494
2605.0,-8.673,-2.27,2.198,-1.444,0.024,-0.414
2609.0,-8.673,-2.27,2.198,-1.444,0.024,-0.414
2613.0,-8.112,-2.309,1.935,-1.444,0.024,-0.414
2617.0,-8.112,-2.309,1.935,-1.428,0.021,-0.368
2621.0,-8.112,-2.309,1.935,-1.428,0.021,-0.368
2625.0,-7.731,-2.169,1.56,-1.378,0.031,-0.329
2629.0,-7.731,-2.169,1.56,-1.378,0.031,-0.329
2633.0,-7.46,-1.937,1.251,-1.378,0.031,-0.286
2637.0,-7.46,-1.937,1.251,-1.302,0.047,-0.286
2641.0,-7.46,-1.937,1.251,-1.302,0.047,-0.286
2645.0,-7.155,-1.711,1.069,-1.195,0.054,-0.24
2649.0,-7.155,-1.711,1.069,-1.195,0.054,-0.24
2653.0,-6.842,-1.532,0.875,-1.054,0.043,-0.204
2657.0,-6.842,-1.532,0.875,-1.054,0.043,-0.204
2661.0,-6.842,-1.532,0.875,-1.054,0.043,-0.204
2665.0,-6.585,-1.375,0.664,-0.878,0.029,-0.186
2669.0,-6.585,-1.375,0.664,-0.878,0.029,-0.186
2673.0,-6.51,-1.205,0.412,-0.676,0.032,-0.175
2677.0,-6.51,-1.205,0.412,-0.676,0.032,-0.175
2681.0,-6.51,-1.205,0.412,-0.676,0.032,-0.175
2685.0,-6.696,-1.031,0.144,-0.468,0.068,-0.139
2689.0,-6.696,-1.031,0.144,-0.468,0.068,-0.139
2693.0,-7.226,-0.938,-0.018,-0.267,0.147,-0.047
2697.0,-7.226,-0.938,-0.018,-0.267,0.147,-0.047
2701.0,-7.226,-0.938,-0.018,-0.267,0.147,-0.047
2705.0,-7.953,-0.971,0.038,-0.081,0.266,0.106
2709.0,-7.953,-0.971,0.038,-0.081,0.266,0.106
2713.0,-8.804,-1.162,0.343,0.087,0.396,0.302
2717.0,-8.804,-1.162,0.343,0.087,0.396,0.302
2721.0,-8.804,-1.162,0.343,0.087,0.396,0.302
2725.0,-9.767,-1.426,0.778,0.237,0.502,0.52
2729.0,-9.767,-1.426,0.778,0.237,0.502,0.52
2732.0,-10.682,-1.676,1.282,0.369,0.562,0.735
2736.0,-10.682,-1.676,1.282,0.369,0.562,0.735
2740.0,-10.682,-1.676,1.282,0.369,0.562,0.735
2744.0,-11.266,-1.847,1.737,0.481,0.555,0.933
2748.0,-11.266,-1.847,1.737,0.481,0.555,0.933
2752.0,-11.259,-1.892,2.032,0.481,0.485,1.091
2756.0,-11.259,-1.892,2.032,0.565,0.485,1.091
2760.0,-11.259,-1.892,2.032,0.565,0.485,1.091
2764.0,-10.827,-1.847,2.048,0.613,0.379,1.189
2768.0,-10.827,-1.847,2.048,0.613,0.379,1.189
2771.0,-10.404,-1.693,1.725,0.613,0.379,1.227
2775.0,-10.404,-1.693,1.725,0.616,0.287,1.227
2779.0,-10.404,-1.693,1.725,0.616,0.287,1.227
2783.0,-10.254,-1.376,1.214,0.58,0.252,1.218
2787.0,-10.254,-1.376,1.214,0.58,0.252,1.218
2791.0,-10.295,-1.034,0.739,0.58,0.252,1.218
2795.0,-10.295,-1.034,0.739,0.506,0.286,1.193
2799.0,-10.295,-1.034,0.739,0.506,0.286,1.193
2803.0,-10.424,-0.735,0.431,0.399,0.37,1.17
2807.0,-10.424,-0.735,0.431,0.399,0.37,1.17
2810.0,-10.424,-0.552,0.324,0.399,0.37,1.17
2814.0,-10.46,-0.552,0.324,0.273,0.479,1.153
2818.0,-10.46,-0.552,0.324,0.273,0.479,1.153
2822.0,-10.353,-0.427,0.4,0.147,0.589,1.133
2826.0,-10.353,-0.427,0.4,0.147,0.589,1.133
2830.0,-10.353,-0.427,0.535,0.147,0.589,1.133
2834.0,-10.224,-0.354,0.535,0.036,0.686,1.1
2838.0,-10.224,-0.354,0.535,0.036,0.686,1.1
2842.0,-10.188,-0.332,0.692,-0.056,0.771,1.056
2846.0,-10.188,-0.332,0.692,-0.056,0.771,1.056
2850.0,-10.188,-0.332,0.889,-0.056,0.771,1.056
2854.0,-10.267,-0.337,0.889,-0.126,0.848,1.01
2858.0,-10.267,-0.337,0.889,-0.126,0.848,1.01
2862.0,-10.447,-0.406,1.114,-0.172,0.917,0.978
2866.0,-10.447,-0.406,1.114,-0.172,0.917,0.978
2870.0,-10.447,-0.555,1.344,-0.172,0.917,0.978
2874.0,-10.695,-0.555,1.344,-0.196,0.973,0.966
2878.0,-10.695,-0.555,1.344,-0.196,0.973,0.966
2882.0,-10.749,-0.8,1.59,-0.199,1.006,0.973
2886.0,-10.749,-0.8,1.59,-0.199,1.006,0.973
2890.0,-10.686,-1.061,1.764,-0.199,1.006,0.973
2894.0,-10.686,-1.061,1.764,-0.186,1.001,0.988
2898.0,-10.686,-1.061,1.764,-0.186,1.001,0.988
2902.0,-10.554,-1.347,1.811,-0.156,0.962,0.997
2906.0,-10.554,-1.347,1.811,-0.156,0.962,0.997
2910.0,-10.377,-1.563,1.742,-0.156,0.962,0.99
2914.0,-10.377,-1.563,1.742,-0.11,0.898,0.99
2918.0,-10.377,-1.563,1.742,-0.11,0.898,0.99
2922.0,-10.153,-1.711,1.594,-0.052,0.818,0.967
2926.0,-10.153,-1.711,1.594,-0.052,0.818,0.967
2930.0,-9.91,-1.801,1.388,-0.052,0.737,0.933
2933.0,-9.91,-1.801,1.388,0.014,0.737,0.933
2937.0,-9.91,-1.801,1.388,0.014,0.737,0.933
2941.0,-9.767,-1.798,1.163,0.083,0.669,0.897
2945.0,-9.767,-1.798,1.163,0.083,0.669,0.897
2949.0,-9.767,-1.764,1.021,0.083,0.669,0.897
2953.0,-9.779,-1.764,1.021,0.154,0.622,0.868
2956.0,-9.779,-1.764,1.021,0.154,0.622,0.868
2960.0,-9.921,-1.716,0.928,0.23,0.586,0.855
2964.0,-9.921,-1.716,0.928,0.23,0.586,0.855
2968.0,-9.921,-1.716,0.928,0.23,0.586,0.855
2972.0,-10.178,-1.682,0.906,0.31,0.556,0.856
2976.0,-10.178,-1.682,0.906,0.31,0.556,0.856
2979.0,-10.548,-1.651,0.955,0.395,0.529,0.872
2983.0,-10.548,-1.651,0.955,0.395,0.529,0.872
2987.0,-10.548,-1.651,0.955,0.395,0.529,0.872
2991.0,-11.054,-1.679,1.089,0.487,0.502,0.897
2995.0,-11.054,-1.679,1.089,0.487,0.502,0.897
2999.0,-11.53,-1.679,1.272,0.577,0.462,0.928
