deltaTime,Acc_X,Acc_Y,Acc_Z,Gyro_X,Gyro_Y,Gyro_Z
0.0,-7.291,-3.424,2.102,-0.45,-0.281,0.385
3.0,-7.291,-3.424,2.102,-0.45,-0.281,0.385
6.0,-7.291,-3.424,2.102,-0.45,-0.281,0.385
9.0,-7.101,-2.599,2.185,-0.45,-0.281,0.385
12.0,-7.101,-2.599,2.185,-0.313,-0.238,0.366
15.0,-7.101,-2.599,2.185,-0.313,-0.238,0.366
18.0,-7.101,-2.599,2.185,-0.313,-0.238,0.366
21.0,-7.128,-1.992,2.282,-0.283,-0.209,0.358
24.0,-7.128,-1.992,2.282,-0.283,-0.209,0.358
27.0,-7.128,-1.992,2.282,-0.283,-0.209,0.358
30.0,-7.213,-1.85,2.428,-0.311,-0.226,0.382
33.0,-7.213,-1.85,2.428,-0.311,-0.226,0.382
37.0,-7.213,-1.85,2.428,-0.311,-0.226,0.382
41.0,-7.1,-1.897,2.419,-0.327,-0.271,0.443
45.0,-7.1,-1.897,2.419,-0.327,-0.271,0.443
49.0,-6.974,-1.817,2.337,-0.327,-0.271,0.443
52.0,-6.974,-1.817,2.337,-0.35,-0.321,0.501
56.0,-6.974,-1.817,2.337,-0.35,-0.321,0.501
60.0,-6.797,-1.686,2.221,-0.416,-0.363,0.54
64.0,-6.797,-1.686,2.221,-0.416,-0.363,0.54
68.0,-6.797,-1.686,2.221,-0.416,-0.363,0.54
72.0,-6.449,-1.695,2.164,-0.511,-0.392,0.588
75.0,-6.449,-1.695,2.164,-0.511,-0.392,0.588
79.0,-6.377,-1.715,2.055,-0.606,-0.403,0.649
83.0,-6.377,-1.715,2.055,-0.606,-0.403,0.649
87.0,-6.377,-1.715,2.055,-0.606,-0.403,0.649
91.0,-6.293,-1.85,2.137,-0.685,-0.412,0.701
94.0,-6.293,-1.85,2.137,-0.685,-0.412,0.701
98.0,-6.357,-1.941,2.216,-0.685,-0.412,0.751
102.0,-6.357,-1.941,2.216,-0.731,-0.419,0.751
106.0,-6.357,-1.941,2.216,-0.731,-0.419,0.751
110.0,-6.434,-1.777,2.253,-0.774,-0.435,0.788
114.0,-6.434,-1.777,2.253,-0.774,-0.435,0.788
118.0,-6.489,-1.751,2.221,-0.774,-0.435,0.788
122.0,-6.489,-1.751,2.221,-0.849,-0.468,0.813
126.0,-6.489,-1.751,2.221,-0.849,-0.468,0.813
129.0,-6.568,-1.778,2.079,-0.946,-0.5,0.837
133.0,-6.568,-1.778,2.079,-0.946,-0.5,0.837
137.0,-6.568,-1.761,1.921,-0.946,-0.5,0.837
141.0,-6.779,-1.761,1.921,-1.064,-0.522,0.851
145.0,-6.779,-1.761,1.921,-1.064,-0.522,0.851
149.0,-6.974,-1.781,1.866,-1.193,-0.538,0.841
153.0,-6.974,-1.781,1.866,-1.193,-0.538,0.841
157.0,-6.974,-1.781,1.808,-1.193,-0.538,0.841
161.0,-6.89,-2.118,1.808,-1.302,-0.554,0.842
165.0,-6.89,-2.118,1.808,-1.302,-0.554,0.842
169.0,-6.72,-2.501,1.721,-1.342,-0.563,0.865
172.0,-6.72,-2.501,1.721,-1.342,-0.563,0.865
176.0,-6.72,-2.501,1.721,-1.342,-0.563,0.865
180.0,-6.584,-2.5,1.574,-1.32,-0.564,0.866
184.0,-6.584,-2.5,1.574,-1.32,-0.564,0.866
188.0,-6.552,-2.21,1.527,-1.308,-0.566,0.824
192.0,-6.552,-2.21,1.527,-1.308,-0.566,0.824
196.0,-6.552,-2.21,1.527,-1.308,-0.566,0.824
200.0,-6.471,-2.152,1.568,-1.34,-0.561,0.759
204.0,-6.471,-2.152,1.568,-1.34,-0.561,0.759
208.0,-6.373,-2.139,1.643,-1.367,-0.563,0.706
211.0,-6.373,-2.139,1.643,-1.367,-0.563,0.706
215.0,-6.373,-2.139,1.643,-1.367,-0.563,0.706
219.0,-6.291,-2.063,1.883,-1.39,-0.579,0.654
223.0,-6.291,-2.063,1.883,-1.39,-0.579,0.654
227.0,-6.096,-2.071,2.258,-1.399,-0.576,0.607
231.0,-6.096,-2.071,2.258,-1.399,-0.576,0.607
235.0,-6.096,-2.071,2.258,-1.399,-0.576,0.607
239.0,-6.08,-1.94,2.484,-1.393,-0.554,0.563
243.0,-6.08,-1.94,2.484,-1.393,-0.554,0.563
247.0,-6.304,-1.718,2.669,-1.425,-0.533,0.504
251.0,-6.304,-1.718,2.669,-1.425,-0.533,0.504
254.0,-6.304,-1.718,2.669,-1.425,-0.533,0.504
258.0,-6.761,-1.465,2.835,-1.505,-0.519,0.449
262.0,-6.761,-1.465,2.835,-1.505,-0.519,0.449
266.0,-7.354,-1.373,2.948,-1.505,-0.501,0.412
270.0,-7.354,-1.373,2.948,-1.647,-0.501,0.412
274.0,-7.354,-1.373,2.948,-1.647,-0.501,0.412
278.0,-7.921,-1.494,3.105,-1.822,-0.493,0.406
282.0,-7.921,-1.494,3.105,-1.822,-0.493,0.406
286.0,-8.398,-1.646,3.227,-1.822,-0.493,0.43
290.0,-8.398,-1.646,3.227,-2.004,-0.491,0.43
294.0,-8.398,-1.646,3.227,-2.004,-0.491,0.43
297.0,-8.959,-2.052,3.314,-2.164,-0.468,0.477
301.0,-8.959,-2.052,3.314,-2.164,-0.468,0.477
305.0,-9.497,-2.341,3.211,-2.164,-0.468,0.477
309.0,-9.497,-2.341,3.211,-2.259,-0.434,0.53
313.0,-9.497,-2.341,3.211,-2.259,-0.434,0.53
317.0,-9.916,-2.398,3.084,-2.313,-0.388,0.564
321.0,-9.916,-2.398,3.084,-2.313,-0.388,0.564
325.0,-9.916,-2.398,3.111,-2.313,-0.388,0.564
329.0,-10.283,-2.434,3.111,-2.353,-0.3,0.592
333.0,-10.283,-2.434,3.111,-2.353,-0.3,0.592
337.0,-10.607,-2.416,3.36,-2.38,-0.183,0.634
341.0,-10.607,-2.416,3.36,-2.38,-0.183,0.634
345.0,-10.607,-2.421,3.677,-2.38,-0.183,0.634
349.0,-10.925,-2.421,3.677,-2.396,-0.068,0.696
353.0,-10.925,-2.421,3.677,-2.396,-0.068,0.696
357.0,-11.103,-2.523,3.997,-2.396,0.03,0.777
361.0,-11.103,-2.523,3.997,-2.396,0.03,0.777
364.0,-11.085,-2.717,4.21,-2.396,0.03,0.777
368.0,-11.085,-2.717,4.21,-2.375,0.105,0.852
372.0,-11.085,-2.717,4.21,-2.375,0.105,0.852
376.0,-10.923,-2.901,4.276,-2.334,0.165,0.911
380.0,-10.923,-2.901,4.276,-2.334,0.165,0.911
384.0,-10.923,-2.901,4.349,-2.334,0.165,0.911
388.0,-10.771,-3.066,4.349,-2.278,0.231,0.953
392.0,-10.771,-3.066,4.349,-2.278,0.231,0.953
396.0,-10.78,-3.211,4.485,-2.206,0.303,0.991
400.0,-10.78,-3.211,4.485,-2.206,0.303,0.991
403.0,-10.78,-3.211,4.485,-2.206,0.303,0.991
407.0,-10.943,-3.295,4.533,-2.114,0.375,1.043
411.0,-10.943,-3.295,4.533,-2.114,0.375,1.043
415.0,-11.252,-3.391,4.432,-2.006,0.437,1.125
419.0,-11.252,-3.391,4.432,-2.006,0.437,1.125
423.0,-11.252,-3.391,4.432,-2.006,0.437,1.125
427.0,-11.578,-3.54,4.242,-1.893,0.487,1.236
431.0,-11.578,-3.54,4.242,-1.893,0.487,1.236
435.0,-11.824,-3.67,3.98,-1.784,0.525,1.372
439.0,-11.824,-3.67,3.98,-1.784,0.525,1.372
443.0,-11.824,-3.67,3.98,-1.784,0.525,1.372
446.0,-11.971,-3.837,3.711,-1.69,0.559,1.529
450.0,-11.971,-3.837,3.711,-1.69,0.559,1.529
454.0,-12.21,-4.134,3.421,-1.614,0.606,1.696
458.0,-12.21,-4.134,3.421,-1.614,0.606,1.696
462.0,-12.21,-4.134,3.421,-1.614,0.606,1.696
466.0,-12.681,-4.457,3.159,-1.557,0.676,1.867
470.0,-12.681,-4.457,3.159,-1.557,0.676,1.867
474.0,-13.464,-4.8,3.001,-1.52,0.771,2.044
478.0,-13.464,-4.8,3.001,-1.52,0.771,2.044
482.0,-13.464,-4.8,3.001,-1.52,0.771,2.044
486.0,-14.455,-5.122,2.985,-1.502,0.868,2.229
489.0,-14.455,-5.122,2.985,-1.502,0.868,2.229
493.0,-15.336,-5.355,3.098,-1.502,0.937,2.411
497.0,-15.336,-5.355,3.098,-1.492,0.937,2.411
501.0,-15.336,-5.355,3.098,-1.492,0.937,2.411
505.0,-15.716,-5.448,3.266,-1.475,0.952,2.571
509.0,-15.716,-5.448,3.266,-1.475,0.952,2.571
513.0,-15.407,-5.495,3.503,-1.475,0.952,2.682
517.0,-15.407,-5.495,3.503,-1.438,0.905,2.682
521.0,-15.407,-5.495,3.503,-1.438,0.905,2.682
525.0,-14.645,-5.478,3.698,-1.364,0.8,2.719
528.0,-14.645,-5.478,3.698,-1.364,0.8,2.719
532.0,-13.689,-5.349,3.69,-1.364,0.8,2.719
536.0,-13.689,-5.349,3.69,-1.243,0.65,2.673
540.0,-13.689,-5.349,3.69,-1.243,0.65,2.673
544.0,-12.705,-5.121,3.446,-1.078,0.478,2.551
548.0,-12.705,-5.121,3.446,-1.078,0.478,2.551
552.0,-12.705,-4.833,3.041,-1.078,0.478,2.551
556.0,-11.823,-4.833,3.041,-0.881,0.314,2.367
560.0,-11.823,-4.833,3.041,-0.881,0.314,2.367
564.0,-11.35,-4.57,2.495,-0.665,0.183,2.145
568.0,-11.35,-4.57,2.495,-0.665,0.183,2.145
571.0,-11.35,-4.57,1.958,-0.665,0.183,2.145
575.0,-11.353,-4.369,1.958,-0.442,0.094,1.92
579.0,-11.353,-4.369,1.958,-0.442,0.094,1.92
583.0,-11.788,-4.233,1.613,-0.222,0.041,1.723
587.0,-11.788,-4.233,1.613,-0.222,0.041,1.723
591.0,-11.788,-4.233,1.613,-0.222,0.041,1.723
595.0,-12.457,-4.241,1.496,-0.013,-0.001,1.562
599.0,-12.457,-4.241,1.496,-0.013,-0.001,1.562
603.0,-13.005,-4.325,1.529,0.184,-0.058,1.428
607.0,-13.005,-4.325,1.529,0.184,-0.058,1.428
611.0,-13.005,-4.325,1.529,0.184,-0.058,1.428
615.0,-13.225,-4.406,1.53,0.371,-0.153,1.302
619.0,-13.225,-4.406,1.53,0.371,-0.153,1.302
622.0,-13.002,-4.33,1.457,0.539,-0.281,1.158
626.0,-13.002,-4.33,1.457,0.539,-0.281,1.158
630.0,-13.002,-4.33,1.457,0.539,-0.281,1.158
634.0,-12.388,-4.006,1.248,0.678,-0.419,0.989
638.0,-12.388,-4.006,1.248,0.678,-0.419,0.989
642.0,-11.494,-3.578,0.942,0.777,-0.533,0.802
646.0,-11.494,-3.578,0.942,0.777,-0.533,0.802
650.0,-11.494,-3.578,0.942,0.777,-0.533,0.802
654.0,-10.577,-3.112,0.737,0.828,-0.606,0.602
658.0,-10.577,-3.112,0.737,0.828,-0.606,0.602
661.0,-9.777,-2.661,0.583,0.836,-0.634,0.402
665.0,-9.777,-2.661,0.583,0.836,-0.634,0.402
669.0,-9.777,-2.661,0.583,0.836,-0.634,0.402
673.0,-9.161,-2.258,0.514,0.803,-0.627,0.217
677.0,-9.161,-2.258,0.514,0.803,-0.627,0.217
681.0,-8.706,-1.981,0.559,0.803,-0.627,0.054
684.0,-8.706,-1.981,0.559,0.732,-0.603,0.054
688.0,-8.706,-1.981,0.559,0.732,-0.603,0.054
692.0,-8.442,-1.919,0.653,0.626,-0.576,-0.079
696.0,-8.442,-1.919,0.653,0.626,-0.576,-0.079
700.0,-8.442,-1.919,0.714,0.626,-0.576,-0.079
704.0,-8.291,-2.033,0.714,0.49,-0.555,-0.186
708.0,-8.291,-2.033,0.714,0.49,-0.555,-0.186
712.0,-8.158,-2.305,0.733,0.342,-0.547,-0.275
715.0,-8.158,-2.305,0.733,0.342,-0.547,-0.275
719.0,-8.158,-2.305,0.733,0.342,-0.547,-0.275
723.0,-8.0,-2.766,0.706,0.207,-0.553,-0.36
727.0,-8.0,-2.766,0.706,0.207,-0.553,-0.36
731.0,-7.724,-3.199,0.72,0.107,-0.569,-0.456
735.0,-7.724,-3.199,0.72,0.107,-0.569,-0.456
739.0,-7.724,-3.199,0.72,0.107,-0.569,-0.456
743.0,-7.403,-3.582,0.665,0.049,-0.582,-0.562
747.0,-7.403,-3.582,0.665,0.049,-0.582,-0.562
751.0,-7.029,-3.876,0.564,0.026,-0.585,-0.666
755.0,-7.029,-3.876,0.564,0.026,-0.585,-0.666
758.0,-7.029,-3.876,0.564,0.026,-0.585,-0.666
762.0,-6.634,-4.059,0.451,0.035,-0.575,-0.768
766.0,-6.634,-4.059,0.451,0.035,-0.575,-0.768
770.0,-6.25,-4.138,0.401,0.073,-0.553,-0.863
774.0,-6.25,-4.138,0.401,0.073,-0.553,-0.863
778.0,-6.25,-4.138,0.401,0.073,-0.553,-0.863
782.0,-5.964,-4.249,0.39,0.139,-0.522,-0.958
786.0,-5.964,-4.249,0.39,0.139,-0.522,-0.958
790.0,-5.771,-4.344,0.356,0.23,-0.49,-1.051
794.0,-5.771,-4.344,0.356,0.23,-0.49,-1.051
798.0,-5.771,-4.344,0.356,0.23,-0.49,-1.051
801.0,-5.651,-4.434,0.285,0.343,-0.457,-1.142
805.0,-5.651,-4.434,0.285,0.343,-0.457,-1.142
809.0,-5.591,-4.548,0.255,0.343,-0.424,-1.233
813.0,-5.591,-4.548,0.255,0.474,-0.424,-1.233
817.0,-5.591,-4.548,0.255,0.474,-0.424,-1.233
821.0,-5.571,-4.652,0.234,0.613,-0.388,-1.328
825.0,-5.571,-4.652,0.234,0.613,-0.388,-1.328
829.0,-5.605,-4.736,0.272,0.613,-0.388,-1.426
833.0,-5.605,-4.736,0.272,0.755,-0.356,-1.426
837.0,-5.605,-4.736,0.272,0.755,-0.356,-1.426
840.0,-5.76,-4.807,0.397,0.89,-0.338,-1.529
844.0,-5.76,-4.807,0.397,0.89,-0.338,-1.529
848.0,-6.076,-4.948,0.595,0.89,-0.338,-1.529
852.0,-6.076,-4.948,0.595,1.007,-0.348,-1.646
856.0,-6.076,-4.948,0.595,1.007,-0.348,-1.646
860.0,-6.519,-5.109,0.748,1.09,-0.396,-1.792
864.0,-6.519,-5.109,0.748,1.09,-0.396,-1.792
868.0,-6.519,-5.231,0.686,1.09,-0.396,-1.792
872.0,-6.989,-5.231,0.686,1.128,-0.481,-1.977
876.0,-6.989,-5.231,0.686,1.128,-0.481,-1.977
880.0,-7.32,-5.187,0.414,1.117,-0.579,-2.187
883.0,-7.32,-5.187,0.414,1.117,-0.579,-2.187
887.0,-7.32,-5.187,0.075,1.117,-0.579,-2.187
891.0,-7.46,-4.985,0.075,1.063,-0.657,-2.398
895.0,-7.46,-4.985,0.075,1.063,-0.657,-2.398
899.0,-7.449,-4.635,-0.178,0.976,-0.69,-2.578
903.0,-7.449,-4.635,-0.178,0.976,-0.69,-2.578
907.0,-7.449,-4.635,-0.299,0.976,-0.69,-2.578
911.0,-7.397,-4.287,-0.299,0.87,-0.672,-2.703
915.0,-7.397,-4.287,-0.299,0.87,-0.672,-2.703
919.0,-7.357,-4.04,-0.31,0.755,-0.614,-2.761
923.0,-7.357,-4.04,-0.31,0.755,-0.614,-2.761
927.0,-7.357,-3.968,-0.214,0.755,-0.614,-2.761
931.0,-7.385,-3.968,-0.214,0.647,-0.532,-2.745
935.0,-7.385,-3.968,-0.214,0.647,-0.532,-2.745
939.0,-7.456,-4.031,-0.025,0.56,-0.443,-2.664
943.0,-7.456,-4.031,-0.025,0.56,-0.443,-2.664
947.0,-7.499,-4.342,0.242,0.56,-0.443,-2.664
951.0,-7.499,-4.342,0.242,0.508,-0.357,-2.533
955.0,-7.499,-4.342,0.242,0.508,-0.357,-2.533
959.0,-7.539,-4.844,0.527,0.485,-0.288,-2.39
963.0,-7.539,-4.844,0.527,0.485,-0.288,-2.39
967.0,-7.539,-5.37,0.75,0.485,-0.288,-2.39
970.0,-7.607,-5.37,0.75,0.482,-0.241,-2.268
974.0,-7.607,-5.37,0.75,0.482,-0.241,-2.268
978.0,-7.692,-5.882,0.907,0.495,-0.214,-2.18
982.0,-7.692,-5.882,0.907,0.495,-0.214,-2.18
986.0,-7.692,-5.882,0.973,0.495,-0.214,-2.18
990.0,-7.806,-6.248,0.973,0.519,-0.202,-2.118
994.0,-7.806,-6.248,0.973,0.519,-0.202,-2.118
998.0,-7.92,-6.545,1.041,0.548,-0.196,-2.066
1002.0,-7.92,-6.545,1.041,0.548,-0.196,-2.066
1006.0,-7.92,-6.545,1.041,0.548,-0.196,-2.066
1010.0,-8.076,-6.694,1.033,0.578,-0.184,-2.011
1014.0,-8.076,-6.694,1.033,0.578,-0.184,-2.011
1018.0,-8.258,-6.77,1.013,0.607,-0.162,-1.932
1022.0,-8.258,-6.77,1.013,0.607,-0.162,-1.932
1026.0,-8.258,-6.77,1.015,0.607,-0.162,-1.932
1030.0,-8.477,-6.907,1.015,0.636,-0.125,-1.822
1034.0,-8.477,-6.907,1.015,0.636,-0.125,-1.822
1038.0,-8.796,-7.125,1.077,0.667,-0.079,-1.69
1042.0,-8.796,-7.125,1.077,0.667,-0.079,-1.69
1046.0,-9.286,-7.369,1.062,0.667,-0.079,-1.69
1050.0,-9.286,-7.369,1.062,0.706,-0.034,-1.541
1054.0,-9.286,-7.369,1.062,0.706,-0.034,-1.541
1058.0,-9.931,-7.547,1.023,0.752,0.005,-1.377
1061.0,-9.931,-7.547,1.023,0.752,0.005,-1.377
1065.0,-10.594,-7.653,0.96,0.752,0.005,-1.377
1069.0,-10.594,-7.653,0.96,0.806,0.036,-1.201
1073.0,-10.594,-7.653,0.96,0.806,0.036,-1.201
1077.0,-11.062,-7.661,0.969,0.866,0.053,-1.024
1081.0,-11.062,-7.661,0.969,0.866,0.053,-1.024
1085.0,-11.329,-7.539,1.001,0.866,0.053,-0.866
1089.0,-11.329,-7.539,1.001,0.927,0.053,-0.866
1093.0,-11.329,-7.539,1.001,0.927,0.053,-0.866
1097.0,-11.705,-7.328,0.979,0.978,0.047,-0.73
1101.0,-11.705,-7.328,0.979,0.978,0.047,-0.73
1105.0,-12.349,-7.079,0.881,0.978,0.048,-0.595
1109.0,-12.349,-7.079,0.881,1.004,0.048,-0.595
1113.0,-12.349,-7.079,0.881,1.004,0.048,-0.595
1117.0,-13.201,-6.837,0.747,0.998,0.062,-0.444
1121.0,-13.201,-6.837,0.747,0.998,0.062,-0.444
1125.0,-14.069,-6.642,0.633,0.955,0.087,-0.27
1129.0,-14.069,-6.642,0.633,0.955,0.087,-0.27
1133.0,-14.069,-6.642,0.633,0.955,0.087,-0.27
1137.0,-14.698,-6.377,0.539,0.883,0.123,-0.091
1141.0,-14.698,-6.377,0.539,0.883,0.123,-0.091
1145.0,-14.891,-6.035,0.491,0.792,0.169,0.067
1149.0,-14.891,-6.035,0.491,0.792,0.169,0.067
1153.0,-14.891,-6.035,0.491,0.792,0.169,0.067
1157.0,-14.617,-5.629,0.563,0.69,0.224,0.181
1161.0,-14.617,-5.629,0.563,0.69,0.224,0.181
1165.0,-14.041,-5.192,0.736,0.592,0.282,0.24
1169.0,-14.041,-5.192,0.736,0.592,0.282,0.24
1173.0,-14.041,-5.192,0.736,0.592,0.282,0.24
1176.0,-13.356,-4.707,0.951,0.515,0.341,0.242
1180.0,-13.356,-4.707,0.951,0.515,0.341,0.242
1184.0,-12.653,-4.222,1.199,0.515,0.393,0.193
1188.0,-12.653,-4.222,1.199,0.474,0.393,0.193
1192.0,-12.653,-4.222,1.199,0.474,0.393,0.193
1196.0,-11.944,-3.736,1.445,0.477,0.425,0.105
1200.0,-11.944,-3.736,1.445,0.477,0.425,0.105
1204.0,-11.244,-3.29,1.716,0.477,0.425,-0.016
1208.0,-11.244,-3.29,1.716,0.527,0.432,-0.016
1212.0,-11.244,-3.29,1.716,0.527,0.432,-0.016
1216.0,-10.603,-2.89,1.9,0.625,0.413,-0.163
1220.0,-10.603,-2.89,1.9,0.625,0.413,-0.163
1224.0,-10.116,-2.532,1.942,0.625,0.367,-0.326
1228.0,-10.116,-2.532,1.942,0.762,0.367,-0.326
1232.0,-10.116,-2.532,1.942,0.762,0.367,-0.326
1236.0,-9.894,-2.149,1.792,0.921,0.298,-0.489
1240.0,-9.894,-2.149,1.792,0.921,0.298,-0.489
1244.0,-10.064,-1.784,1.459,1.074,0.229,-0.621
1248.0,-10.064,-1.784,1.459,1.074,0.229,-0.621
1252.0,-10.064,-1.784,1.459,1.074,0.229,-0.621
1256.0,-10.499,-1.506,1.092,1.199,0.178,-0.694
1260.0,-10.499,-1.506,1.092,1.199,0.178,-0.694
1264.0,-10.979,-1.335,0.785,1.285,0.156,-0.696
1268.0,-10.979,-1.335,0.785,1.285,0.156,-0.696
1272.0,-10.979,-1.335,0.785,1.285,0.156,-0.696
1276.0,-11.401,-1.266,0.632,1.333,0.167,-0.628
1280.0,-11.401,-1.266,0.632,1.333,0.167,-0.628
1284.0,-11.669,-1.295,0.642,1.344,0.2,-0.499
1288.0,-11.669,-1.295,0.642,1.344,0.2,-0.499
1292.0,-11.669,-1.295,0.642,1.344,0.2,-0.499
1296.0,-11.721,-1.352,0.763,1.324,0.24,-0.323
1299.0,-11.721,-1.352,0.763,1.324,0.24,-0.323
1303.0,-11.468,-1.402,0.961,1.278,0.275,-0.124
1307.0,-11.468,-1.402,0.961,1.278,0.275,-0.124
1311.0,-11.468,-1.402,0.961,1.278,0.275,-0.124
1315.0,-10.953,-1.399,1.23,1.212,0.299,0.07
1319.0,-10.953,-1.399,1.23,1.212,0.299,0.07
1323.0,-10.4,-1.336,1.487,1.129,0.302,0.236
1327.0,-10.4,-1.336,1.487,1.129,0.302,0.236
1331.0,-10.4,-1.336,1.487,1.129,0.302,0.236
1335.0,-9.927,-1.204,1.677,1.039,0.281,0.36
1339.0,-9.927,-1.204,1.677,1.039,0.281,0.36
1343.0,-9.569,-1.011,1.782,0.942,0.239,0.453
1346.0,-9.569,-1.011,1.782,0.942,0.239,0.453
1350.0,-9.569,-1.011,1.782,0.942,0.239,0.453
1354.0,-9.263,-0.763,1.784,0.837,0.181,0.533
1358.0,-9.263,-0.763,1.784,0.837,0.181,0.533
1362.0,-9.025,-0.489,1.654,0.837,0.181,0.622
1366.0,-9.025,-0.489,1.654,0.723,0.122,0.622
1369.0,-9.025,-0.489,1.654,0.723,0.122,0.622
1373.0,-8.848,-0.266,1.449,0.594,0.071,0.734
1377.0,-8.848,-0.266,1.449,0.594,0.071,0.734
1381.0,-8.848,-0.266,1.243,0.594,0.071,0.734
1385.0,-8.743,-0.103,1.243,0.45,0.035,0.871
1388.0,-8.743,-0.103,1.243,0.45,0.035,0.871
1392.0,-8.693,-0.041,1.052,0.291,0.01,1.028
1396.0,-8.693,-0.041,1.052,0.291,0.01,1.028
1400.0,-8.693,-0.041,1.052,0.291,0.01,1.028
1404.0,-8.672,-0.054,0.903,0.12,-0.007,1.19
1408.0,-8.672,-0.054,0.903,0.12,-0.007,1.19
1412.0,-8.673,-0.159,0.849,-0.064,-0.027,1.344
1416.0,-8.673,-0.159,0.849,-0.064,-0.027,1.344
1420.0,-8.673,-0.159,0.849,-0.064,-0.027,1.344
1424.0,-8.788,-0.331,0.852,-0.261,-0.057,1.475
1428.0,-8.788,-0.331,0.852,-0.261,-0.057,1.475
1432.0,-9.018,-0.589,0.91,-0.471,-0.099,1.574
1436.0,-9.018,-0.589,0.91,-0.471,-0.099,1.574
1440.0,-9.018,-0.589,0.91,-0.471,-0.099,1.574
1444.0,-9.261,-0.927,1.165,-0.694,-0.162,1.639
1447.0,-9.261,-0.927,1.165,-0.694,-0.162,1.639
1451.0,-9.555,-1.338,1.501,-0.924,-0.256,1.662
1455.0,-9.555,-1.338,1.501,-0.924,-0.256,1.662
1459.0,-9.555,-1.338,1.501,-0.924,-0.256,1.662
1463.0,-9.846,-1.636,1.765,-1.15,-0.379,1.645
1467.0,-9.846,-1.636,1.765,-1.15,-0.379,1.645
1471.0,-10.061,-1.767,1.891,-1.365,-0.53,1.609
1476.0,-10.061,-1.767,1.891,-1.365,-0.53,1.609
1480.0,-10.061,-1.767,1.814,-1.365,-0.53,1.609
1484.0,-10.016,-1.817,1.814,-1.57,-0.7,1.572
1488.0,-10.016,-1.817,1.814,-1.57,-0.7,1.572
1492.0,-9.695,-1.758,1.568,-1.765,-0.868,1.543
1496.0,-9.695,-1.758,1.568,-1.765,-0.868,1.543
1500.0,-9.143,-1.664,1.302,-1.765,-0.868,1.543
1504.0,-9.143,-1.664,1.302,-1.951,-1.008,1.523
1508.0,-9.143,-1.664,1.302,-1.951,-1.008,1.523
1512.0,-8.494,-1.591,1.048,-2.128,-1.101,1.51
1516.0,-8.494,-1.591,1.048,-2.128,-1.101,1.51
1520.0,-7.85,-1.524,0.867,-2.128,-1.101,1.501
1524.0,-7.85,-1.524,0.867,-2.296,-1.144,1.501
1528.0,-7.85,-1.524,0.867,-2.296,-1.144,1.501
1532.0,-7.303,-1.522,0.755,-2.456,-1.145,1.499
1536.0,-7.303,-1.522,0.755,-2.456,-1.145,1.499
1540.0,-6.91,-1.589,0.705,-2.61,-1.118,1.503
1544.0,-6.91,-1.589,0.705,-2.61,-1.118,1.503
1548.0,-6.91,-1.589,0.705,-2.61,-1.118,1.503
1552.0,-6.653,-1.714,0.674,-2.757,-1.072,1.515
1556.0,-6.653,-1.714,0.674,-2.757,-1.072,1.515
1560.0,-6.491,-1.878,0.593,-2.899,-1.013,1.536
1564.0,-6.491,-1.878,0.593,-2.899,-1.013,1.536
1568.0,-6.491,-1.878,0.593,-2.899,-1.013,1.536
1572.0,-6.348,-2.064,0.523,-3.041,-0.943,1.57
1576.0,-6.348,-2.064,0.523,-3.041,-0.943,1.57
1580.0,-6.193,-2.276,0.462,-3.183,-0.869,1.613
1584.0,-6.193,-2.276,0.462,-3.183,-0.869,1.613
1588.0,-6.193,-2.276,0.462,-3.183,-0.869,1.613
1592.0,-6.022,-2.518,0.414,-3.317,-0.791,1.664
1596.0,-6.022,-2.518,0.414,-3.317,-0.791,1.664
1600.0,-5.862,-2.732,0.381,-3.443,-0.712,1.722
1604.0,-5.862,-2.732,0.381,-3.443,-0.712,1.722
1608.0,-5.862,-2.732,0.381,-3.443,-0.712,1.722
1612.0,-5.74,-2.987,0.338,-3.553,-0.634,1.788
1616.0,-5.74,-2.987,0.338,-3.553,-0.634,1.788
1620.0,-5.623,-3.234,0.327,-3.645,-0.56,1.859
1624.0,-5.623,-3.234,0.327,-3.645,-0.56,1.859
1628.0,-5.623,-3.234,0.306,-3.645,-0.56,1.859
1632.0,-5.535,-3.451,0.306,-3.712,-0.49,1.928
1636.0,-5.535,-3.451,0.306,-3.712,-0.49,1.928
1640.0,-5.481,-3.663,0.287,-3.755,-0.429,1.991
1644.0,-5.481,-3.663,0.287,-3.755,-0.429,1.991
1648.0,-5.481,-3.933,0.348,-3.755,-0.429,1.991
1652.0,-5.504,-3.933,0.348,-3.773,-0.377,2.039
1656.0,-5.504,-3.933,0.348,-3.773,-0.377,2.039
1660.0,-5.646,-4.154,0.383,-3.765,-0.337,2.066
1664.0,-5.646,-4.154,0.383,-3.765,-0.337,2.066
1668.0,-5.788,-4.281,0.387,-3.765,-0.337,2.066
1672.0,-5.788,-4.281,0.387,-3.727,-0.304,2.074
1676.0,-5.788,-4.281,0.387,-3.727,-0.304,2.074
1680.0,-5.98,-4.391,0.367,-3.663,-0.271,2.071
1684.0,-5.98,-4.391,0.367,-3.663,-0.271,2.071
1688.0,-6.205,-4.474,0.355,-3.663,-0.271,2.064
1692.0,-6.205,-4.474,0.355,-3.571,-0.229,2.064
1695.0,-6.205,-4.474,0.355,-3.571,-0.229,2.064
1699.0,-6.413,-4.528,0.338,-3.451,-0.177,2.057
1703.0,-6.413,-4.528,0.338,-3.451,-0.177,2.057
1707.0,-6.68,-4.628,0.355,-3.451,-0.11,2.052
1711.0,-6.68,-4.628,0.355,-3.305,-0.11,2.052
1715.0,-6.68,-4.628,0.355,-3.305,-0.11,2.052
1719.0,-7.162,-4.823,0.452,-3.135,-0.025,2.054
1723.0,-7.162,-4.823,0.452,-3.135,-0.025,2.054
1727.0,-7.625,-5.048,0.559,-2.933,0.082,2.064
1731.0,-7.625,-5.048,0.559,-2.933,0.082,2.064
1735.0,-7.625,-5.048,0.559,-2.933,0.082,2.064
1739.0,-8.191,-5.27,0.748,-2.714,0.194,2.059
1743.0,-8.191,-5.27,0.748,-2.714,0.194,2.059
1747.0,-8.807,-5.448,1.041,-2.714,0.299,2.041
1751.0,-8.807,-5.448,1.041,-2.481,0.299,2.041
1755.0,-8.807,-5.448,1.041,-2.481,0.299,2.041
1759.0,-9.288,-5.629,1.388,-2.226,0.386,2.011
1763.0,-9.288,-5.629,1.388,-2.226,0.386,2.011
1767.0,-9.53,-5.803,1.866,-2.226,0.386,1.961
1770.0,-9.53,-5.803,1.866,-1.946,0.45,1.961
1774.0,-9.53,-5.803,1.866,-1.946,0.45,1.961
1778.0,-9.636,-5.934,2.362,-1.638,0.485,1.868
1782.0,-9.636,-5.934,2.362,-1.638,0.485,1.868
1786.0,-9.742,-5.895,2.648,-1.638,0.485,1.868
1790.0,-9.742,-5.895,2.648,-1.311,0.499,1.736
1794.0,-9.742,-5.895,2.648,-1.311,0.499,1.736
1798.0,-9.962,-5.721,2.741,-0.975,0.519,1.589
1802.0,-9.962,-5.721,2.741,-0.975,0.519,1.589
1806.0,-9.962,-5.429,2.738,-0.975,0.519,1.589
1809.0,-10.253,-5.429,2.738,-0.649,0.564,1.448
1813.0,-10.253,-5.429,2.738,-0.649,0.564,1.448
1817.0,-10.566,-5.136,2.701,-0.351,0.635,1.332
1821.0,-10.566,-5.136,2.701,-0.351,0.635,1.332
1825.0,-10.859,-4.949,2.712,-0.351,0.635,1.332
1829.0,-10.859,-4.949,2.712,-0.084,0.733,1.248
1833.0,-10.859,-4.949,2.712,-0.084,0.733,1.248
1837.0,-11.211,-4.823,2.859,0.156,0.846,1.187
1841.0,-11.211,-4.823,2.859,0.156,0.846,1.187
1845.0,-11.717,-4.679,3.013,0.156,0.846,1.187
1849.0,-11.717,-4.679,3.013,0.372,0.96,1.141
1853.0,-11.717,-4.679,3.013,0.372,0.96,1.141
1857.0,-12.394,-4.508,3.151,0.559,1.066,1.104
1861.0,-12.394,-4.508,3.151,0.559,1.066,1.104
1865.0,-12.394,-4.327,3.368,0.559,1.066,1.104
1869.0,-13.326,-4.327,3.368,0.708,1.163,1.081
1873.0,-13.326,-4.327,3.368,0.708,1.163,1.081
1876.0,-14.35,-4.189,3.738,0.821,1.246,1.079
1880.0,-14.35,-4.189,3.738,0.821,1.246,1.079
1884.0,-14.35,-4.189,4.122,0.821,1.246,1.079
1888.0,-15.07,-3.993,4.122,0.898,1.293,1.101
1892.0,-15.07,-3.993,4.122,0.898,1.293,1.101
1896.0,-15.036,-3.779,4.423,0.929,1.294,1.137
1900.0,-15.036,-3.779,4.423,0.929,1.294,1.137
1904.0,-15.036,-3.779,4.423,0.929,1.294,1.137
1908.0,-14.293,-3.553,4.634,0.917,1.264,1.164
1912.0,-14.293,-3.553,4.634,0.917,1.264,1.164
1916.0,-13.227,-3.317,4.643,0.873,1.231,1.157
1919.0,-13.227,-3.317,4.643,0.873,1.231,1.157
1923.0,-13.227,-3.317,4.643,0.873,1.231,1.157
1927.0,-12.355,-3.042,4.509,0.816,1.226,1.107
1931.0,-12.355,-3.042,4.509,0.816,1.226,1.107
1935.0,-11.898,-2.783,4.368,0.757,1.264,1.026
1939.0,-11.898,-2.783,4.368,0.757,1.264,1.026
1943.0,-11.898,-2.783,4.368,0.757,1.264,1.026
1947.0,-12.016,-2.634,4.258,0.706,1.333,0.933
1951.0,-12.016,-2.634,4.258,0.706,1.333,0.933
1955.0,-12.734,-2.62,4.246,0.675,1.415,0.852
1959.0,-12.734,-2.62,4.246,0.675,1.415,0.852
1962.0,-12.734,-2.62,4.246,0.675,1.415,0.852
1966.0,-13.828,-2.761,4.298,0.675,1.481,0.802
1970.0,-13.828,-2.761,4.298,0.675,1.481,0.802
1974.0,-14.882,-3.032,4.5,0.718,1.501,0.776
1978.0,-14.882,-3.032,4.5,0.718,1.501,0.776
1982.0,-14.882,-3.032,4.5,0.718,1.501,0.776
1986.0,-15.507,-3.333,4.801,0.817,1.451,0.748
1990.0,-15.507,-3.333,4.801,0.817,1.451,0.748
1994.0,-15.495,-3.562,5.001,0.817,1.318,0.684
1998.0,-15.495,-3.562,5.001,0.975,1.318,0.684
2001.0,-15.495,-3.562,5.001,0.975,1.318,0.684
2005.0,-14.855,-3.538,4.869,1.174,1.109,0.564
2009.0,-14.855,-3.538,4.869,1.174,1.109,0.564
2013.0,-13.755,-3.235,4.467,1.174,1.109,0.383
2017.0,-13.755,-3.235,4.467,1.377,0.864,0.383
2021.0,-13.755,-3.235,4.467,1.377,0.864,0.383
2025.0,-12.428,-2.801,3.98,1.554,0.621,0.156
2029.0,-12.428,-2.801,3.98,1.554,0.621,0.156
2033.0,-11.063,-2.344,3.51,1.554,0.621,0.156
2037.0,-11.063,-2.344,3.51,1.69,0.404,-0.1
2041.0,-11.063,-2.344,3.51,1.69,0.404,-0.1
2045.0,-9.826,-1.91,3.079,1.785,0.218,-0.367
2049.0,-9.826,-1.91,3.079,1.785,0.218,-0.367
2052.0,-8.816,-1.547,2.657,1.785,0.218,-0.367
2056.0,-8.816,-1.547,2.657,1.846,0.067,-0.632
2060.0,-8.816,-1.547,2.657,1.846,0.067,-0.632
2064.0,-8.182,-1.259,2.282,1.879,-0.047,-0.881
2068.0,-8.182,-1.259,2.282,1.879,-0.047,-0.881
2072.0,-8.182,-1.064,1.921,1.879,-0.047,-0.881
2076.0,-7.952,-1.064,1.921,1.887,-0.121,-1.098
2080.0,-7.952,-1.064,1.921,1.887,-0.121,-1.098
2084.0,-8.216,-0.948,1.701,1.871,-0.157,-1.271
2088.0,-8.216,-0.948,1.701,1.871,-0.157,-1.271
2092.0,-8.885,-0.974,1.624,1.871,-0.157,-1.271
2096.0,-8.885,-0.974,1.624,1.834,-0.171,-1.403
2100.0,-8.885,-0.974,1.624,1.834,-0.171,-1.403
2104.0,-9.711,-1.092,1.688,1.788,-0.188,-1.497
2108.0,-9.711,-1.092,1.688,1.788,-0.188,-1.497
2112.0,-10.467,-1.271,1.851,1.788,-0.188,-1.559
2116.0,-10.467,-1.271,1.851,1.738,-0.23,-1.559
2120.0,-10.467,-1.271,1.851,1.738,-0.23,-1.559
2124.0,-11.095,-1.409,2.018,1.692,-0.303,-1.599
2128.0,-11.095,-1.409,2.018,1.692,-0.303,-1.599
2132.0,-11.455,-1.557,2.115,1.653,-0.406,-1.622
2137.0,-11.455,-1.557,2.115,1.653,-0.406,-1.622
2141.0,-11.455,-1.557,2.115,1.653,-0.406,-1.622
2145.0,-11.456,-1.674,2.114,1.624,-0.527,-1.636
2149.0,-11.456,-1.674,2.114,1.624,-0.527,-1.636
2153.0,-11.133,-1.718,2.029,1.601,-0.653,-1.649
2157.0,-11.133,-1.718,2.029,1.601,-0.653,-1.649
2161.0,-10.582,-1.731,1.895,1.601,-0.653,-1.649
2165.0,-10.582,-1.731,1.895,1.588,-0.771,-1.665
2169.0,-10.582,-1.731,1.895,1.588,-0.771,-1.665
2173.0,-9.947,-1.663,1.719,1.582,-0.868,-1.689
2177.0,-9.947,-1.663,1.719,1.582,-0.868,-1.689
2181.0,-9.334,-1.602,1.484,1.582,-0.941,-1.716
2185.0,-9.334,-1.602,1.484,1.581,-0.941,-1.716
2189.0,-9.334,-1.602,1.484,1.581,-0.941,-1.716
2193.0,-8.805,-1.501,1.215,1.586,-0.992,-1.744
2197.0,-8.805,-1.501,1.215,1.586,-0.992,-1.744
2201.0,-8.4,-1.394,0.986,1.59,-1.023,-1.768
2205.0,-8.4,-1.394,0.986,1.59,-1.023,-1.768
2209.0,-8.4,-1.394,0.986,1.59,-1.023,-1.768
2213.0,-8.173,-1.37,0.804,1.593,-1.033,-1.785
2217.0,-8.173,-1.37,0.804,1.593,-1.033,-1.785
2221.0,-8.079,-1.387,0.663,1.601,-1.026,-1.792
2225.0,-8.079,-1.387,0.663,1.601,-1.026,-1.792
2229.0,-8.079,-1.387,0.663,1.601,-1.026,-1.792
2233.0,-8.072,-1.466,0.593,1.618,-1.009,-1.785
2237.0,-8.072,-1.466,0.593,1.618,-1.009,-1.785
2241.0,-8.131,-1.58,0.591,1.646,-0.989,-1.766
2245.0,-8.131,-1.58,0.591,1.646,-0.989,-1.766
2249.0,-8.131,-1.58,0.591,1.646,-0.989,-1.766
2253.0,-8.208,-1.699,0.616,1.688,-0.97,-1.739
2257.0,-8.208,-1.699,0.616,1.688,-0.97,-1.739
2261.0,-8.28,-1.799,0.601,1.737,-0.961,-1.708
2265.0,-8.28,-1.799,0.601,1.737,-0.961,-1.708
2269.0,-8.28,-1.799,0.601,1.737,-0.961,-1.708
2273.0,-8.273,-1.856,0.566,1.79,-0.963,-1.674
2277.0,-8.273,-1.856,0.566,1.79,-0.963,-1.674
2281.0,-8.133,-1.91,0.517,1.843,-0.973,-1.633
2285.0,-8.133,-1.91,0.517,1.843,-0.973,-1.633
2289.0,-8.133,-1.91,0.457,1.843,-0.973,-1.633
2293.0,-7.86,-1.939,0.457,1.892,-0.99,-1.588
2297.0,-7.86,-1.939,0.457,1.892,-0.99,-1.588
2301.0,-7.545,-1.959,0.401,1.932,-1.012,-1.541
2305.0,-7.545,-1.959,0.401,1.932,-1.012,-1.541
2309.0,-7.545,-1.966,0.303,1.932,-1.012,-1.541
2313.0,-7.28,-1.966,0.303,1.959,-1.035,-1.494
2317.0,-7.28,-1.966,0.303,1.959,-1.035,-1.494
2321.0,-7.092,-1.953,0.174,1.965,-1.056,-1.446
2325.0,-7.092,-1.953,0.174,1.965,-1.056,-1.446
2329.0,-6.985,-1.923,0.042,1.965,-1.056,-1.446
2333.0,-6.985,-1.923,0.042,1.943,-1.068,-1.389
2337.0,-6.985,-1.923,0.042,1.943,-1.068,-1.389
2341.0,-6.995,-1.962,-0.036,1.892,-1.07,-1.316
2345.0,-6.995,-1.962,-0.036,1.892,-1.07,-1.316
2349.0,-7.096,-1.996,-0.099,1.892,-1.063,-1.22
2353.0,-7.096,-1.996,-0.099,1.815,-1.063,-1.22
2357.0,-7.096,-1.996,-0.099,1.815,-1.063,-1.22
2361.0,-7.283,-2.157,-0.133,1.704,-1.054,-1.1
2365.0,-7.283,-2.157,-0.133,1.704,-1.054,-1.1
2370.0,-7.524,-2.384,-0.127,1.565,-1.045,-0.962
2374.0,-7.524,-2.384,-0.127,1.565,-1.045,-0.962
2378.0,-7.524,-2.384,-0.127,1.565,-1.045,-0.962
2382.0,-7.823,-2.711,-0.084,1.404,-1.041,-0.816
2386.0,-7.823,-2.711,-0.084,1.404,-1.041,-0.816
2390.0,-8.177,-3.063,-0.055,1.223,-1.044,-0.674
2394.0,-8.177,-3.063,-0.055,1.223,-1.044,-0.674
2398.0,-8.551,-3.403,-0.033,1.223,-1.044,-0.674
2402.0,-8.551,-3.403,-0.033,1.036,-1.051,-0.537
2406.0,-8.551,-3.403,-0.033,1.036,-1.051,-0.537
2410.0,-8.925,-3.722,-0.088,0.857,-1.056,-0.406
2414.0,-8.925,-3.722,-0.088,0.857,-1.056,-0.406
2418.0,-9.458,-3.957,-0.199,0.688,-1.045,-0.28
2423.0,-9.458,-3.957,-0.199,0.688,-1.045,-0.28
2427.0,-9.458,-3.957,-0.199,0.688,-1.045,-0.28
2431.0,-10.142,-4.143,-0.255,0.534,-1.01,-0.147
2435.0,-10.142,-4.143,-0.255,0.534,-1.01,-0.147
2439.0,-10.947,-4.315,-0.223,0.395,-0.957,-0.001
2443.0,-10.947,-4.315,-0.223,0.395,-0.957,-0.001
2447.0,-11.731,-4.487,-0.129,0.395,-0.957,-0.001
2452.0,-11.731,-4.487,-0.129,0.272,-0.904,0.15
2456.0,-11.731,-4.487,-0.129,0.272,-0.904,0.15
2460.0,-12.284,-4.641,-0.02,0.171,-0.862,0.288
2464.0,-12.284,-4.641,-0.02,0.171,-0.862,0.288
2468.0,-12.507,-4.761,0.17,0.097,-0.835,0.389
2472.0,-12.507,-4.761,0.17,0.097,-0.835,0.389
2476.0,-12.507,-4.761,0.17,0.097,-0.835,0.389
2480.0,-12.495,-4.819,0.32,0.053,-0.823,0.441
2484.0,-12.495,-4.819,0.32,0.053,-0.823,0.441
2488.0,-12.508,-4.774,0.308,0.038,-0.814,0.454
2492.0,-12.508,-4.774,0.308,0.038,-0.814,0.454
2496.0,-12.508,-4.774,0.308,0.038,-0.814,0.454
2500.0,-12.559,-4.646,0.202,0.039,-0.794,0.444
2504.0,-12.559,-4.646,0.202,0.039,-0.794,0.444
2508.0,-12.416,-4.507,0.078,0.047,-0.763,0.43
2512.0,-12.416,-4.507,0.078,0.047,-0.763,0.43
2516.0,-12.416,-4.507,0.078,0.047,-0.763,0.43
2520.0,-12.266,-4.344,0.029,0.057,-0.713,0.427
2524.0,-12.266,-4.344,0.029,0.057,-0.713,0.427
2528.0,-12.459,-4.269,0.035,0.07,-0.626,0.437
2532.0,-12.459,-4.269,0.035,0.07,-0.626,0.437
2536.0,-12.459,-4.269,0.035,0.07,-0.626,0.437
2540.0,-13.03,-4.325,0.065,0.087,-0.508,0.472
2544.0,-13.03,-4.325,0.065,0.087,-0.508,0.472
2548.0,-13.921,-4.477,0.074,0.114,-0.381,0.546
2552.0,-13.921,-4.477,0.074,0.114,-0.381,0.546
2556.0,-13.921,-4.477,0.087,0.114,-0.381,0.546
2560.0,-15.056,-4.637,0.087,0.146,-0.262,0.655
2564.0,-15.056,-4.637,0.087,0.146,-0.262,0.655
2568.0,-16.272,-4.78,0.167,0.18,-0.147,0.785
2572.0,-16.272,-4.78,0.167,0.18,-0.147,0.785
2576.0,-17.203,-4.872,0.354,0.18,-0.147,0.785
2580.0,-17.203,-4.872,0.354,0.212,-0.044,0.918
2584.0,-17.203,-4.872,0.354,0.212,-0.044,0.918
2588.0,-17.296,-4.801,0.629,0.24,0.028,1.028
2592.0,-17.296,-4.801,0.629,0.24,0.028,1.028
2595.0,-16.369,-4.554,0.952,0.24,0.028,1.028
2599.0,-16.369,-4.554,0.952,0.263,0.062,1.079
2603.0,-16.369,-4.554,0.952,0.263,0.062,1.079
2607.0,-14.865,-4.09,1.198,0.291,0.066,1.052
2611.0,-14.865,-4.09,1.198,0.291,0.066,1.052
2615.0,-14.865,-3.502,1.388,0.291,0.066,1.052
2619.0,-13.278,-3.502,1.388,0.328,0.057,0.954
2623.0,-13.278,-3.502,1.388,0.328,0.057,0.954
2627.0,-11.705,-2.898,1.499,0.379,0.039,0.811
2631.0,-11.705,-2.898,1.499,0.379,0.039,0.811
2635.0,-11.705,-2.898,1.491,0.379,0.039,0.811
2638.0,-10.205,-2.367,1.491,0.444,0.018,0.632
2642.0,-10.205,-2.367,1.491,0.444,0.018,0.632
2646.0,-8.87,-1.883,1.373,0.523,0.008,0.425
2650.0,-8.87,-1.883,1.373,0.523,0.008,0.425
2654.0,-8.87,-1.883,1.373,0.523,0.008,0.425
2658.0,-7.928,-1.413,1.137,0.604,0.026,0.198
2662.0,-7.928,-1.413,1.137,0.604,0.026,0.198
2665.0,-7.624,-0.958,0.885,0.672,0.088,-0.022
2669.0,-7.624,-0.958,0.885,0.672,0.088,-0.022
2673.0,-7.624,-0.958,0.885,0.672,0.088,-0.022
2677.0,-7.909,-0.58,0.629,0.71,0.202,-0.191
2681.0,-7.909,-0.58,0.629,0.71,0.202,-0.191
2685.0,-8.585,-0.422,0.525,0.714,0.355,-0.285
2689.0,-8.585,-0.422,0.525,0.714,0.355,-0.285
2693.0,-8.585,-0.422,0.525,0.714,0.355,-0.285
2697.0,-9.306,-0.47,0.613,0.688,0.519,-0.311
2701.0,-9.306,-0.47,0.613,0.688,0.519,-0.311
2704.0,-9.821,-0.644,0.856,0.688,0.662,-0.291
2708.0,-9.821,-0.644,0.856,0.642,0.662,-0.291
2712.0,-9.821,-0.644,0.856,0.642,0.662,-0.291
2716.0,-9.992,-0.824,1.162,0.581,0.761,-0.249
2720.0,-9.992,-0.824,1.162,0.581,0.761,-0.249
2724.0,-9.78,-0.976,1.484,0.581,0.761,-0.198
2728.0,-9.78,-0.976,1.484,0.509,0.816,-0.198
2732.0,-9.78,-0.976,1.484,0.509,0.816,-0.198
2736.0,-9.327,-1.072,1.758,0.431,0.837,-0.154
2740.0,-9.327,-1.072,1.758,0.431,0.837,-0.154
2743.0,-8.794,-1.091,1.954,0.431,0.837,-0.154
2747.0,-8.794,-1.091,1.954,0.354,0.847,-0.122
2751.0,-8.794,-1.091,1.954,0.354,0.847,-0.122
2755.0,-8.275,-1.068,2.073,0.286,0.855,-0.101
2759.0,-8.275,-1.068,2.073,0.286,0.855,-0.101
2763.0,-8.275,-1.068,2.137,0.286,0.855,-0.101
2767.0,-7.835,-0.98,2.137,0.23,0.865,-0.078
2771.0,-7.835,-0.98,2.137,0.23,0.865,-0.078
2775.0,-7.491,-0.831,2.12,0.185,0.878,-0.043
2779.0,-7.491,-0.831,2.12,0.185,0.878,-0.043
2783.0,-7.491,-0.831,2.12,0.185,0.878,-0.043
2786.0,-7.189,-0.692,2.029,0.15,0.889,0.013
2790.0,-7.189,-0.692,2.029,0.15,0.889,0.013
2794.0,-6.93,-0.566,1.905,0.122,0.903,0.088
2798.0,-6.93,-0.566,1.905,0.122,0.903,0.088
2802.0,-6.93,-0.566,1.905,0.122,0.903,0.088
2806.0,-6.729,-0.463,1.769,0.104,0.916,0.175
2809.0,-6.729,-0.463,1.769,0.104,0.916,0.175
2813.0,-6.584,-0.405,1.64,0.089,0.926,0.267
2817.0,-6.584,-0.405,1.64,0.089,0.926,0.267
2821.0,-6.584,-0.405,1.64,0.089,0.926,0.267
2825.0,-6.5,-0.355,1.538,0.073,0.935,0.359
2828.0,-6.5,-0.355,1.538,0.073,0.935,0.359
2832.0,-6.489,-0.352,1.439,0.073,0.935,0.359
2836.0,-6.489,-0.352,1.439,0.055,0.936,0.45
2840.0,-6.489,-0.352,1.439,0.055,0.936,0.45
2844.0,-6.602,-0.347,1.339,0.03,0.933,0.538
2848.0,-6.602,-0.347,1.339,0.03,0.933,0.538
2851.0,-6.602,-0.347,1.339,0.03,0.933,0.538
2855.0,-6.827,-0.304,1.208,-0.008,0.926,0.622
2859.0,-6.827,-0.304,1.208,-0.008,0.926,0.622
2863.0,-7.052,-0.251,1.091,-0.065,0.917,0.705
2867.0,-7.052,-0.251,1.091,-0.065,0.917,0.705
2871.0,-7.052,-0.251,1.091,-0.065,0.917,0.705
2875.0,-7.21,-0.197,1.071,-0.146,0.904,0.788
2879.0,-7.21,-0.197,1.071,-0.146,0.904,0.788
2883.0,-7.39,-0.145,1.077,-0.246,0.887,0.873
2886.0,-7.39,-0.145,1.077,-0.246,0.887,0.873
2890.0,-7.39,-0.145,1.077,-0.246,0.887,0.873
2894.0,-7.635,-0.1,1.074,-0.365,0.871,0.961
2898.0,-7.635,-0.1,1.074,-0.365,0.871,0.961
2902.0,-7.942,-0.096,1.076,-0.502,0.856,1.057
2906.0,-7.942,-0.096,1.076,-0.502,0.856,1.057
2910.0,-7.942,-0.096,1.076,-0.502,0.856,1.057
2914.0,-8.27,-0.136,1.099,-0.654,0.843,1.158
2918.0,-8.27,-0.136,1.099,-0.654,0.843,1.158
2922.0,-8.602,-0.179,1.144,-0.654,0.831,1.261
2926.0,-8.602,-0.179,1.144,-0.819,0.831,1.261
2929.0,-8.602,-0.179,1.144,-0.819,0.831,1.261
2933.0,-8.869,-0.225,1.202,-0.995,0.818,1.359
2937.0,-8.869,-0.225,1.202,-0.995,0.818,1.359
2941.0,-9.085,-0.274,1.263,-0.995,0.818,1.443
2945.0,-9.085,-0.274,1.263,-1.179,0.799,1.443
2949.0,-9.085,-0.274,1.263,-1.179,0.799,1.443
2953.0,-9.235,-0.327,1.308,-1.362,0.769,1.504
2957.0,-9.235,-0.327,1.308,-1.362,0.769,1.504
2961.0,-9.278,-0.348,1.317,-1.362,0.769,1.504
2965.0,-9.278,-0.348,1.317,-1.542,0.721,1.537
2968.0,-9.278,-0.348,1.317,-1.542,0.721,1.537
2972.0,-9.289,-0.383,1.254,-1.713,0.662,1.54
2976.0,-9.289,-0.383,1.254,-1.713,0.662,1.54
2980.0,-9.289,-0.383,1.14,-1.713,0.662,1.54
2984.0,-9.276,-0.555,1.14,-1.872,0.598,1.515
2988.0,-9.276,-0.555,1.14,-1.872,0.598,1.515
2992.0,-9.287,-0.458,1.013,-2.004,0.54,1.462
2996.0,-9.287,-0.458,1.013,-2.004,0.54,1.462
3000.0,-9.287,-0.458,1.013,-2.004,0.54,1.462
