deltaTime,Acc_X,Acc_Y,Acc_Z,Gyro_X,Gyro_Y,Gyro_Z
0.0,-6.86,-0.443,1.297,0.796,0.143,0.033
3.0,-7.321,0.234,1.05,0.782,0.226,-0.019
6.0,-7.321,0.234,1.05,0.782,0.226,-0.019
9.0,-7.321,0.234,1.05,0.782,0.226,-0.019
12.0,-8.096,0.738,1.196,0.657,0.307,-0.08
15.0,-8.096,0.738,1.196,0.657,0.307,-0.08
18.0,-8.096,0.738,1.196,0.657,0.307,-0.08
21.0,-8.096,0.738,1.429,0.657,0.307,-0.08
24.0,-9.112,0.908,1.429,0.488,0.392,-0.125
27.0,-9.112,0.908,1.429,0.488,0.392,-0.125
30.0,-9.112,0.908,1.429,0.488,0.392,-0.125
33.0,-9.939,1.053,1.307,0.326,0.479,-0.139
36.0,-9.939,1.053,1.307,0.326,0.479,-0.139
39.0,-9.939,1.053,1.307,0.326,0.479,-0.139
42.0,-10.86,1.027,1.402,0.107,0.543,-0.104
46.0,-10.86,1.027,1.402,0.107,0.543,-0.104
50.0,-10.86,1.027,1.402,0.107,0.543,-0.104
54.0,-11.817,0.763,1.827,-0.104,0.571,-0.071
57.0,-11.817,0.763,1.827,-0.104,0.571,-0.071
61.0,-12.727,0.35,2.017,-0.104,0.571,-0.019
65.0,-12.727,0.35,2.017,-0.248,0.536,-0.019
69.0,-12.727,0.35,2.017,-0.248,0.536,-0.019
73.0,-12.677,-0.136,2.339,-0.332,0.432,0.077
76.0,-12.677,-0.136,2.339,-0.332,0.432,0.077
80.0,-12.677,-0.136,2.485,-0.332,0.432,0.077
84.0,-11.828,-0.143,2.485,-0.314,0.323,0.165
88.0,-11.828,-0.143,2.485,-0.314,0.323,0.165
92.0,-10.972,0.175,2.137,-0.276,0.206,0.216
95.0,-10.972,0.175,2.137,-0.276,0.206,0.216
99.0,-10.972,0.175,2.137,-0.276,0.206,0.216
103.0,-10.393,0.442,2.037,-0.302,0.115,0.25
107.0,-10.393,0.442,2.037,-0.302,0.115,0.25
111.0,-10.022,0.449,1.269,-0.302,0.076,0.271
114.0,-10.022,0.449,1.269,-0.354,0.076,0.271
118.0,-10.022,0.449,1.269,-0.354,0.076,0.271
122.0,-9.41,0.256,0.802,-0.495,0.073,0.306
126.0,-9.41,0.256,0.802,-0.495,0.073,0.306
129.0,-9.41,0.256,0.802,-0.495,0.073,0.306
133.0,-8.452,0.033,1.381,-0.638,0.106,0.3
137.0,-8.452,0.033,1.381,-0.638,0.106,0.3
141.0,-8.043,-0.114,1.902,-0.614,0.149,0.246
144.0,-8.043,-0.114,1.902,-0.614,0.149,0.246
148.0,-8.043,-0.114,1.902,-0.614,0.149,0.246
152.0,-7.484,0.386,2.639,-0.478,0.158,0.211
156.0,-7.484,0.386,2.639,-0.478,0.158,0.211
160.0,-7.086,1.451,2.501,-0.478,0.158,0.211
163.0,-7.086,1.451,2.501,-0.385,0.129,0.176
167.0,-7.086,1.451,2.501,-0.385,0.129,0.176
171.0,-7.615,0.934,1.979,-0.485,0.073,0.15
175.0,-7.615,0.934,1.979,-0.485,0.073,0.15
178.0,-7.615,0.934,1.979,-0.485,0.073,0.15
182.0,-8.136,-0.077,1.993,-0.614,0.06,0.167
186.0,-8.136,-0.077,1.993,-0.614,0.06,0.167
190.0,-8.734,-0.946,2.245,-0.614,0.122,0.168
193.0,-8.734,-0.946,2.245,-0.639,0.122,0.168
197.0,-8.734,-0.946,2.245,-0.639,0.122,0.168
201.0,-9.482,-1.427,2.39,-0.606,0.186,0.171
205.0,-9.482,-1.427,2.39,-0.606,0.186,0.171
209.0,-9.482,-1.33,2.414,-0.606,0.186,0.171
213.0,-10.072,-1.33,2.414,-0.581,0.207,0.157
216.0,-10.072,-1.33,2.414,-0.581,0.207,0.157
220.0,-10.543,-1.03,2.3,-0.597,0.171,0.1
224.0,-10.543,-1.03,2.3,-0.597,0.171,0.1
228.0,-10.543,-1.03,2.3,-0.597,0.171,0.1
232.0,-10.863,-0.815,2.207,-0.656,0.089,0.031
236.0,-10.863,-0.815,2.207,-0.656,0.089,0.031
240.0,-10.787,-0.672,2.136,-0.738,-0.017,-0.022
244.0,-10.787,-0.672,2.136,-0.738,-0.017,-0.022
248.0,-10.787,-0.672,1.928,-0.738,-0.017,-0.022
252.0,-10.16,-0.363,1.928,-0.821,-0.133,-0.075
256.0,-10.16,-0.363,1.928,-0.821,-0.133,-0.075
260.0,-9.41,0.0,1.562,-0.922,-0.26,-0.163
264.0,-9.41,0.0,1.562,-0.922,-0.26,-0.163
268.0,-9.044,0.591,1.106,-0.922,-0.26,-0.163
272.0,-9.044,0.591,1.106,-1.072,-0.393,-0.281
276.0,-9.044,0.591,1.106,-1.072,-0.393,-0.281
280.0,-8.882,0.882,0.796,-1.289,-0.51,-0.409
284.0,-8.882,0.882,0.796,-1.289,-0.51,-0.409
288.0,-8.882,0.882,0.602,-1.289,-0.51,-0.409
292.0,-8.776,1.049,0.602,-1.539,-0.586,-0.512
295.0,-8.776,1.049,0.602,-1.539,-0.586,-0.512
299.0,-8.637,0.845,0.459,-1.794,-0.616,-0.565
303.0,-8.637,0.845,0.459,-1.794,-0.616,-0.565
307.0,-8.637,0.845,0.459,-1.794,-0.616,-0.565
311.0,-8.917,0.541,0.444,-2.015,-0.599,-0.567
315.0,-8.917,0.541,0.444,-2.015,-0.599,-0.567
319.0,-9.455,0.171,0.486,-2.196,-0.562,-0.536
323.0,-9.455,0.171,0.486,-2.196,-0.562,-0.536
327.0,-9.455,0.171,0.486,-2.196,-0.562,-0.536
331.0,-10.04,-0.194,0.653,-2.339,-0.534,-0.483
335.0,-10.04,-0.194,0.653,-2.339,-0.534,-0.483
339.0,-10.507,-0.552,0.849,-2.447,-0.536,-0.418
343.0,-10.507,-0.552,0.849,-2.447,-0.536,-0.418
347.0,-10.507,-0.864,1.027,-2.447,-0.536,-0.418
351.0,-10.571,-0.864,1.027,-2.523,-0.582,-0.345
355.0,-10.571,-0.864,1.027,-2.523,-0.582,-0.345
359.0,-10.255,-1.128,1.086,-2.569,-0.662,-0.278
363.0,-10.255,-1.128,1.086,-2.569,-0.662,-0.278
367.0,-9.922,-1.324,0.988,-2.569,-0.743,-0.231
371.0,-9.922,-1.324,0.988,-2.595,-0.743,-0.231
375.0,-9.922,-1.324,0.988,-2.595,-0.743,-0.231
379.0,-10.03,-1.415,0.735,-2.609,-0.783,-0.213
383.0,-10.03,-1.415,0.735,-2.609,-0.783,-0.213
387.0,-10.5,-1.362,0.468,-2.622,-0.765,-0.203
392.0,-10.5,-1.362,0.468,-2.622,-0.765,-0.203
396.0,-10.5,-1.362,0.468,-2.622,-0.765,-0.203
400.0,-11.026,-1.228,0.33,-2.649,-0.707,-0.172
404.0,-11.026,-1.228,0.33,-2.649,-0.707,-0.172
408.0,-11.453,-1.113,0.331,-2.689,-0.629,-0.107
412.0,-11.453,-1.113,0.331,-2.689,-0.629,-0.107
416.0,-11.453,-1.064,0.423,-2.689,-0.629,-0.107
420.0,-11.864,-1.064,0.423,-2.733,-0.538,-0.012
424.0,-11.864,-1.064,0.423,-2.733,-0.538,-0.012
428.0,-12.156,-1.046,0.568,-2.772,-0.439,0.097
432.0,-12.156,-1.046,0.568,-2.772,-0.439,0.097
436.0,-12.097,-1.086,0.774,-2.772,-0.439,0.213
440.0,-12.097,-1.086,0.774,-2.797,-0.349,0.213
444.0,-12.097,-1.086,0.774,-2.797,-0.349,0.213
448.0,-11.504,-1.186,1.026,-2.803,-0.282,0.32
452.0,-11.504,-1.186,1.026,-2.803,-0.282,0.32
456.0,-10.449,-1.312,1.225,-2.803,-0.237,0.399
460.0,-10.449,-1.312,1.225,-2.781,-0.237,0.399
464.0,-10.449,-1.312,1.225,-2.781,-0.237,0.399
468.0,-9.23,-1.399,1.328,-2.72,-0.213,0.434
472.0,-9.23,-1.399,1.328,-2.72,-0.213,0.434
476.0,-8.069,-1.447,1.383,-2.627,-0.201,0.417
480.0,-8.069,-1.447,1.383,-2.627,-0.201,0.417
484.0,-8.069,-1.447,1.383,-2.627,-0.201,0.417
488.0,-7.013,-1.449,1.335,-2.506,-0.192,0.351
492.0,-7.013,-1.449,1.335,-2.506,-0.192,0.351
496.0,-6.267,-1.397,1.208,-2.506,-0.192,0.255
499.0,-6.267,-1.397,1.208,-2.364,-0.172,0.255
503.0,-6.267,-1.397,1.208,-2.364,-0.172,0.255
507.0,-6.09,-1.281,0.968,-2.207,-0.119,0.161
511.0,-6.09,-1.281,0.968,-2.207,-0.119,0.161
515.0,-6.555,-1.182,0.71,-2.207,-0.119,0.161
519.0,-6.555,-1.182,0.71,-2.049,-0.017,0.109
523.0,-6.555,-1.182,0.71,-2.049,-0.017,0.109
527.0,-7.541,-1.199,0.644,-1.894,0.136,0.132
531.0,-7.541,-1.199,0.644,-1.894,0.136,0.132
534.0,-7.541,-1.199,0.783,-1.894,0.136,0.132
538.0,-8.841,-1.384,0.783,-1.738,0.307,0.232
542.0,-8.841,-1.384,0.783,-1.738,0.307,0.232
546.0,-10.362,-1.739,1.152,-1.57,0.46,0.394
550.0,-10.362,-1.739,1.152,-1.57,0.46,0.394
554.0,-10.362,-1.739,1.152,-1.57,0.46,0.394
558.0,-11.643,-2.183,1.58,-1.377,0.554,0.593
561.0,-11.643,-2.183,1.58,-1.377,0.554,0.593
565.0,-12.193,-2.628,2.034,-1.152,0.562,0.807
569.0,-12.193,-2.628,2.034,-1.152,0.562,0.807
573.0,-12.193,-2.628,2.034,-1.152,0.562,0.807
577.0,-12.005,-2.984,2.255,-0.901,0.495,0.994
581.0,-12.005,-2.984,2.255,-0.901,0.495,0.994
585.0,-11.727,-3.163,2.144,-0.633,0.41,1.122
589.0,-11.727,-3.163,2.144,-0.633,0.41,1.122
593.0,-11.727,-3.163,2.144,-0.633,0.41,1.122
597.0,-11.806,-3.071,1.765,-0.366,0.366,1.186
601.0,-11.806,-3.071,1.765,-0.366,0.366,1.186
604.0,-11.999,-2.744,1.459,-0.124,0.368,1.221
608.0,-11.999,-2.744,1.459,-0.124,0.368,1.221
612.0,-11.999,-2.744,1.459,-0.124,0.368,1.221
616.0,-11.865,-2.322,1.309,0.074,0.389,1.254
620.0,-11.865,-2.322,1.309,0.074,0.389,1.254
624.0,-11.253,-1.947,1.253,0.074,0.389,1.281
628.0,-11.253,-1.947,1.253,0.231,0.405,1.281
631.0,-11.253,-1.947,1.253,0.231,0.405,1.281
635.0,-10.49,-1.635,1.317,0.362,0.412,1.277
639.0,-10.49,-1.635,1.317,0.362,0.412,1.277
643.0,-10.49,-1.635,1.424,0.362,0.412,1.277
647.0,-9.541,-1.351,1.424,0.485,0.401,1.23
650.0,-9.541,-1.351,1.424,0.485,0.401,1.23
654.0,-8.438,-1.136,1.457,0.601,0.359,1.147
658.0,-8.438,-1.136,1.457,0.601,0.359,1.147
662.0,-8.438,-1.136,1.457,0.601,0.359,1.147
665.0,-7.613,-0.916,1.355,0.702,0.316,1.037
669.0,-7.613,-0.916,1.355,0.702,0.316,1.037
673.0,-7.333,-0.702,1.178,0.702,0.316,1.037
677.0,-7.333,-0.702,1.178,0.782,0.308,0.914
680.0,-7.333,-0.702,1.178,0.782,0.308,0.914
684.0,-7.638,-0.524,0.909,0.835,0.348,0.81
688.0,-7.638,-0.524,0.909,0.835,0.348,0.81
692.0,-7.638,-0.524,0.909,0.835,0.348,0.81
695.0,-8.597,-0.465,0.823,0.856,0.431,0.752
699.0,-8.597,-0.465,0.823,0.856,0.431,0.752
703.0,-9.702,-0.547,0.966,0.856,0.431,0.739
706.0,-9.702,-0.547,0.966,0.857,0.517,0.739
710.0,-9.702,-0.547,0.966,0.857,0.517,0.739
714.0,-10.35,-0.745,1.326,0.848,0.542,0.757
718.0,-10.35,-0.745,1.326,0.848,0.542,0.757
722.0,-10.35,-0.745,1.326,0.848,0.542,0.757
725.0,-10.256,-0.994,1.657,0.839,0.476,0.777
729.0,-10.256,-0.994,1.657,0.839,0.476,0.777
733.0,-9.777,-1.203,1.75,0.829,0.354,0.767
737.0,-9.777,-1.203,1.75,0.829,0.354,0.767
740.0,-9.777,-1.203,1.75,0.829,0.354,0.767
744.0,-9.485,-1.26,1.572,0.817,0.239,0.713
748.0,-9.485,-1.26,1.572,0.817,0.239,0.713
752.0,-9.485,-1.178,1.386,0.817,0.239,0.713
755.0,-9.577,-1.178,1.386,0.792,0.167,0.635
759.0,-9.577,-1.178,1.386,0.792,0.167,0.635
763.0,-9.693,-1.035,1.275,0.747,0.115,0.566
767.0,-9.693,-1.035,1.275,0.747,0.115,0.566
770.0,-9.693,-1.035,1.275,0.747,0.115,0.566
774.0,-9.675,-0.883,1.255,0.679,0.055,0.521
778.0,-9.675,-0.883,1.255,0.679,0.055,0.521
782.0,-9.634,-0.765,1.253,0.679,0.055,0.521
785.0,-9.634,-0.765,1.253,0.601,-0.019,0.491
789.0,-9.634,-0.765,1.253,0.601,-0.019,0.491
793.0,-9.522,-0.689,1.244,0.522,-0.107,0.463
797.0,-9.522,-0.689,1.244,0.522,-0.107,0.463
801.0,-9.522,-0.689,1.244,0.522,-0.107,0.463
804.0,-9.211,-0.614,1.141,0.445,-0.208,0.432
808.0,-9.211,-0.614,1.141,0.445,-0.208,0.432
812.0,-8.922,-0.565,0.924,0.362,-0.307,0.401
816.0,-8.922,-0.565,0.924,0.362,-0.307,0.401
820.0,-8.922,-0.565,0.924,0.362,-0.307,0.401
823.0,-8.966,-0.5,0.647,0.267,-0.374,0.367
827.0,-8.966,-0.5,0.647,0.267,-0.374,0.367
831.0,-9.296,-0.428,0.449,0.267,-0.374,0.337
835.0,-9.296,-0.428,0.449,0.151,-0.396,0.337
839.0,-9.296,-0.428,0.449,0.151,-0.396,0.337
843.0,-9.704,-0.376,0.395,0.008,-0.391,0.318
846.0,-9.704,-0.376,0.395,0.008,-0.391,0.318
850.0,-9.704,-0.376,0.405,0.008,-0.391,0.318
854.0,-10.192,-0.358,0.405,-0.165,-0.373,0.309
858.0,-10.192,-0.358,0.405,-0.165,-0.373,0.309
862.0,-10.826,-0.381,0.536,-0.362,-0.34,0.302
866.0,-10.826,-0.381,0.536,-0.362,-0.34,0.302
870.0,-10.826,-0.381,0.721,-0.362,-0.34,0.302
874.0,-11.31,-0.425,0.721,-0.57,-0.315,0.296
878.0,-11.31,-0.425,0.721,-0.57,-0.315,0.296
882.0,-11.579,-0.519,0.85,-0.783,-0.306,0.292
886.0,-11.579,-0.519,0.85,-0.783,-0.306,0.292
890.0,-11.579,-0.62,0.929,-0.783,-0.306,0.292
894.0,-11.861,-0.62,0.929,-0.995,-0.294,0.284
898.0,-11.861,-0.62,0.929,-0.995,-0.294,0.284
902.0,-11.847,-0.753,1.024,-1.193,-0.278,0.269
906.0,-11.847,-0.753,1.024,-1.193,-0.278,0.269
910.0,-11.374,-0.873,1.107,-1.193,-0.278,0.269
914.0,-11.374,-0.873,1.107,-1.369,-0.274,0.248
918.0,-11.374,-0.873,1.107,-1.369,-0.274,0.248
922.0,-10.847,-0.939,1.162,-1.518,-0.273,0.214
926.0,-10.847,-0.939,1.162,-1.518,-0.273,0.214
930.0,-10.023,-0.986,1.213,-1.518,-0.273,0.163
934.0,-10.023,-0.986,1.213,-1.632,-0.272,0.163
938.0,-10.023,-0.986,1.213,-1.632,-0.272,0.163
942.0,-8.967,-1.065,1.125,-1.71,-0.29,0.095
946.0,-8.967,-1.065,1.125,-1.71,-0.29,0.095
950.0,-8.206,-1.126,0.949,-1.71,-0.296,0.009
954.0,-8.206,-1.126,0.949,-1.756,-0.296,0.009
957.0,-8.206,-1.126,0.949,-1.756,-0.296,0.009
961.0,-7.889,-1.195,0.832,-1.767,-0.263,-0.09
965.0,-7.889,-1.195,0.832,-1.767,-0.263,-0.09
969.0,-7.768,-1.273,0.826,-1.767,-0.209,-0.175
973.0,-7.768,-1.273,0.826,-1.74,-0.209,-0.175
977.0,-7.768,-1.273,0.826,-1.74,-0.209,-0.175
981.0,-7.664,-1.397,0.909,-1.679,-0.158,-0.229
985.0,-7.664,-1.397,0.909,-1.679,-0.158,-0.229
989.0,-7.656,-1.633,1.025,-1.585,-0.118,-0.255
993.0,-7.656,-1.633,1.025,-1.585,-0.118,-0.255
997.0,-7.656,-1.633,1.025,-1.585,-0.118,-0.255
1001.0,-7.913,-1.918,1.095,-1.457,-0.081,-0.264
1005.0,-7.913,-1.918,1.095,-1.457,-0.081,-0.264
1009.0,-8.623,-2.206,1.138,-1.3,-0.033,-0.26
1014.0,-8.623,-2.206,1.138,-1.3,-0.033,-0.26
1018.0,-8.623,-2.206,1.138,-1.3,-0.033,-0.26
1022.0,-9.63,-2.481,1.217,-1.117,0.026,-0.233
1026.0,-9.63,-2.481,1.217,-1.117,0.026,-0.233
1030.0,-10.723,-2.749,1.376,-0.913,0.083,-0.181
1034.0,-10.723,-2.749,1.376,-0.913,0.083,-0.181
1038.0,-10.723,-2.749,1.624,-0.913,0.083,-0.181
1042.0,-11.749,-3.004,1.624,-0.692,0.119,-0.108
1046.0,-11.749,-3.004,1.624,-0.692,0.119,-0.108
1050.0,-12.508,-3.185,1.919,-0.458,0.121,-0.021
1054.0,-12.508,-3.185,1.919,-0.458,0.121,-0.021
1058.0,-12.655,-3.269,2.154,-0.458,0.083,0.063
1062.0,-12.655,-3.269,2.154,-0.213,0.083,0.063
1066.0,-12.655,-3.269,2.154,-0.213,0.083,0.063
1070.0,-11.9,-3.194,2.307,0.036,0.012,0.133
1074.0,-11.9,-3.194,2.307,0.036,0.012,0.133
1078.0,-10.622,-2.979,2.316,0.036,-0.066,0.17
1082.0,-10.622,-2.979,2.316,0.275,-0.066,0.17
1086.0,-10.622,-2.979,2.316,0.275,-0.066,0.17
1090.0,-9.413,-2.708,2.148,0.495,-0.12,0.162
1094.0,-9.413,-2.708,2.148,0.495,-0.12,0.162
1098.0,-8.489,-2.429,1.944,0.495,-0.133,0.11
1102.0,-8.489,-2.429,1.944,0.693,-0.133,0.11
1106.0,-8.489,-2.429,1.944,0.693,-0.133,0.11
1110.0,-7.842,-2.176,1.835,0.872,-0.114,0.028
1113.0,-7.842,-2.176,1.835,0.872,-0.114,0.028
1117.0,-7.472,-1.937,1.842,0.872,-0.114,-0.071
1121.0,-7.472,-1.937,1.842,1.036,-0.078,-0.071
1125.0,-7.472,-1.937,1.842,1.036,-0.078,-0.071
1129.0,-7.461,-1.775,1.887,1.192,-0.039,-0.17
1133.0,-7.461,-1.775,1.887,1.192,-0.039,-0.17
1137.0,-7.956,-1.637,1.928,1.192,0.003,-0.252
1141.0,-7.956,-1.637,1.928,1.342,0.003,-0.252
1145.0,-7.956,-1.637,1.928,1.342,0.003,-0.252
1149.0,-8.807,-1.602,1.957,1.488,0.04,-0.307
1153.0,-8.807,-1.602,1.957,1.488,0.04,-0.307
1157.0,-9.744,-1.637,2.06,1.488,0.04,-0.333
1161.0,-9.744,-1.637,2.06,1.627,0.06,-0.333
1165.0,-9.744,-1.637,2.06,1.627,0.06,-0.333
1169.0,-10.551,-1.725,2.176,1.755,0.054,-0.339
1173.0,-10.551,-1.725,2.176,1.755,0.054,-0.339
1177.0,-11.206,-1.816,2.329,1.755,0.054,-0.337
1181.0,-11.206,-1.816,2.329,1.868,0.024,-0.337
1185.0,-11.206,-1.816,2.329,1.868,0.024,-0.337
1189.0,-11.652,-1.836,2.477,1.965,-0.021,-0.338
1193.0,-11.652,-1.836,2.477,1.965,-0.021,-0.338
1197.0,-11.695,-1.745,2.529,2.041,-0.083,-0.338
1201.0,-11.695,-1.745,2.529,2.041,-0.083,-0.338
1205.0,-11.695,-1.745,2.529,2.041,-0.083,-0.338
1209.0,-11.434,-1.587,2.526,2.086,-0.149,-0.337
1213.0,-11.434,-1.587,2.526,2.086,-0.149,-0.337
1217.0,-11.157,-1.383,2.503,2.102,-0.203,-0.344
1221.0,-11.157,-1.383,2.503,2.102,-0.203,-0.344
1225.0,-11.157,-1.383,2.426,2.102,-0.203,-0.344
1229.0,-10.782,-1.145,2.426,2.092,-0.245,-0.357
1233.0,-10.782,-1.145,2.426,2.092,-0.245,-0.357
1238.0,-10.309,-0.891,2.333,2.061,-0.285,-0.371
1242.0,-10.309,-0.891,2.333,2.061,-0.285,-0.371
1246.0,-9.961,-0.674,2.191,2.061,-0.285,-0.386
1250.0,-9.961,-0.674,2.191,2.011,-0.315,-0.386
1254.0,-9.961,-0.674,2.191,2.011,-0.315,-0.386
1258.0,-10.016,-0.491,2.207,1.946,-0.325,-0.403
1262.0,-10.016,-0.491,2.207,1.946,-0.325,-0.403
1266.0,-10.101,-0.33,2.259,1.87,-0.336,-0.411
1270.0,-10.101,-0.33,2.259,1.87,-0.336,-0.411
1274.0,-10.101,-0.33,2.259,1.87,-0.336,-0.411
1278.0,-9.802,-0.236,2.259,1.786,-0.371,-0.402
1282.0,-9.802,-0.236,2.259,1.786,-0.371,-0.402
1286.0,-9.38,-0.175,2.224,1.688,-0.423,-0.389
1290.0,-9.38,-0.175,2.224,1.688,-0.423,-0.389
1294.0,-9.38,-0.175,2.224,1.688,-0.423,-0.389
1298.0,-9.248,-0.136,2.143,1.576,-0.458,-0.39
1302.0,-9.248,-0.136,2.143,1.576,-0.458,-0.39
1306.0,-9.415,-0.092,2.082,1.452,-0.469,-0.399
1310.0,-9.415,-0.092,2.082,1.452,-0.469,-0.399
1314.0,-9.415,-0.092,2.082,1.452,-0.469,-0.399
1318.0,-9.721,-0.036,2.081,1.314,-0.47,-0.4
1322.0,-9.721,-0.036,2.081,1.314,-0.47,-0.4
1326.0,-10.018,-0.02,2.131,1.161,-0.481,-0.385
1330.0,-10.018,-0.02,2.131,1.161,-0.481,-0.385
1334.0,-10.018,-0.041,2.164,1.161,-0.481,-0.385
1338.0,-10.175,-0.041,2.164,1.003,-0.512,-0.361
1342.0,-10.175,-0.041,2.164,1.003,-0.512,-0.361
1346.0,-10.059,-0.099,2.138,0.846,-0.559,-0.341
1350.0,-10.059,-0.099,2.138,0.846,-0.559,-0.341
1355.0,-9.741,-0.147,2.073,0.846,-0.612,-0.331
1359.0,-9.741,-0.147,2.073,0.695,-0.612,-0.331
1363.0,-9.741,-0.147,2.073,0.695,-0.612,-0.331
1367.0,-9.377,-0.162,1.904,0.556,-0.656,-0.34
1371.0,-9.377,-0.162,1.904,0.556,-0.656,-0.34
1374.0,-9.208,-0.151,1.74,0.427,-0.676,-0.364
1378.0,-9.208,-0.151,1.74,0.427,-0.676,-0.364
1382.0,-9.208,-0.151,1.74,0.427,-0.676,-0.364
1386.0,-9.249,-0.139,1.653,0.311,-0.673,-0.395
1390.0,-9.249,-0.139,1.653,0.311,-0.673,-0.395
1394.0,-9.356,-0.125,1.631,0.204,-0.663,-0.419
1398.0,-9.356,-0.125,1.631,0.204,-0.663,-0.419
1402.0,-9.356,-0.125,1.631,0.204,-0.663,-0.419
1406.0,-9.426,-0.149,1.641,0.101,-0.659,-0.431
1410.0,-9.426,-0.149,1.641,0.101,-0.659,-0.431
1414.0,-9.403,-0.222,1.657,0.004,-0.663,-0.437
1418.0,-9.403,-0.222,1.657,0.004,-0.663,-0.437
1422.0,-9.403,-0.222,1.657,0.004,-0.663,-0.437
1426.0,-9.17,-0.3,1.606,-0.088,-0.679,-0.445
1430.0,-9.17,-0.3,1.606,-0.088,-0.679,-0.445
1435.0,-8.922,-0.389,1.484,-0.177,-0.695,-0.457
1439.0,-8.922,-0.389,1.484,-0.177,-0.695,-0.457
1443.0,-8.922,-0.444,1.389,-0.177,-0.695,-0.457
1447.0,-8.777,-0.444,1.389,-0.265,-0.694,-0.474
1451.0,-8.777,-0.444,1.389,-0.265,-0.694,-0.474
1455.0,-8.709,-0.524,1.296,-0.349,-0.676,-0.487
1459.0,-8.709,-0.524,1.296,-0.349,-0.676,-0.487
1463.0,-8.699,-0.589,1.21,-0.349,-0.652,-0.491
1467.0,-8.699,-0.589,1.21,-0.429,-0.652,-0.491
1471.0,-8.699,-0.589,1.21,-0.429,-0.652,-0.491
1475.0,-8.796,-0.671,1.161,-0.504,-0.623,-0.481
1479.0,-8.796,-0.671,1.161,-0.504,-0.623,-0.481
1484.0,-8.946,-0.762,1.156,-0.57,-0.591,-0.463
1488.0,-8.946,-0.762,1.156,-0.57,-0.591,-0.463
1492.0,-8.946,-0.762,1.156,-0.57,-0.591,-0.463
1496.0,-9.058,-0.875,1.152,-0.626,-0.566,-0.439
1500.0,-9.058,-0.875,1.152,-0.626,-0.566,-0.439
1504.0,-9.278,-0.989,1.08,-0.67,-0.544,-0.412
1508.0,-9.278,-0.989,1.08,-0.67,-0.544,-0.412
1512.0,-9.753,-1.047,1.015,-0.67,-0.544,-0.412
1516.0,-9.753,-1.047,1.015,-0.706,-0.512,-0.392
1520.0,-9.753,-1.047,1.015,-0.706,-0.512,-0.392
1524.0,-10.286,-1.07,0.997,-0.735,-0.469,-0.374
1528.0,-10.286,-1.07,0.997,-0.735,-0.469,-0.374
1533.0,-10.571,-1.069,1.047,-0.758,-0.435,-0.354
1537.0,-10.571,-1.069,1.047,-0.758,-0.435,-0.354
1541.0,-10.571,-1.069,1.047,-0.758,-0.435,-0.354
1545.0,-10.582,-1.071,1.043,-0.777,-0.415,-0.33
1549.0,-10.582,-1.071,1.043,-0.777,-0.415,-0.33
1553.0,-10.517,-1.061,1.023,-0.791,-0.394,-0.313
1558.0,-10.517,-1.061,1.023,-0.791,-0.394,-0.313
1562.0,-10.384,-1.049,0.997,-0.791,-0.36,-0.305
1566.0,-10.384,-1.049,0.997,-0.798,-0.36,-0.305
1570.0,-10.384,-1.049,0.997,-0.798,-0.36,-0.305
1574.0,-10.088,-1.043,1.025,-0.797,-0.322,-0.301
1578.0,-10.088,-1.043,1.025,-0.797,-0.322,-0.301
1583.0,-9.666,-1.033,1.035,-0.791,-0.287,-0.303
1587.0,-9.666,-1.033,1.035,-0.791,-0.287,-0.303
1591.0,-9.666,-1.018,1.006,-0.791,-0.287,-0.303
1595.0,-9.296,-1.018,1.006,-0.777,-0.251,-0.317
1599.0,-9.296,-1.018,1.006,-0.777,-0.251,-0.317
1603.0,-9.14,-0.997,0.906,-0.757,-0.208,-0.344
1607.0,-9.14,-0.997,0.906,-0.757,-0.208,-0.344
1611.0,-9.211,-0.981,0.79,-0.757,-0.15,-0.372
1615.0,-9.211,-0.981,0.79,-0.734,-0.15,-0.372
1619.0,-9.211,-0.981,0.79,-0.734,-0.15,-0.372
1623.0,-9.264,-0.998,0.767,-0.71,-0.082,-0.39
1628.0,-9.264,-0.998,0.767,-0.71,-0.082,-0.39
1632.0,-9.06,-1.027,0.821,-0.687,-0.023,-0.392
1636.0,-9.06,-1.027,0.821,-0.687,-0.023,-0.392
1640.0,-9.06,-1.027,0.821,-0.687,-0.023,-0.392
1644.0,-8.986,-1.081,0.829,-0.662,0.032,-0.383
1648.0,-8.986,-1.081,0.829,-0.662,0.032,-0.383
1652.0,-9.409,-1.108,0.82,-0.636,0.11,-0.368
1656.0,-9.409,-1.108,0.82,-0.636,0.11,-0.368
1660.0,-9.409,-1.108,0.949,-0.636,0.11,-0.368
1664.0,-9.819,-1.128,0.949,-0.606,0.2,-0.332
1668.0,-9.819,-1.128,0.949,-0.606,0.2,-0.332
1672.0,-9.508,-1.162,1.246,-0.573,0.249,-0.269
1676.0,-9.508,-1.162,1.246,-0.573,0.249,-0.269
1680.0,-8.724,-1.217,1.446,-0.573,0.249,-0.269
1684.0,-8.724,-1.217,1.446,-0.533,0.245,-0.197
1688.0,-8.724,-1.217,1.446,-0.533,0.245,-0.197
1692.0,-8.125,-1.229,1.476,-0.481,0.232,-0.144
1696.0,-8.125,-1.229,1.476,-0.481,0.232,-0.144
1700.0,-8.006,-1.169,1.315,-0.481,0.232,-0.112
1704.0,-8.006,-1.169,1.315,-0.42,0.246,-0.112
1708.0,-8.006,-1.169,1.315,-0.42,0.246,-0.112
1712.0,-8.291,-1.067,1.168,-0.369,0.292,-0.07
1716.0,-8.291,-1.067,1.168,-0.369,0.292,-0.07
1720.0,-8.585,-0.988,1.088,-0.369,0.353,0.007
1724.0,-8.585,-0.988,1.088,-0.336,0.353,0.007
1728.0,-8.585,-0.988,1.088,-0.336,0.353,0.007
1731.0,-8.736,-0.955,1.109,-0.322,0.411,0.119
1735.0,-8.736,-0.955,1.109,-0.322,0.411,0.119
1739.0,-8.987,-0.949,1.14,-0.322,0.411,0.25
1743.0,-8.987,-0.949,1.14,-0.322,0.47,0.25
1747.0,-8.987,-0.949,1.14,-0.322,0.47,0.25
1751.0,-9.473,-0.992,1.217,-0.334,0.545,0.391
1755.0,-9.473,-0.992,1.217,-0.334,0.545,0.391
1759.0,-10.023,-1.019,1.357,-0.334,0.545,0.391
1763.0,-10.023,-1.019,1.357,-0.356,0.624,0.542
1767.0,-10.023,-1.019,1.357,-0.356,0.624,0.542
1771.0,-10.326,-1.03,1.53,-0.383,0.686,0.701
1775.0,-10.326,-1.03,1.53,-0.383,0.686,0.701
1779.0,-10.414,-1.01,1.639,-0.383,0.686,0.852
1783.0,-10.414,-1.01,1.639,-0.424,0.732,0.852
1787.0,-10.414,-1.01,1.639,-0.424,0.732,0.852
1791.0,-10.52,-0.924,1.789,-0.489,0.776,0.98
1795.0,-10.52,-0.924,1.789,-0.489,0.776,0.98
1799.0,-10.331,-0.641,2.055,-0.489,0.823,1.082
1803.0,-10.331,-0.641,2.055,-0.57,0.823,1.082
1807.0,-10.331,-0.641,2.055,-0.57,0.823,1.082
1811.0,-9.639,0.146,2.607,-0.7,0.887,1.149
1815.0,-9.639,0.146,2.607,-0.7,0.887,1.149
1818.0,-9.367,1.023,3.212,-0.7,0.887,1.165
1822.0,-9.367,1.023,3.212,-0.942,0.97,1.165
1826.0,-9.367,1.023,3.212,-0.942,0.97,1.165
1830.0,-9.979,1.339,3.411,-1.293,1.016,1.155
1834.0,-9.979,1.339,3.411,-1.293,1.016,1.155
1837.0,-9.979,1.339,3.118,-1.293,1.016,1.155
1841.0,-10.764,0.913,3.118,-1.669,0.979,1.158
1845.0,-10.764,0.913,3.118,-1.669,0.979,1.158
1849.0,-10.994,0.032,2.651,-1.956,0.887,1.188
1853.0,-10.994,0.032,2.651,-1.956,0.887,1.188
1857.0,-10.994,0.032,2.651,-1.956,0.887,1.188
1861.0,-10.808,-0.865,2.326,-2.081,0.802,1.24
1865.0,-10.808,-0.865,2.326,-2.081,0.802,1.24
1869.0,-10.639,-1.679,2.045,-2.045,0.749,1.312
1873.0,-10.639,-1.679,2.045,-2.045,0.749,1.312
1877.0,-10.639,-1.679,2.045,-2.045,0.749,1.312
1881.0,-10.593,-2.371,1.921,-1.876,0.714,1.402
1885.0,-10.593,-2.371,1.921,-1.876,0.714,1.402
1889.0,-10.71,-2.834,1.983,-1.608,0.683,1.493
1893.0,-10.71,-2.834,1.983,-1.608,0.683,1.493
1897.0,-10.71,-2.834,2.155,-1.608,0.683,1.493
1901.0,-10.858,-3.139,2.155,-1.281,0.643,1.562
1905.0,-10.858,-3.139,2.155,-1.281,0.643,1.562
1909.0,-10.835,-3.374,2.36,-0.926,0.574,1.599
1913.0,-10.835,-3.374,2.36,-0.926,0.574,1.599
1917.0,-10.522,-3.549,2.49,-0.926,0.574,1.599
1921.0,-10.522,-3.549,2.49,-0.556,0.479,1.602
1925.0,-10.522,-3.549,2.49,-0.556,0.479,1.602
1929.0,-10.041,-3.608,2.502,-0.179,0.376,1.568
1933.0,-10.041,-3.608,2.502,-0.179,0.376,1.568
1937.0,-9.669,-3.538,2.44,-0.179,0.376,1.506
1941.0,-9.669,-3.538,2.44,0.188,0.29,1.506
1944.0,-9.669,-3.538,2.44,0.188,0.29,1.506
1948.0,-9.374,-3.379,2.277,0.531,0.228,1.429
1952.0,-9.374,-3.379,2.277,0.531,0.228,1.429
1956.0,-9.374,-3.379,2.105,0.531,0.228,1.429
1960.0,-9.294,-3.194,2.105,0.836,0.189,1.348
1963.0,-9.294,-3.194,2.105,0.836,0.189,1.348
1967.0,-9.532,-2.998,2.052,1.099,0.173,1.265
1971.0,-9.532,-2.998,2.052,1.099,0.173,1.265
1975.0,-9.532,-2.998,2.052,1.099,0.173,1.265
1979.0,-9.836,-2.807,2.051,1.321,0.16,1.181
1983.0,-9.836,-2.807,2.051,1.321,0.16,1.181
1986.0,-10.016,-2.59,1.991,1.499,0.135,1.094
1990.0,-10.016,-2.59,1.991,1.499,0.135,1.094
1994.0,-10.016,-2.59,1.991,1.499,0.135,1.094
1998.0,-10.157,-2.349,1.917,1.626,0.106,0.998
2002.0,-10.157,-2.349,1.917,1.626,0.106,0.998
2006.0,-10.291,-2.109,1.907,1.626,0.106,0.888
2010.0,-10.291,-2.109,1.907,1.705,0.079,0.888
2014.0,-10.291,-2.109,1.907,1.705,0.079,0.888
2018.0,-10.384,-1.849,1.857,1.736,0.046,0.764
2022.0,-10.384,-1.849,1.857,1.736,0.046,0.764
2025.0,-10.573,-1.594,1.834,1.736,0.046,0.764
2029.0,-10.573,-1.594,1.834,1.718,0.021,0.634
2033.0,-10.573,-1.594,1.834,1.718,0.021,0.634
2037.0,-10.796,-1.326,1.927,1.655,-0.001,0.501
2041.0,-10.796,-1.326,1.927,1.655,-0.001,0.501
2045.0,-10.684,-1.082,2.008,1.655,-0.001,0.501
2049.0,-10.684,-1.082,2.008,1.554,-0.05,0.377
2053.0,-10.684,-1.082,2.008,1.554,-0.05,0.377
2057.0,-10.299,-0.881,1.886,1.416,-0.125,0.26
2061.0,-10.299,-0.881,1.886,1.416,-0.125,0.26
2065.0,-10.04,-0.752,1.768,1.416,-0.125,0.141
2069.0,-10.04,-0.752,1.768,1.248,-0.187,0.141
2073.0,-10.04,-0.752,1.768,1.248,-0.187,0.141
2077.0,-9.89,-0.626,1.742,1.06,-0.225,0.02
2081.0,-9.89,-0.626,1.742,1.06,-0.225,0.02
2085.0,-9.457,-0.568,1.685,1.06,-0.272,-0.09
2089.0,-9.457,-0.568,1.685,0.86,-0.272,-0.09
2093.0,-9.457,-0.568,1.685,0.86,-0.272,-0.09
2097.0,-8.958,-0.558,1.548,0.651,-0.323,-0.187
2101.0,-8.958,-0.558,1.548,0.651,-0.323,-0.187
2105.0,-8.917,-0.572,1.488,0.439,-0.339,-0.281
2109.0,-8.917,-0.572,1.488,0.439,-0.339,-0.281
2113.0,-8.917,-0.572,1.488,0.439,-0.339,-0.281
2117.0,-9.249,-0.628,1.506,0.235,-0.323,-0.366
2121.0,-9.249,-0.628,1.506,0.235,-0.323,-0.366
2125.0,-9.686,-0.734,1.543,0.043,-0.301,-0.427
2129.0,-9.686,-0.734,1.543,0.043,-0.301,-0.427
2133.0,-9.686,-0.734,1.543,0.043,-0.301,-0.427
2137.0,-10.334,-0.884,1.714,-0.137,-0.281,-0.468
2141.0,-10.334,-0.884,1.714,-0.137,-0.281,-0.468
2145.0,-10.941,-1.044,1.965,-0.292,-0.275,-0.494
2149.0,-10.941,-1.044,1.965,-0.292,-0.275,-0.494
2153.0,-10.941,-1.205,2.175,-0.292,-0.275,-0.494
2158.0,-11.17,-1.205,2.175,-0.415,-0.305,-0.51
2162.0,-11.17,-1.205,2.175,-0.415,-0.305,-0.51
2166.0,-10.903,-1.342,2.268,-0.509,-0.366,-0.519
2170.0,-10.903,-1.342,2.268,-0.509,-0.366,-0.519
2174.0,-10.222,-1.463,2.191,-0.57,-0.435,-0.537
2178.0,-10.222,-1.463,2.191,-0.57,-0.435,-0.537
2183.0,-10.222,-1.463,2.191,-0.57,-0.435,-0.537
2187.0,-9.428,-1.525,2.024,-0.602,-0.488,-0.572
2191.0,-9.428,-1.525,2.024,-0.602,-0.488,-0.572
2195.0,-8.833,-1.487,1.871,-0.611,-0.511,-0.62
2199.0,-8.833,-1.487,1.871,-0.611,-0.511,-0.62
2203.0,-8.337,-1.467,1.781,-0.611,-0.511,-0.62
2207.0,-8.337,-1.467,1.781,-0.598,-0.518,-0.67
2211.0,-8.337,-1.467,1.781,-0.598,-0.518,-0.67
2215.0,-7.897,-1.469,1.621,-0.568,-0.523,-0.714
2219.0,-7.897,-1.469,1.621,-0.568,-0.523,-0.714
2224.0,-7.69,-1.501,1.513,-0.526,-0.512,-0.755
2228.0,-7.69,-1.501,1.513,-0.526,-0.512,-0.755
2232.0,-7.69,-1.501,1.513,-0.526,-0.512,-0.755
2236.0,-7.859,-1.54,1.517,-0.467,-0.48,-0.79
2240.0,-7.859,-1.54,1.517,-0.467,-0.48,-0.79
2244.0,-8.261,-1.634,1.542,-0.39,-0.442,-0.812
2248.0,-8.261,-1.634,1.542,-0.39,-0.442,-0.812
2252.0,-8.261,-1.634,1.571,-0.39,-0.442,-0.812
2256.0,-8.787,-1.756,1.571,-0.301,-0.407,-0.817
2260.0,-8.787,-1.756,1.571,-0.301,-0.407,-0.817
2264.0,-9.373,-1.871,1.627,-0.202,-0.377,-0.807
2268.0,-9.373,-1.871,1.627,-0.202,-0.377,-0.807
2272.0,-10.046,-2.0,1.702,-0.202,-0.351,-0.788
2277.0,-10.046,-2.0,1.702,-0.094,-0.351,-0.788
2281.0,-10.046,-2.0,1.702,-0.094,-0.351,-0.788
2285.0,-10.71,-2.136,1.788,0.024,-0.329,-0.76
2289.0,-10.71,-2.136,1.788,0.024,-0.329,-0.76
2293.0,-11.277,-2.235,1.943,0.151,-0.319,-0.72
2297.0,-11.277,-2.235,1.943,0.151,-0.319,-0.72
2301.0,-11.277,-2.235,2.046,0.151,-0.319,-0.72
2305.0,-11.495,-2.311,2.046,0.285,-0.333,-0.671
2309.0,-11.495,-2.311,2.046,0.285,-0.333,-0.671
2314.0,-11.342,-2.301,2.116,0.424,-0.367,-0.627
2318.0,-11.342,-2.301,2.116,0.424,-0.367,-0.627
2322.0,-10.87,-2.182,2.1,0.424,-0.367,-0.607
2326.0,-10.87,-2.182,2.1,0.565,-0.411,-0.607
2330.0,-10.87,-2.182,2.1,0.565,-0.411,-0.607
2334.0,-10.255,-1.976,1.971,0.697,-0.453,-0.614
2338.0,-10.255,-1.976,1.971,0.697,-0.453,-0.614
2342.0,-9.716,-1.745,1.776,0.816,-0.483,-0.649
2346.0,-9.716,-1.745,1.776,0.816,-0.483,-0.649
2350.0,-9.716,-1.745,1.776,0.816,-0.483,-0.649
2354.0,-9.382,-1.51,1.555,0.921,-0.494,-0.702
2358.0,-9.382,-1.51,1.555,0.921,-0.494,-0.702
2362.0,-9.439,-1.319,1.301,1.01,-0.482,-0.765
2366.0,-9.439,-1.319,1.301,1.01,-0.482,-0.765
2370.0,-9.439,-1.319,1.301,1.01,-0.482,-0.765
2374.0,-10.105,-1.236,1.241,1.094,-0.436,-0.83
2378.0,-10.105,-1.236,1.241,1.094,-0.436,-0.83
2382.0,-11.188,-1.228,1.713,1.251,-0.363,-0.889
2386.0,-11.188,-1.228,1.713,1.251,-0.363,-0.889
2390.0,-11.188,-1.183,2.464,1.251,-0.363,-0.889
2394.0,-12.002,-1.183,2.464,1.582,-0.321,-0.916
2399.0,-12.002,-1.183,2.464,1.582,-0.321,-0.916
2403.0,-12.497,-1.04,2.682,2.083,-0.352,-0.87
2407.0,-12.497,-1.04,2.682,2.083,-0.352,-0.87
2411.0,-12.508,-0.796,2.269,2.083,-0.425,-0.74
2415.0,-12.508,-0.796,2.269,2.599,-0.425,-0.74
2419.0,-12.508,-0.796,2.269,2.599,-0.425,-0.74
2423.0,-11.816,-0.498,1.731,2.944,-0.486,-0.576
2427.0,-11.816,-0.498,1.731,2.944,-0.486,-0.576
2431.0,-10.98,-0.469,1.328,3.069,-0.518,-0.46
2435.0,-10.98,-0.469,1.328,3.069,-0.518,-0.46
2439.0,-10.98,-0.469,1.328,3.069,-0.518,-0.46
2443.0,-10.37,-0.453,1.058,3.037,-0.539,-0.438
2447.0,-10.37,-0.453,1.058,3.037,-0.539,-0.438
2452.0,-9.842,-0.268,0.863,2.908,-0.558,-0.494
2456.0,-9.842,-0.268,0.863,2.908,-0.558,-0.494
2460.0,-9.842,0.151,0.76,2.908,-0.558,-0.494
2463.0,-9.42,0.151,0.76,2.708,-0.571,-0.586
2467.0,-9.42,0.151,0.76,2.708,-0.571,-0.586
2471.0,-9.08,0.617,0.692,2.449,-0.581,-0.667
2475.0,-9.08,0.617,0.692,2.449,-0.581,-0.667
2479.0,-9.08,0.617,0.696,2.449,-0.581,-0.667
2483.0,-8.718,1.003,0.696,2.142,-0.591,-0.709
2487.0,-8.718,1.003,0.696,2.142,-0.591,-0.709
2491.0,-8.265,1.234,0.691,1.811,-0.594,-0.714
2495.0,-8.265,1.234,0.691,1.811,-0.594,-0.714
2499.0,-8.265,1.234,0.691,1.811,-0.594,-0.714
2503.0,-7.79,1.356,0.701,1.471,-0.581,-0.691
2506.0,-7.79,1.356,0.701,1.471,-0.581,-0.691
2510.0,-7.482,1.313,0.638,1.137,-0.543,-0.655
2514.0,-7.482,1.313,0.638,1.137,-0.543,-0.655
2518.0,-7.482,1.313,0.638,1.137,-0.543,-0.655
2522.0,-7.383,1.237,0.592,0.808,-0.474,-0.615
2526.0,-7.383,1.237,0.592,0.808,-0.474,-0.615
2530.0,-7.509,1.142,0.586,0.484,-0.376,-0.565
2534.0,-7.509,1.142,0.586,0.484,-0.376,-0.565
2538.0,-7.509,1.142,0.586,0.484,-0.376,-0.565
2542.0,-7.862,1.007,0.648,0.156,-0.253,-0.5
2545.0,-7.862,1.007,0.648,0.156,-0.253,-0.5
2549.0,-8.268,0.804,0.751,-0.176,-0.121,-0.419
2553.0,-8.268,0.804,0.751,-0.176,-0.121,-0.419
2557.0,-8.268,0.804,0.751,-0.176,-0.121,-0.419
2561.0,-8.686,0.573,0.917,-0.506,0.011,-0.325
2565.0,-8.686,0.573,0.917,-0.506,0.011,-0.325
2569.0,-9.261,0.346,1.117,-0.833,0.138,-0.219
2573.0,-9.261,0.346,1.117,-0.833,0.138,-0.219
2577.0,-9.261,0.346,1.117,-0.833,0.138,-0.219
2581.0,-9.909,0.09,1.36,-1.146,0.26,-0.1
2585.0,-9.909,0.09,1.36,-1.146,0.26,-0.1
2589.0,-10.458,-0.056,1.768,-1.432,0.357,0.037
2593.0,-10.458,-0.056,1.768,-1.432,0.357,0.037
2597.0,-10.458,-0.056,1.768,-1.432,0.357,0.037
2601.0,-10.798,-0.217,2.104,-1.675,0.416,0.19
2605.0,-10.798,-0.217,2.104,-1.675,0.416,0.19
2609.0,-10.772,-0.333,2.422,-1.871,0.438,0.337
2613.0,-10.772,-0.333,2.422,-1.871,0.438,0.337
2617.0,-10.772,-0.333,2.422,-1.871,0.438,0.337
2621.0,-10.504,-0.419,2.686,-1.998,0.426,0.478
2625.0,-10.504,-0.419,2.686,-1.998,0.426,0.478
2629.0,-10.05,-0.484,2.803,-2.033,0.381,0.611
2633.0,-10.05,-0.484,2.803,-2.033,0.381,0.611
2637.0,-10.05,-0.484,2.803,-2.033,0.381,0.611
2641.0,-9.373,-0.47,2.721,-1.995,0.314,0.72
2645.0,-9.373,-0.47,2.721,-1.995,0.314,0.72
2648.0,-8.493,-0.606,2.23,-1.934,0.259,0.784
2652.0,-8.493,-0.606,2.23,-1.934,0.259,0.784
2656.0,-8.493,-0.606,2.23,-1.934,0.259,0.784
2660.0,-7.807,-0.894,1.662,-1.905,0.239,0.792
2664.0,-7.807,-0.894,1.662,-1.905,0.239,0.792
2668.0,-7.515,-1.071,1.451,-1.874,0.265,0.755
2672.0,-7.515,-1.071,1.451,-1.874,0.265,0.755
2676.0,-7.515,-1.071,1.451,-1.874,0.265,0.755
2680.0,-7.405,-1.228,1.298,-1.816,0.315,0.696
2684.0,-7.405,-1.228,1.298,-1.816,0.315,0.696
2688.0,-7.604,-1.373,1.303,-1.748,0.367,0.639
2691.0,-7.604,-1.373,1.303,-1.748,0.367,0.639
2695.0,-7.604,-1.373,1.303,-1.748,0.367,0.639
2699.0,-8.26,-1.497,1.523,-1.654,0.419,0.602
2703.0,-8.26,-1.497,1.523,-1.654,0.419,0.602
2707.0,-9.109,-1.665,1.814,-1.515,0.459,0.596
2711.0,-9.109,-1.665,1.814,-1.515,0.459,0.596
2715.0,-9.109,-1.665,1.814,-1.515,0.459,0.596
2719.0,-9.946,-1.906,2.124,-1.333,0.474,0.617
2723.0,-9.946,-1.906,2.124,-1.333,0.474,0.617
2727.0,-10.698,-2.176,2.454,-1.333,0.462,0.655
2731.0,-10.698,-2.176,2.454,-1.115,0.462,0.655
2735.0,-10.698,-2.176,2.454,-1.115,0.462,0.655
2739.0,-11.21,-2.411,2.69,-0.872,0.422,0.689
2743.0,-11.21,-2.411,2.69,-0.872,0.422,0.689
2747.0,-11.228,-2.575,2.791,-0.619,0.356,0.706
2751.0,-11.228,-2.575,2.791,-0.619,0.356,0.706
2755.0,-11.228,-2.575,2.791,-0.619,0.356,0.706
2759.0,-10.899,-2.615,2.72,-0.378,0.282,0.698
2763.0,-10.899,-2.615,2.72,-0.378,0.282,0.698
2766.0,-10.587,-2.5,2.601,-0.167,0.231,0.664
2770.0,-10.587,-2.5,2.601,-0.167,0.231,0.664
2774.0,-10.587,-2.5,2.601,-0.167,0.231,0.664
2778.0,-10.233,-2.344,2.443,0.013,0.202,0.613
2782.0,-10.233,-2.344,2.443,0.013,0.202,0.613
2786.0,-9.845,-2.209,2.227,0.162,0.184,0.555
2790.0,-9.845,-2.209,2.227,0.162,0.184,0.555
2794.0,-9.845,-2.209,2.227,0.162,0.184,0.555
2798.0,-9.75,-2.088,2.105,0.293,0.183,0.493
2802.0,-9.75,-2.088,2.105,0.293,0.183,0.493
2805.0,-9.848,-1.979,2.022,0.293,0.183,0.432
2809.0,-9.848,-1.979,2.022,0.418,0.196,0.432
2813.0,-9.848,-1.979,2.022,0.418,0.196,0.432
2817.0,-9.999,-1.869,2.012,0.541,0.215,0.379
2821.0,-9.999,-1.869,2.012,0.541,0.215,0.379
2824.0,-9.999,-1.869,2.012,0.541,0.215,0.379
2828.0,-10.111,-1.722,2.093,0.655,0.226,0.336
2832.0,-10.111,-1.722,2.093,0.655,0.226,0.336
2836.0,-10.15,-1.579,2.179,0.75,0.224,0.3
2840.0,-10.15,-1.579,2.179,0.75,0.224,0.3
2844.0,-10.15,-1.579,2.179,0.75,0.224,0.3
2848.0,-10.19,-1.412,2.244,0.819,0.212,0.268
2852.0,-10.19,-1.412,2.244,0.819,0.212,0.268
2856.0,-10.113,-1.218,2.305,0.855,0.191,0.239
2860.0,-10.113,-1.218,2.305,0.855,0.191,0.239
2863.0,-10.113,-1.218,2.305,0.855,0.191,0.239
2867.0,-9.772,-1.037,2.289,0.852,0.152,0.213
2871.0,-9.772,-1.037,2.289,0.852,0.152,0.213
2875.0,-9.317,-0.874,2.176,0.81,0.106,0.184
2879.0,-9.317,-0.874,2.176,0.81,0.106,0.184
2883.0,-9.317,-0.874,2.176,0.81,0.106,0.184
2886.0,-8.98,-0.707,2.012,0.731,0.076,0.141
2890.0,-8.98,-0.707,2.012,0.731,0.076,0.141
2894.0,-8.827,-0.553,1.921,0.731,0.076,0.141
2898.0,-8.827,-0.553,1.921,0.621,0.066,0.092
2902.0,-8.827,-0.553,1.921,0.621,0.066,0.092
2906.0,-8.719,-0.42,1.872,0.487,0.06,0.047
2909.0,-8.719,-0.42,1.872,0.487,0.06,0.047
2913.0,-8.719,-0.42,1.872,0.487,0.06,0.047
2917.0,-8.629,-0.361,1.771,0.335,0.052,0.012
2921.0,-8.629,-0.361,1.771,0.335,0.052,0.012
2925.0,-8.718,-0.326,1.677,0.17,0.053,-0.019
2929.0,-8.718,-0.326,1.677,0.17,0.053,-0.019
2932.0,-8.718,-0.326,1.677,0.17,0.053,-0.019
2936.0,-9.075,-0.276,1.75,-0.001,0.074,-0.046
2940.0,-9.075,-0.276,1.75,-0.001,0.074,-0.046
2944.0,-9.33,-0.261,1.889,-0.17,0.086,-0.056
2948.0,-9.33,-0.261,1.889,-0.17,0.086,-0.056
2952.0,-9.33,-0.261,1.889,-0.17,0.086,-0.056
2956.0,-9.266,-0.324,1.947,-0.338,0.069,-0.051
2960.0,-9.266,-0.324,1.947,-0.338,0.069,-0.051
2964.0,-9.236,-0.451,1.899,-0.502,0.049,-0.05
2968.0,-9.236,-0.451,1.899,-0.502,0.049,-0.05
2972.0,-9.236,-0.451,1.899,-0.502,0.049,-0.05
2976.0,-9.479,-0.55,1.855,-0.653,0.055,-0.062
2980.0,-9.479,-0.55,1.855,-0.653,0.055,-0.062
2984.0,-9.821,-0.602,1.939,-0.789,0.074,-0.073
2988.0,-9.821,-0.602,1.939,-0.789,0.074,-0.073
2992.0,-9.821,-0.602,1.939,-0.789,0.074,-0.073
2996.0,-9.838,-0.665,2.034,-0.909,0.073,-0.069
3000.0,-9.838,-0.665,2.034,-0.909,0.073,-0.069
