deltaTime,Acc_X,Acc_Y,Acc_Z,Gyro_X,Gyro_Y,Gyro_Z
0.0,-8.408,-2.48,4.429,0.042,0.12,0.364
3.0,-8.655,-2.094,4.429,0.11,0.16,0.343
6.0,-8.655,-2.094,4.429,0.11,0.16,0.343
9.0,-8.655,-2.094,4.429,0.11,0.16,0.343
12.0,-8.857,-2.223,4.689,0.105,0.178,0.334
15.0,-8.857,-2.223,4.689,0.105,0.178,0.334
18.0,-8.857,-2.223,4.689,0.105,0.178,0.334
21.0,-9.006,-2.642,4.882,0.107,0.162,0.344
24.0,-9.006,-2.642,4.882,0.107,0.162,0.344
27.0,-9.006,-2.642,4.882,0.107,0.162,0.344
30.0,-9.006,-2.642,4.936,0.107,0.162,0.344
33.0,-9.128,-2.955,4.936,0.154,0.108,0.346
36.0,-9.128,-2.955,4.936,0.154,0.108,0.346
39.0,-9.128,-2.955,4.936,0.154,0.108,0.346
43.0,-9.331,-3.139,4.818,0.222,0.066,0.329
46.0,-9.331,-3.139,4.818,0.222,0.066,0.329
50.0,-9.331,-3.139,4.994,0.222,0.066,0.329
54.0,-9.127,-3.386,4.994,0.308,0.023,0.307
57.0,-9.127,-3.386,4.994,0.308,0.023,0.307
61.0,-8.604,-3.134,4.582,0.414,-0.031,0.27
65.0,-8.604,-3.134,4.582,0.414,-0.031,0.27
68.0,-8.604,-3.134,4.582,0.414,-0.031,0.27
72.0,-8.483,-2.874,4.326,0.481,-0.09,0.206
76.0,-8.483,-2.874,4.326,0.481,-0.09,0.206
79.0,-8.483,-2.874,3.839,0.481,-0.09,0.206
83.0,-8.236,-2.699,3.839,0.512,-0.129,0.145
87.0,-8.236,-2.699,3.839,0.512,-0.129,0.145
91.0,-8.186,-2.609,3.575,0.521,-0.148,0.085
94.0,-8.186,-2.609,3.575,0.521,-0.148,0.085
98.0,-8.186,-2.609,3.575,0.521,-0.148,0.085
102.0,-8.204,-2.509,3.381,0.542,-0.171,0.028
106.0,-8.204,-2.509,3.381,0.542,-0.171,0.028
110.0,-8.227,-2.535,3.162,0.542,-0.171,0.028
113.0,-8.227,-2.535,3.162,0.562,-0.208,-0.033
117.0,-8.227,-2.535,3.162,0.562,-0.208,-0.033
121.0,-8.268,-2.568,2.956,0.584,-0.227,-0.093
125.0,-8.268,-2.568,2.956,0.584,-0.227,-0.093
129.0,-8.268,-2.203,2.739,0.584,-0.227,-0.093
133.0,-8.506,-2.203,2.739,0.578,-0.214,-0.164
137.0,-8.506,-2.203,2.739,0.578,-0.214,-0.164
141.0,-8.969,-1.866,2.844,0.483,-0.187,-0.234
145.0,-8.969,-1.866,2.844,0.483,-0.187,-0.234
148.0,-8.969,-1.866,2.971,0.483,-0.187,-0.234
152.0,-9.022,-1.652,2.971,0.32,-0.166,-0.277
156.0,-9.022,-1.652,2.971,0.32,-0.166,-0.277
160.0,-9.075,-1.582,3.088,0.122,-0.134,-0.303
164.0,-9.075,-1.582,3.088,0.122,-0.134,-0.303
168.0,-9.075,-1.582,3.088,0.122,-0.134,-0.303
172.0,-9.412,-1.632,3.232,-0.092,-0.09,-0.322
176.0,-9.412,-1.632,3.232,-0.092,-0.09,-0.322
180.0,-9.741,-1.901,3.343,-0.297,-0.045,-0.334
184.0,-9.741,-1.901,3.343,-0.297,-0.045,-0.334
188.0,-9.741,-1.901,3.343,-0.297,-0.045,-0.334
192.0,-9.838,-2.169,3.347,-0.452,-0.012,-0.334
196.0,-9.838,-2.169,3.347,-0.452,-0.012,-0.334
200.0,-9.917,-2.291,3.445,-0.566,0.012,-0.331
204.0,-9.917,-2.291,3.445,-0.566,0.012,-0.331
208.0,-9.917,-2.291,3.548,-0.566,0.012,-0.331
212.0,-9.97,-2.55,3.548,-0.653,0.034,-0.327
215.0,-9.97,-2.55,3.548,-0.653,0.034,-0.327
219.0,-9.936,-2.807,3.68,-0.696,0.055,-0.324
223.0,-9.936,-2.807,3.68,-0.696,0.055,-0.324
227.0,-9.936,-2.807,3.68,-0.696,0.055,-0.324
231.0,-9.693,-3.334,3.772,-0.679,0.07,-0.324
235.0,-9.693,-3.334,3.772,-0.679,0.07,-0.324
239.0,-9.244,-3.697,3.883,-0.562,0.087,-0.323
243.0,-9.244,-3.697,3.883,-0.562,0.087,-0.323
247.0,-9.244,-3.697,3.883,-0.562,0.087,-0.323
251.0,-9.037,-4.32,4.077,-0.341,0.117,-0.327
255.0,-9.037,-4.32,4.077,-0.341,0.117,-0.327
258.0,-9.201,-4.506,4.247,-0.014,0.151,-0.333
262.0,-9.201,-4.506,4.247,-0.014,0.151,-0.333
266.0,-9.201,-4.506,4.247,-0.014,0.151,-0.333
270.0,-9.198,-4.529,4.088,0.362,0.156,-0.352
274.0,-9.198,-4.529,4.088,0.362,0.156,-0.352
278.0,-9.077,-4.303,3.818,0.755,0.122,-0.382
282.0,-9.077,-4.303,3.818,0.755,0.122,-0.382
285.0,-9.077,-4.303,3.818,0.755,0.122,-0.382
289.0,-8.928,-3.806,3.562,1.112,0.097,-0.428
293.0,-8.928,-3.806,3.562,1.112,0.097,-0.428
297.0,-9.287,-3.561,3.252,1.112,0.097,-0.428
301.0,-9.287,-3.561,3.252,1.388,0.129,-0.472
305.0,-9.287,-3.561,3.252,1.388,0.129,-0.472
308.0,-9.519,-3.531,2.966,1.631,0.142,-0.462
312.0,-9.519,-3.531,2.966,1.631,0.142,-0.462
316.0,-9.519,-3.531,2.966,1.631,0.142,-0.462
320.0,-9.489,-3.31,2.828,1.874,0.138,-0.44
324.0,-9.489,-3.31,2.828,1.874,0.138,-0.44
327.0,-9.471,-2.977,2.754,2.079,0.143,-0.456
331.0,-9.471,-2.977,2.754,2.079,0.143,-0.456
335.0,-9.471,-2.977,2.754,2.079,0.143,-0.456
339.0,-9.471,-2.667,2.723,2.22,0.135,-0.492
343.0,-9.471,-2.667,2.723,2.22,0.135,-0.492
347.0,-9.832,-2.224,2.652,2.22,0.135,-0.519
350.0,-9.832,-2.224,2.652,2.301,0.126,-0.519
354.0,-9.832,-2.224,2.652,2.301,0.126,-0.519
358.0,-10.748,-1.616,2.712,2.295,0.094,-0.546
362.0,-10.748,-1.616,2.712,2.295,0.094,-0.546
366.0,-10.748,-1.269,2.92,2.295,0.094,-0.546
370.0,-10.583,-1.269,2.92,2.205,0.039,-0.553
374.0,-10.583,-1.269,2.92,2.205,0.039,-0.553
378.0,-10.592,-1.1,3.047,2.066,-0.013,-0.522
382.0,-10.592,-1.1,3.047,2.066,-0.013,-0.522
386.0,-10.592,-1.033,2.907,2.066,-0.013,-0.522
390.0,-9.731,-1.033,2.907,1.892,-0.065,-0.494
393.0,-9.731,-1.033,2.907,1.892,-0.065,-0.494
397.0,-8.532,-1.234,2.689,1.724,-0.04,-0.386
401.0,-8.532,-1.234,2.689,1.724,-0.04,-0.386
405.0,-8.532,-1.234,2.665,1.724,-0.04,-0.386
409.0,-9.8,-1.51,2.665,1.59,0.044,-0.283
413.0,-9.8,-1.51,2.665,1.59,0.044,-0.283
417.0,-9.874,-1.38,2.678,1.455,0.052,-0.301
421.0,-9.874,-1.38,2.678,1.455,0.052,-0.301
424.0,-9.874,-1.38,2.678,1.455,0.052,-0.301
428.0,-9.401,-1.426,2.719,1.3,0.03,-0.311
432.0,-9.401,-1.426,2.719,1.3,0.03,-0.311
436.0,-9.154,-1.339,2.877,1.136,0.028,-0.326
440.0,-9.154,-1.339,2.877,1.136,0.028,-0.326
443.0,-9.154,-1.339,2.877,1.136,0.028,-0.326
447.0,-8.782,-1.484,2.925,0.966,0.054,-0.351
451.0,-8.782,-1.484,2.925,0.966,0.054,-0.351
455.0,-8.688,-1.752,2.999,0.966,0.054,-0.351
459.0,-8.688,-1.752,2.999,0.825,0.1,-0.368
463.0,-8.688,-1.752,2.999,0.825,0.1,-0.368
466.0,-8.788,-1.964,3.118,0.739,0.151,-0.388
470.0,-8.788,-1.964,3.118,0.739,0.151,-0.388
474.0,-8.788,-1.964,3.118,0.739,0.151,-0.388
478.0,-8.937,-2.115,3.274,0.699,0.19,-0.413
482.0,-8.937,-2.115,3.274,0.699,0.19,-0.413
485.0,-8.894,-2.212,3.391,0.698,0.206,-0.436
489.0,-8.894,-2.212,3.391,0.698,0.206,-0.436
493.0,-8.894,-2.212,3.391,0.698,0.206,-0.436
497.0,-8.696,-2.297,3.377,0.726,0.203,-0.454
501.0,-8.696,-2.297,3.377,0.726,0.203,-0.454
505.0,-8.541,-2.402,3.383,0.726,0.203,-0.472
508.0,-8.541,-2.402,3.383,0.78,0.204,-0.472
512.0,-8.541,-2.402,3.383,0.78,0.204,-0.472
516.0,-8.484,-2.54,3.365,0.855,0.215,-0.487
520.0,-8.484,-2.54,3.365,0.855,0.215,-0.487
524.0,-8.484,-2.54,3.363,0.855,0.215,-0.487
527.0,-8.413,-2.684,3.363,0.947,0.229,-0.491
531.0,-8.413,-2.684,3.363,0.947,0.229,-0.491
535.0,-8.332,-2.842,3.433,1.052,0.242,-0.488
539.0,-8.332,-2.842,3.433,1.052,0.242,-0.488
543.0,-8.332,-2.842,3.433,1.052,0.242,-0.488
547.0,-8.282,-2.996,3.483,1.164,0.25,-0.479
550.0,-8.282,-2.996,3.483,1.164,0.25,-0.479
554.0,-8.334,-3.11,3.604,1.281,0.253,-0.468
558.0,-8.334,-3.11,3.604,1.281,0.253,-0.468
562.0,-8.334,-3.11,3.604,1.281,0.253,-0.468
566.0,-8.255,-3.167,3.67,1.397,0.24,-0.455
569.0,-8.255,-3.167,3.67,1.397,0.24,-0.455
573.0,-8.064,-3.15,3.552,1.397,0.24,-0.455
577.0,-8.064,-3.15,3.552,1.506,0.211,-0.451
581.0,-8.064,-3.15,3.552,1.506,0.211,-0.451
585.0,-8.053,-3.101,3.455,1.599,0.193,-0.459
589.0,-8.053,-3.101,3.455,1.599,0.193,-0.459
592.0,-8.053,-3.101,3.455,1.599,0.193,-0.459
596.0,-8.282,-3.025,3.44,1.673,0.192,-0.47
600.0,-8.282,-3.025,3.44,1.673,0.192,-0.47
604.0,-8.498,-2.843,3.38,1.729,0.184,-0.478
608.0,-8.498,-2.843,3.38,1.729,0.184,-0.478
611.0,-8.498,-2.843,3.38,1.729,0.184,-0.478
615.0,-8.614,-2.642,3.294,1.766,0.159,-0.488
619.0,-8.614,-2.642,3.294,1.766,0.159,-0.488
623.0,-8.707,-2.494,3.154,1.766,0.159,-0.512
627.0,-8.707,-2.494,3.154,1.786,0.13,-0.512
631.0,-8.707,-2.494,3.154,1.786,0.13,-0.512
634.0,-8.884,-2.361,2.984,1.79,0.11,-0.549
638.0,-8.884,-2.361,2.984,1.79,0.11,-0.549
642.0,-8.884,-2.361,2.874,1.79,0.11,-0.549
646.0,-9.181,-2.2,2.874,1.777,0.105,-0.59
650.0,-9.181,-2.2,2.874,1.777,0.105,-0.59
654.0,-9.531,-2.037,2.815,1.749,0.103,-0.632
657.0,-9.531,-2.037,2.815,1.749,0.103,-0.632
661.0,-9.531,-2.037,2.815,1.749,0.103,-0.632
665.0,-9.791,-1.85,2.746,1.708,0.091,-0.675
669.0,-9.791,-1.85,2.746,1.708,0.091,-0.675
673.0,-9.98,-1.666,2.673,1.651,0.071,-0.717
676.0,-9.98,-1.666,2.673,1.651,0.071,-0.717
680.0,-9.98,-1.666,2.673,1.651,0.071,-0.717
684.0,-10.177,-1.548,2.655,1.578,0.058,-0.758
688.0,-10.177,-1.548,2.655,1.578,0.058,-0.758
692.0,-10.504,-1.462,2.679,1.578,0.058,-0.758
696.0,-10.504,-1.462,2.679,1.493,0.058,-0.792
700.0,-10.504,-1.462,2.679,1.493,0.058,-0.792
704.0,-10.868,-1.384,2.771,1.398,0.061,-0.81
707.0,-10.868,-1.384,2.771,1.398,0.061,-0.81
711.0,-10.868,-1.323,2.867,1.398,0.061,-0.81
715.0,-11.051,-1.323,2.867,1.296,0.047,-0.815
719.0,-11.051,-1.323,2.867,1.296,0.047,-0.815
723.0,-10.906,-1.275,2.915,1.193,0.004,-0.817
727.0,-10.906,-1.275,2.915,1.193,0.004,-0.817
731.0,-10.906,-1.275,2.929,1.193,0.004,-0.817
735.0,-10.61,-1.202,2.929,1.094,-0.053,-0.83
739.0,-10.61,-1.202,2.929,1.094,-0.053,-0.83
743.0,-10.289,-1.122,2.885,1.003,-0.11,-0.857
747.0,-10.289,-1.122,2.885,1.003,-0.11,-0.857
751.0,-10.289,-0.992,2.782,1.003,-0.11,-0.857
755.0,-9.984,-0.992,2.782,0.918,-0.162,-0.891
759.0,-9.984,-0.992,2.782,0.918,-0.162,-0.891
763.0,-9.723,-0.845,2.655,0.836,-0.213,-0.921
767.0,-9.723,-0.845,2.655,0.836,-0.213,-0.921
770.0,-9.723,-0.845,2.538,0.836,-0.213,-0.921
774.0,-9.477,-0.704,2.538,0.755,-0.262,-0.949
778.0,-9.477,-0.704,2.538,0.755,-0.262,-0.949
782.0,-9.275,-0.568,2.465,0.675,-0.307,-0.977
786.0,-9.275,-0.568,2.465,0.675,-0.307,-0.977
790.0,-9.275,-0.568,2.465,0.675,-0.307,-0.977
794.0,-9.092,-0.436,2.412,0.593,-0.351,-1.001
798.0,-9.092,-0.436,2.412,0.593,-0.351,-1.001
802.0,-9.049,-0.299,2.406,0.507,-0.389,-1.016
806.0,-9.049,-0.299,2.406,0.507,-0.389,-1.016
809.0,-9.049,-0.299,2.406,0.507,-0.389,-1.016
813.0,-9.111,-0.184,2.384,0.41,-0.416,-1.013
817.0,-9.111,-0.184,2.384,0.41,-0.416,-1.013
821.0,-9.321,-0.103,2.379,0.299,-0.422,-0.987
825.0,-9.321,-0.103,2.379,0.299,-0.422,-0.987
829.0,-9.321,-0.103,2.379,0.299,-0.422,-0.987
833.0,-9.501,-0.068,2.419,0.172,-0.411,-0.933
837.0,-9.501,-0.068,2.419,0.172,-0.411,-0.933
841.0,-9.768,-0.064,2.49,0.032,-0.383,-0.857
845.0,-9.768,-0.064,2.49,0.032,-0.383,-0.857
849.0,-9.768,-0.064,2.49,0.032,-0.383,-0.857
852.0,-10.1,-0.054,2.738,-0.117,-0.346,-0.762
857.0,-10.1,-0.054,2.738,-0.117,-0.346,-0.762
861.0,-10.051,-0.089,2.908,-0.268,-0.332,-0.652
865.0,-10.051,-0.089,2.908,-0.268,-0.332,-0.652
869.0,-10.051,-0.089,2.908,-0.268,-0.332,-0.652
873.0,-9.751,-0.108,2.927,-0.422,-0.343,-0.544
877.0,-9.751,-0.108,2.927,-0.422,-0.343,-0.544
881.0,-9.614,-0.103,2.92,-0.579,-0.346,-0.458
885.0,-9.614,-0.103,2.92,-0.579,-0.346,-0.458
889.0,-9.614,-0.103,2.867,-0.579,-0.346,-0.458
893.0,-9.593,-0.078,2.867,-0.733,-0.33,-0.393
897.0,-9.593,-0.078,2.867,-0.733,-0.33,-0.393
901.0,-9.528,-0.061,2.874,-0.885,-0.31,-0.329
905.0,-9.528,-0.061,2.874,-0.885,-0.31,-0.329
909.0,-9.528,-0.042,2.938,-0.885,-0.31,-0.329
913.0,-9.242,-0.042,2.938,-1.028,-0.304,-0.262
917.0,-9.242,-0.042,2.938,-1.028,-0.304,-0.262
921.0,-8.801,-0.086,2.889,-1.152,-0.318,-0.197
925.0,-8.801,-0.086,2.889,-1.152,-0.318,-0.197
929.0,-8.523,-0.149,2.636,-1.152,-0.318,-0.197
933.0,-8.523,-0.149,2.636,-1.251,-0.335,-0.143
937.0,-8.523,-0.149,2.636,-1.251,-0.335,-0.143
941.0,-8.902,-0.199,2.332,-1.332,-0.317,-0.095
945.0,-8.902,-0.199,2.332,-1.332,-0.317,-0.095
949.0,-9.821,-0.248,2.252,-1.332,-0.317,-0.027
953.0,-9.821,-0.248,2.252,-1.401,-0.259,-0.027
957.0,-9.821,-0.248,2.252,-1.401,-0.259,-0.027
961.0,-10.262,-0.356,2.505,-1.459,-0.218,0.085
965.0,-10.262,-0.356,2.505,-1.459,-0.218,0.085
969.0,-9.863,-0.528,2.788,-1.501,-0.252,0.225
973.0,-9.863,-0.528,2.788,-1.501,-0.252,0.225
977.0,-9.863,-0.528,2.788,-1.501,-0.252,0.225
980.0,-9.177,-0.646,2.782,-1.521,-0.341,0.337
984.0,-9.177,-0.646,2.782,-1.521,-0.341,0.337
988.0,-8.784,-0.681,2.447,-1.521,-0.341,0.386
992.0,-8.784,-0.681,2.447,-1.524,-0.422,0.386
996.0,-8.784,-0.681,2.447,-1.524,-0.422,0.386
1000.0,-8.958,-0.65,1.973,-1.529,-0.452,0.39
1004.0,-8.958,-0.65,1.973,-1.529,-0.452,0.39
1008.0,-9.503,-0.58,1.702,-1.529,-0.452,0.39
1012.0,-9.503,-0.58,1.702,-1.549,-0.421,0.39
1016.0,-9.503,-0.58,1.702,-1.549,-0.421,0.39
1020.0,-9.98,-0.562,1.769,-1.575,-0.365,0.418
1024.0,-9.98,-0.562,1.769,-1.575,-0.365,0.418
1028.0,-10.361,-0.61,1.985,-1.575,-0.325,0.474
1032.0,-10.361,-0.61,1.985,-1.594,-0.325,0.474
1036.0,-10.361,-0.61,1.985,-1.594,-0.325,0.474
1040.0,-10.82,-0.675,2.209,-1.597,-0.313,0.54
1044.0,-10.82,-0.675,2.209,-1.597,-0.313,0.54
1048.0,-11.349,-0.694,2.349,-1.592,-0.33,0.601
1052.0,-11.349,-0.694,2.349,-1.592,-0.33,0.601
1056.0,-11.349,-0.694,2.349,-1.592,-0.33,0.601
1061.0,-11.834,-0.628,2.326,-1.583,-0.376,0.658
1065.0,-11.834,-0.628,2.326,-1.583,-0.376,0.658
1069.0,-12.047,-0.433,2.14,-1.576,-0.445,0.732
1073.0,-12.047,-0.433,2.14,-1.576,-0.445,0.732
1077.0,-11.715,-0.218,1.971,-1.576,-0.445,0.732
1081.0,-11.715,-0.218,1.971,-1.587,-0.526,0.827
1085.0,-11.715,-0.218,1.971,-1.587,-0.526,0.827
1089.0,-11.09,0.012,1.774,-1.625,-0.61,0.927
1093.0,-11.09,0.012,1.774,-1.625,-0.61,0.927
1097.0,-10.629,0.19,1.399,-1.688,-0.676,1.025
1101.0,-10.629,0.19,1.399,-1.688,-0.676,1.025
1105.0,-10.629,0.19,1.399,-1.688,-0.676,1.025
1109.0,-10.446,0.344,0.966,-1.774,-0.71,1.125
1113.0,-10.446,0.344,0.966,-1.774,-0.71,1.125
1117.0,-10.484,0.431,0.632,-1.886,-0.722,1.233
1121.0,-10.484,0.431,0.632,-1.886,-0.722,1.233
1125.0,-10.484,0.431,0.632,-1.886,-0.722,1.233
1129.0,-10.445,0.453,0.435,-2.022,-0.732,1.35
1133.0,-10.445,0.453,0.435,-2.022,-0.732,1.35
1137.0,-10.297,0.41,0.288,-2.176,-0.756,1.472
1141.0,-10.297,0.41,0.288,-2.176,-0.756,1.472
1145.0,-10.297,0.41,0.288,-2.176,-0.756,1.472
1149.0,-10.189,0.324,0.111,-2.346,-0.791,1.584
1153.0,-10.189,0.324,0.111,-2.346,-0.791,1.584
1157.0,-10.183,0.217,-0.053,-2.531,-0.823,1.675
1161.0,-10.183,0.217,-0.053,-2.531,-0.823,1.675
1165.0,-10.183,0.217,-0.304,-2.531,-0.823,1.675
1169.0,-10.287,0.134,-0.304,-2.729,-0.849,1.749
1173.0,-10.287,0.134,-0.304,-2.729,-0.849,1.749
1177.0,-10.682,0.002,-0.622,-2.938,-0.863,1.808
1181.0,-10.682,0.002,-0.622,-2.938,-0.863,1.808
1186.0,-11.093,-0.138,-0.878,-2.938,-0.863,1.855
1190.0,-11.093,-0.138,-0.878,-3.157,-0.855,1.855
1194.0,-11.093,-0.138,-0.878,-3.157,-0.855,1.855
1198.0,-11.365,-0.26,-1.039,-3.379,-0.84,1.894
1202.0,-11.365,-0.26,-1.039,-3.379,-0.84,1.894
1206.0,-11.513,-0.367,-1.141,-3.598,-0.831,1.925
1211.0,-11.513,-0.367,-1.141,-3.598,-0.831,1.925
1215.0,-11.513,-0.482,-1.211,-3.598,-0.831,1.925
1219.0,-11.664,-0.482,-1.211,-3.806,-0.83,1.944
1223.0,-11.664,-0.482,-1.211,-3.806,-0.83,1.944
1227.0,-11.777,-0.599,-1.315,-4.001,-0.834,1.954
1231.0,-11.777,-0.599,-1.315,-4.001,-0.834,1.954
1236.0,-11.803,-0.769,-1.385,-4.179,-0.846,1.957
1240.0,-11.803,-0.769,-1.385,-4.179,-0.846,1.957
1244.0,-11.803,-0.769,-1.385,-4.179,-0.846,1.957
1248.0,-11.74,-0.93,-1.455,-4.338,-0.866,1.959
1252.0,-11.74,-0.93,-1.455,-4.338,-0.866,1.959
1256.0,-11.546,-1.11,-1.546,-4.478,-0.885,1.961
1261.0,-11.546,-1.11,-1.546,-4.478,-0.885,1.961
1265.0,-11.288,-1.306,-1.601,-4.478,-0.9,1.96
1269.0,-11.288,-1.306,-1.601,-4.598,-0.9,1.96
1273.0,-11.288,-1.306,-1.601,-4.598,-0.9,1.96
1277.0,-11.016,-1.479,-1.633,-4.693,-0.914,1.958
1281.0,-11.016,-1.479,-1.633,-4.693,-0.914,1.958
1286.0,-10.729,-1.737,-1.653,-4.753,-0.935,1.956
1290.0,-10.729,-1.737,-1.653,-4.753,-0.935,1.956
1294.0,-10.646,-2.09,-1.77,-4.753,-0.935,1.956
1298.0,-10.646,-2.09,-1.77,-4.767,-0.966,1.95
1302.0,-10.646,-2.09,-1.77,-4.767,-0.966,1.95
1306.0,-10.932,-2.377,-1.953,-4.727,-0.996,1.939
1311.0,-10.932,-2.377,-1.953,-4.727,-0.996,1.939
1315.0,-11.522,-2.6,-2.199,-4.644,-1.017,1.934
1319.0,-11.522,-2.6,-2.199,-4.644,-1.017,1.934
1323.0,-11.522,-2.6,-2.199,-4.644,-1.017,1.934
1327.0,-12.085,-2.749,-2.457,-4.534,-1.02,1.942
1331.0,-12.085,-2.749,-2.457,-4.534,-1.02,1.942
1336.0,-12.267,-2.864,-2.544,-4.412,-1.013,1.97
1340.0,-12.267,-2.864,-2.544,-4.412,-1.013,1.97
1344.0,-12.071,-2.926,-2.502,-4.285,-1.012,2.014
1348.0,-12.071,-2.926,-2.502,-4.285,-1.012,2.014
1352.0,-12.071,-2.926,-2.502,-4.285,-1.012,2.014
1356.0,-11.722,-2.938,-2.46,-4.161,-1.021,2.059
1361.0,-11.722,-2.938,-2.46,-4.161,-1.021,2.059
1365.0,-11.567,-2.856,-2.56,-4.047,-1.027,2.094
1369.0,-11.567,-2.856,-2.56,-4.047,-1.027,2.094
1373.0,-11.638,-2.743,-2.775,-4.047,-1.027,2.128
1377.0,-11.638,-2.743,-2.775,-3.962,-1.018,2.128
1381.0,-11.638,-2.743,-2.775,-3.962,-1.018,2.128
1386.0,-11.604,-2.614,-2.886,-3.923,-0.985,2.17
1390.0,-11.604,-2.614,-2.886,-3.923,-0.985,2.17
1394.0,-11.267,-2.518,-2.809,-3.925,-0.936,2.229
1398.0,-11.267,-2.518,-2.809,-3.925,-0.936,2.229
1402.0,-11.267,-2.518,-2.615,-3.925,-0.936,2.229
1406.0,-10.82,-2.502,-2.615,-3.956,-0.889,2.292
1411.0,-10.82,-2.502,-2.615,-3.956,-0.889,2.292
1415.0,-10.753,-2.516,-2.604,-4.007,-0.844,2.346
1419.0,-10.753,-2.516,-2.604,-4.007,-0.844,2.346
1423.0,-10.983,-2.551,-2.652,-4.066,-0.799,2.387
1427.0,-10.983,-2.551,-2.652,-4.066,-0.799,2.387
1431.0,-10.983,-2.551,-2.652,-4.066,-0.799,2.387
1436.0,-11.252,-2.565,-2.673,-4.133,-0.76,2.425
1440.0,-11.252,-2.565,-2.673,-4.133,-0.76,2.425
1444.0,-11.439,-2.591,-2.657,-4.204,-0.731,2.471
1448.0,-11.439,-2.591,-2.657,-4.204,-0.731,2.471
1452.0,-11.492,-2.645,-2.648,-4.204,-0.71,2.531
1456.0,-11.492,-2.645,-2.648,-4.275,-0.71,2.531
1461.0,-11.492,-2.645,-2.648,-4.275,-0.71,2.531
1465.0,-11.732,-2.703,-2.764,-4.348,-0.686,2.602
1469.0,-11.732,-2.703,-2.764,-4.348,-0.686,2.602
1473.0,-12.051,-2.789,-2.914,-4.422,-0.653,2.682
1477.0,-12.051,-2.789,-2.914,-4.422,-0.653,2.682
1481.0,-12.2,-2.914,-2.941,-4.422,-0.653,2.682
1486.0,-12.2,-2.914,-2.941,-4.494,-0.617,2.771
1490.0,-12.2,-2.914,-2.941,-4.494,-0.617,2.771
1494.0,-12.272,-3.021,-2.976,-4.559,-0.587,2.856
1498.0,-12.272,-3.021,-2.976,-4.559,-0.587,2.856
1502.0,-12.24,-3.12,-2.962,-4.614,-0.556,2.934
1506.0,-12.24,-3.12,-2.962,-4.614,-0.556,2.934
1511.0,-12.24,-3.12,-2.962,-4.614,-0.556,2.934
1515.0,-12.114,-3.226,-2.924,-4.657,-0.524,2.999
1519.0,-12.114,-3.226,-2.924,-4.657,-0.524,2.999
1523.0,-12.164,-3.257,-2.919,-4.688,-0.491,3.047
1527.0,-12.164,-3.257,-2.919,-4.688,-0.491,3.047
1531.0,-12.358,-3.3,-2.904,-4.71,-0.451,3.08
1536.0,-12.358,-3.3,-2.904,-4.71,-0.451,3.08
1540.0,-12.358,-3.3,-2.904,-4.71,-0.451,3.08
1544.0,-12.407,-3.396,-2.768,-4.72,-0.407,3.102
1548.0,-12.407,-3.396,-2.768,-4.72,-0.407,3.102
1552.0,-12.242,-3.482,-2.512,-4.714,-0.375,3.11
1556.0,-12.242,-3.482,-2.512,-4.714,-0.375,3.11
1561.0,-11.944,-3.532,-2.285,-4.714,-0.375,3.11
1565.0,-11.944,-3.532,-2.285,-4.696,-0.364,3.098
1569.0,-11.944,-3.532,-2.285,-4.696,-0.364,3.098
1573.0,-11.57,-3.56,-2.118,-4.668,-0.366,3.065
1577.0,-11.57,-3.56,-2.118,-4.668,-0.366,3.065
1581.0,-11.353,-3.563,-2.13,-4.635,-0.366,3.009
1586.0,-11.353,-3.563,-2.13,-4.635,-0.366,3.009
1590.0,-11.353,-3.563,-2.167,-4.635,-0.366,3.009
1594.0,-11.316,-3.57,-2.167,-4.599,-0.349,2.94
1598.0,-11.316,-3.57,-2.167,-4.599,-0.349,2.94
1602.0,-11.486,-3.605,-2.236,-4.557,-0.308,2.871
1606.0,-11.486,-3.605,-2.236,-4.557,-0.308,2.871
1611.0,-11.748,-3.68,-2.264,-4.506,-0.246,2.81
1615.0,-11.748,-3.68,-2.264,-4.506,-0.246,2.81
1619.0,-11.748,-3.68,-2.264,-4.506,-0.246,2.81
1623.0,-11.927,-3.803,-2.106,-4.443,-0.173,2.759
1627.0,-11.927,-3.803,-2.106,-4.443,-0.173,2.759
1631.0,-12.105,-3.978,-1.853,-4.358,-0.109,2.715
1636.0,-12.105,-3.978,-1.853,-4.358,-0.109,2.715
1640.0,-12.473,-4.138,-1.702,-4.358,-0.109,2.667
1644.0,-12.473,-4.138,-1.702,-4.248,-0.064,2.667
1648.0,-12.473,-4.138,-1.702,-4.248,-0.064,2.667
1652.0,-13.076,-4.257,-1.695,-4.119,-0.023,2.614
1656.0,-13.076,-4.257,-1.695,-4.119,-0.023,2.614
1661.0,-13.405,-4.369,-1.649,-3.979,0.021,2.565
1665.0,-13.405,-4.369,-1.649,-3.979,0.021,2.565
1669.0,-13.405,-4.369,-1.471,-3.979,0.021,2.565
1673.0,-13.055,-4.512,-1.471,-3.83,0.062,2.518
1677.0,-13.055,-4.512,-1.471,-3.83,0.062,2.518
1681.0,-12.479,-4.551,-1.283,-3.675,0.098,2.455
1685.0,-12.479,-4.551,-1.283,-3.675,0.098,2.455
1689.0,-12.062,-4.473,-1.21,-3.675,0.146,2.367
1693.0,-12.062,-4.473,-1.21,-3.513,0.146,2.367
1697.0,-12.062,-4.473,-1.21,-3.513,0.146,2.367
1701.0,-11.646,-4.351,-1.118,-3.35,0.213,2.264
1705.0,-11.646,-4.351,-1.118,-3.35,0.213,2.264
1709.0,-10.978,-4.217,-0.82,-3.189,0.28,2.163
1714.0,-10.978,-4.217,-0.82,-3.189,0.28,2.163
1718.0,-10.978,-4.217,-0.82,-3.189,0.28,2.163
1722.0,-10.214,-4.104,-0.519,-3.031,0.331,2.074
1726.0,-10.214,-4.104,-0.519,-3.031,0.331,2.074
1730.0,-9.77,-4.007,-0.391,-2.875,0.382,1.997
1734.0,-9.77,-4.007,-0.391,-2.875,0.382,1.997
1738.0,-9.77,-3.938,-0.271,-2.875,0.382,1.997
1742.0,-9.785,-3.938,-0.271,-2.72,0.453,1.934
1746.0,-9.785,-3.938,-0.271,-2.72,0.453,1.934
1750.0,-10.011,-3.906,-0.166,-2.574,0.529,1.897
1754.0,-10.011,-3.906,-0.166,-2.574,0.529,1.897
1758.0,-10.253,-3.986,-0.023,-2.574,0.529,1.889
1762.0,-10.253,-3.986,-0.023,-2.442,0.6,1.889
1766.0,-10.253,-3.986,-0.023,-2.442,0.6,1.889
1770.0,-10.443,-4.134,0.153,-2.321,0.66,1.897
1774.0,-10.443,-4.134,0.153,-2.321,0.66,1.897
1778.0,-10.598,-4.293,0.366,-2.208,0.712,1.909
1782.0,-10.598,-4.293,0.366,-2.208,0.712,1.909
1786.0,-10.598,-4.293,0.366,-2.208,0.712,1.909
1790.0,-10.627,-4.421,0.632,-2.1,0.755,1.919
1794.0,-10.627,-4.421,0.632,-2.1,0.755,1.919
1798.0,-10.475,-4.509,0.837,-1.999,0.786,1.924
1802.0,-10.475,-4.509,0.837,-1.999,0.786,1.924
1806.0,-10.475,-4.509,0.837,-1.999,0.786,1.924
1810.0,-10.448,-4.513,1.103,-1.913,0.818,1.924
1814.0,-10.448,-4.513,1.103,-1.913,0.818,1.924
1818.0,-10.504,-4.463,1.461,-1.843,0.854,1.918
1822.0,-10.504,-4.463,1.461,-1.843,0.854,1.918
1826.0,-10.504,-4.463,1.461,-1.843,0.854,1.918
1830.0,-10.393,-4.378,1.825,-1.797,0.874,1.902
1834.0,-10.393,-4.378,1.825,-1.797,0.874,1.902
1838.0,-10.006,-4.272,2.196,-1.788,0.876,1.863
1842.0,-10.006,-4.272,2.196,-1.788,0.876,1.863
1846.0,-10.006,-4.272,2.196,-1.788,0.876,1.863
1850.0,-9.528,-4.135,2.509,-1.816,0.887,1.799
1854.0,-9.528,-4.135,2.509,-1.816,0.887,1.799
1858.0,-9.376,-4.036,2.965,-1.872,0.929,1.717
1862.0,-9.376,-4.036,2.965,-1.872,0.929,1.717
1866.0,-9.376,-4.036,2.965,-1.872,0.929,1.717
1870.0,-9.463,-4.031,3.461,-1.941,0.981,1.626
1874.0,-9.463,-4.031,3.461,-1.941,0.981,1.626
1877.0,-9.546,-4.062,3.901,-2.007,1.016,1.535
1881.0,-9.546,-4.062,3.901,-2.007,1.016,1.535
1885.0,-9.546,-4.062,3.901,-2.007,1.016,1.535
1889.0,-9.597,-4.131,4.312,-2.064,1.023,1.442
1893.0,-9.597,-4.131,4.312,-2.064,1.023,1.442
1897.0,-9.781,-4.268,4.619,-2.104,1.014,1.347
1901.0,-9.781,-4.268,4.619,-2.104,1.014,1.347
1905.0,-9.781,-4.268,4.619,-2.104,1.014,1.347
1909.0,-10.013,-4.485,4.874,-2.117,1.003,1.25
1913.0,-10.013,-4.485,4.874,-2.117,1.003,1.25
1917.0,-10.061,-4.804,5.17,-2.093,0.984,1.149
1921.0,-10.061,-4.804,5.17,-2.093,0.984,1.149
1925.0,-10.061,-4.804,5.17,-2.093,0.984,1.149
1929.0,-9.899,-5.122,5.561,-2.025,0.95,1.033
1933.0,-9.899,-5.122,5.561,-2.025,0.95,1.033
1936.0,-9.663,-5.395,5.962,-1.915,0.896,0.898
1940.0,-9.663,-5.395,5.962,-1.915,0.896,0.898
1944.0,-9.663,-5.395,5.962,-1.915,0.896,0.898
1948.0,-9.318,-5.605,6.256,-1.77,0.828,0.748
1952.0,-9.318,-5.605,6.256,-1.77,0.828,0.748
1956.0,-8.718,-5.764,6.287,-1.601,0.755,0.59
1960.0,-8.718,-5.764,6.287,-1.601,0.755,0.59
1964.0,-8.718,-5.764,6.287,-1.601,0.755,0.59
1968.0,-8.267,-5.932,6.255,-1.415,0.71,0.429
1972.0,-8.267,-5.932,6.255,-1.415,0.71,0.429
1976.0,-8.447,-6.087,6.495,-1.21,0.707,0.272
1979.0,-8.447,-6.087,6.495,-1.21,0.707,0.272
1983.0,-8.447,-6.087,6.495,-1.21,0.707,0.272
1987.0,-8.874,-6.185,6.708,-0.983,0.697,0.121
1991.0,-8.874,-6.185,6.708,-0.983,0.697,0.121
1995.0,-8.919,-6.186,6.714,-0.983,0.646,-0.036
1999.0,-8.919,-6.186,6.714,-0.746,0.646,-0.036
2003.0,-8.919,-6.186,6.714,-0.746,0.646,-0.036
2007.0,-9.015,-6.089,6.695,-0.512,0.595,-0.205
2011.0,-9.015,-6.089,6.695,-0.512,0.595,-0.205
2015.0,-9.636,-5.965,6.852,-0.282,0.57,-0.368
2019.0,-9.636,-5.965,6.852,-0.282,0.57,-0.368
2023.0,-9.636,-5.965,6.852,-0.282,0.57,-0.368
2027.0,-10.007,-5.725,6.966,-0.057,0.521,-0.521
2031.0,-10.007,-5.725,6.966,-0.057,0.521,-0.521
2035.0,-9.624,-5.358,6.746,0.144,0.424,-0.671
2039.0,-9.624,-5.358,6.746,0.144,0.424,-0.671
2043.0,-9.624,-5.358,6.746,0.144,0.424,-0.671
2047.0,-9.386,-4.956,6.549,0.311,0.342,-0.817
2051.0,-9.386,-4.956,6.549,0.311,0.342,-0.817
2055.0,-9.672,-4.677,6.427,0.457,0.301,-0.944
2059.0,-9.672,-4.677,6.427,0.457,0.301,-0.944
2063.0,-9.672,-4.677,6.427,0.457,0.301,-0.944
2066.0,-9.882,-4.409,6.248,0.584,0.251,-1.043
2070.0,-9.882,-4.409,6.248,0.584,0.251,-1.043
2074.0,-9.848,-4.128,6.099,0.68,0.179,-1.133
2078.0,-9.848,-4.128,6.099,0.68,0.179,-1.133
2082.0,-9.848,-4.128,6.099,0.68,0.179,-1.133
2086.0,-9.86,-3.879,5.925,0.749,0.109,-1.229
2090.0,-9.86,-3.879,5.925,0.749,0.109,-1.229
2094.0,-10.016,-3.701,5.685,0.749,0.109,-1.321
2098.0,-10.016,-3.701,5.685,0.792,0.054,-1.321
2102.0,-10.016,-3.701,5.685,0.792,0.054,-1.321
2106.0,-10.341,-3.559,5.658,0.822,0.009,-1.404
2110.0,-10.341,-3.559,5.658,0.822,0.009,-1.404
2114.0,-10.44,-3.4,5.599,0.85,-0.061,-1.485
2118.0,-10.44,-3.4,5.599,0.85,-0.061,-1.485
2122.0,-10.44,-3.4,5.599,0.85,-0.061,-1.485
2126.0,-10.102,-3.218,5.182,0.872,-0.159,-1.565
2130.0,-10.102,-3.218,5.182,0.872,-0.159,-1.565
2134.0,-9.936,-3.059,4.811,0.883,-0.218,-1.641
2138.0,-9.936,-3.059,4.811,0.883,-0.218,-1.641
2142.0,-9.936,-3.059,4.811,0.883,-0.218,-1.641
2146.0,-10.266,-2.987,4.665,0.894,-0.219,-1.699
2150.0,-10.266,-2.987,4.665,0.894,-0.219,-1.699
2154.0,-10.692,-2.991,4.643,0.913,-0.208,-1.724
2158.0,-10.692,-2.991,4.643,0.913,-0.208,-1.724
2162.0,-10.692,-2.986,4.701,0.913,-0.208,-1.724
2167.0,-10.929,-2.986,4.701,0.944,-0.224,-1.721
2171.0,-10.929,-2.986,4.701,0.944,-0.224,-1.721
2175.0,-10.819,-3.045,4.631,0.983,-0.269,-1.703
2179.0,-10.819,-3.045,4.631,0.983,-0.269,-1.703
2183.0,-10.521,-3.045,4.533,1.03,-0.311,-1.677
2187.0,-10.521,-3.045,4.533,1.03,-0.311,-1.677
2191.0,-10.521,-3.045,4.533,1.03,-0.311,-1.677
2195.0,-10.332,-3.092,4.433,1.079,-0.323,-1.637
2199.0,-10.332,-3.092,4.433,1.079,-0.323,-1.637
2203.0,-10.275,-3.208,4.296,1.138,-0.32,-1.582
2207.0,-10.275,-3.208,4.296,1.138,-0.32,-1.582
2211.0,-10.275,-3.208,4.296,1.138,-0.32,-1.582
2215.0,-10.354,-3.336,4.149,1.21,-0.316,-1.516
2220.0,-10.354,-3.336,4.149,1.21,-0.316,-1.516
2224.0,-10.515,-3.477,3.967,1.295,-0.313,-1.452
2228.0,-10.515,-3.477,3.967,1.295,-0.313,-1.452
2232.0,-10.612,-3.618,3.681,1.295,-0.313,-1.395
2236.0,-10.612,-3.618,3.681,1.394,-0.309,-1.395
2240.0,-10.612,-3.618,3.681,1.394,-0.309,-1.395
2244.0,-10.75,-3.726,3.525,1.505,-0.295,-1.346
2248.0,-10.75,-3.726,3.525,1.505,-0.295,-1.346
2252.0,-10.783,-3.831,3.379,1.632,-0.28,-1.305
2256.0,-10.783,-3.831,3.379,1.632,-0.28,-1.305
2260.0,-10.783,-3.831,3.379,1.632,-0.28,-1.305
2264.0,-10.816,-3.835,3.213,1.778,-0.269,-1.28
2269.0,-10.816,-3.835,3.213,1.778,-0.269,-1.28
2273.0,-10.918,-3.8,3.09,1.939,-0.258,-1.264
2277.0,-10.918,-3.8,3.09,1.939,-0.258,-1.264
2281.0,-10.918,-3.8,3.004,1.939,-0.258,-1.264
2285.0,-10.889,-3.7,3.004,2.11,-0.254,-1.255
2289.0,-10.889,-3.7,3.004,2.11,-0.254,-1.255
2293.0,-10.594,-3.578,2.782,2.284,-0.265,-1.251
2297.0,-10.594,-3.578,2.782,2.284,-0.265,-1.251
2301.0,-10.289,-3.443,2.531,2.284,-0.269,-1.255
2305.0,-10.289,-3.443,2.531,2.449,-0.269,-1.255
2309.0,-10.289,-3.443,2.531,2.449,-0.269,-1.255
2313.0,-10.079,-3.325,2.345,2.605,-0.249,-1.261
2317.0,-10.079,-3.325,2.345,2.605,-0.249,-1.261
2322.0,-10.022,-3.291,2.244,2.751,-0.209,-1.26
2326.0,-10.022,-3.291,2.244,2.751,-0.209,-1.26
2330.0,-10.022,-3.291,2.244,2.751,-0.209,-1.26
2334.0,-10.118,-3.287,2.237,2.894,-0.163,-1.244
2338.0,-10.118,-3.287,2.237,2.894,-0.163,-1.244
2342.0,-10.238,-3.381,2.198,3.032,-0.122,-1.216
2346.0,-10.238,-3.381,2.198,3.032,-0.122,-1.216
2350.0,-10.329,-3.5,2.184,3.032,-0.122,-1.216
2354.0,-10.329,-3.5,2.184,3.171,-0.093,-1.178
2358.0,-10.329,-3.5,2.184,3.171,-0.093,-1.178
2362.0,-10.4,-3.667,2.037,3.315,-0.073,-1.131
2366.0,-10.4,-3.667,2.037,3.315,-0.073,-1.131
2371.0,-10.591,-3.836,1.957,3.465,-0.051,-1.073
2375.0,-10.591,-3.836,1.957,3.465,-0.051,-1.073
2379.0,-10.591,-3.836,1.957,3.465,-0.051,-1.073
2383.0,-10.766,-4.021,1.915,3.623,-0.035,-1.003
2387.0,-10.766,-4.021,1.915,3.623,-0.035,-1.003
2391.0,-10.76,-4.154,1.838,3.786,-0.045,-0.924
2395.0,-10.76,-4.154,1.838,3.786,-0.045,-0.924
2399.0,-10.76,-4.154,1.653,3.786,-0.045,-0.924
2403.0,-10.675,-4.257,1.653,3.948,-0.075,-0.847
2407.0,-10.675,-4.257,1.653,3.948,-0.075,-0.847
2411.0,-10.758,-4.314,1.458,4.105,-0.103,-0.78
2415.0,-10.758,-4.314,1.458,4.105,-0.103,-0.78
2419.0,-10.956,-4.348,1.273,4.105,-0.103,-0.718
2424.0,-10.956,-4.348,1.273,4.254,-0.123,-0.718
2428.0,-10.956,-4.348,1.273,4.254,-0.123,-0.718
2432.0,-11.091,-4.352,1.076,4.39,-0.144,-0.656
2436.0,-11.091,-4.352,1.076,4.39,-0.144,-0.656
2440.0,-11.208,-4.382,0.901,4.507,-0.167,-0.592
2444.0,-11.208,-4.382,0.901,4.507,-0.167,-0.592
2448.0,-11.208,-4.382,0.901,4.507,-0.167,-0.592
2452.0,-11.412,-4.533,0.64,4.61,-0.188,-0.533
2456.0,-11.412,-4.533,0.64,4.61,-0.188,-0.533
2460.0,-11.838,-4.796,0.548,4.71,-0.2,-0.479
2464.0,-11.838,-4.796,0.548,4.71,-0.2,-0.479
2468.0,-11.838,-5.064,0.681,4.71,-0.2,-0.479
2472.0,-12.098,-5.064,0.681,4.819,-0.23,-0.439
2477.0,-12.098,-5.064,0.681,4.819,-0.23,-0.439
2481.0,-11.913,-5.258,0.663,4.936,-0.315,-0.43
2485.0,-11.913,-5.258,0.663,4.936,-0.315,-0.43
2489.0,-11.524,-5.332,0.347,4.993,-0.427,-0.472
2493.0,-11.524,-5.332,0.347,4.993,-0.427,-0.472
2497.0,-11.524,-5.332,0.347,4.993,-0.427,-0.472
2501.0,-11.246,-5.308,-0.063,4.995,-0.512,-0.562
2505.0,-11.246,-5.308,-0.063,4.995,-0.512,-0.562
2509.0,-11.149,-5.201,-0.337,4.995,-0.554,-0.684
2514.0,-11.149,-5.201,-0.337,4.995,-0.554,-0.684
2518.0,-11.149,-4.968,-0.34,4.995,-0.554,-0.684
2522.0,-11.136,-4.968,-0.34,4.995,-0.578,-0.822
2526.0,-11.136,-4.968,-0.34,4.995,-0.578,-0.822
2530.0,-11.003,-4.637,-0.437,4.995,-0.624,-0.954
2534.0,-11.003,-4.637,-0.437,4.995,-0.624,-0.954
2539.0,-10.971,-4.319,-0.703,4.995,-0.68,-1.065
2543.0,-10.971,-4.319,-0.703,4.995,-0.68,-1.065
2547.0,-10.971,-4.319,-0.703,4.995,-0.68,-1.065
2551.0,-11.277,-4.087,-0.937,4.995,-0.715,-1.142
2555.0,-11.277,-4.087,-0.937,4.995,-0.715,-1.142
2559.0,-11.841,-3.962,-0.962,4.995,-0.733,-1.183
2564.0,-11.841,-3.962,-0.962,4.995,-0.733,-1.183
2568.0,-12.352,-3.926,-0.84,4.995,-0.762,-1.186
2572.0,-12.352,-3.926,-0.84,4.995,-0.762,-1.186
2576.0,-12.352,-3.926,-0.84,4.995,-0.762,-1.186
2580.0,-12.596,-3.914,-0.738,4.995,-0.832,-1.163
2584.0,-12.596,-3.914,-0.738,4.995,-0.832,-1.163
2589.0,-12.549,-3.894,-0.782,4.995,-0.931,-1.129
2593.0,-12.549,-3.894,-0.782,4.995,-0.931,-1.129
2597.0,-12.303,-3.846,-0.915,4.995,-0.931,-1.129
2601.0,-12.303,-3.846,-0.915,4.995,-1.029,-1.099
2605.0,-12.303,-3.846,-0.915,4.995,-1.029,-1.099
2609.0,-12.219,-3.801,-1.042,4.995,-1.103,-1.077
2614.0,-12.219,-3.801,-1.042,4.995,-1.103,-1.077
2618.0,-12.424,-3.794,-1.056,4.995,-1.148,-1.063
2622.0,-12.424,-3.794,-1.056,4.995,-1.148,-1.063
2626.0,-12.424,-3.794,-0.972,4.995,-1.148,-1.063
2630.0,-12.695,-3.811,-0.972,4.972,-1.191,-1.06
2634.0,-12.695,-3.811,-0.972,4.972,-1.191,-1.06
2639.0,-12.871,-3.804,-0.943,4.793,-1.249,-1.069
2643.0,-12.871,-3.804,-0.943,4.793,-1.249,-1.069
2647.0,-12.915,-3.814,-0.906,4.532,-1.316,-1.093
2651.0,-12.915,-3.814,-0.906,4.532,-1.316,-1.093
2655.0,-12.915,-3.814,-0.906,4.532,-1.316,-1.093
2659.0,-12.8,-3.822,-0.943,4.263,-1.384,-1.133
2664.0,-12.8,-3.822,-0.943,4.263,-1.384,-1.133
2668.0,-12.601,-3.873,-1.009,4.001,-1.439,-1.188
2672.0,-12.601,-3.873,-1.009,4.001,-1.439,-1.188
2676.0,-12.432,-3.909,-1.02,4.001,-1.439,-1.26
2680.0,-12.432,-3.909,-1.02,3.757,-1.479,-1.26
2684.0,-12.432,-3.909,-1.02,3.757,-1.479,-1.26
2689.0,-12.367,-4.0,-1.087,3.545,-1.517,-1.345
2693.0,-12.367,-4.0,-1.087,3.545,-1.517,-1.345
2697.0,-12.375,-4.07,-1.254,3.37,-1.556,-1.438
2701.0,-12.375,-4.07,-1.254,3.37,-1.556,-1.438
2705.0,-12.375,-4.092,-1.427,3.37,-1.556,-1.438
2709.0,-12.288,-4.092,-1.427,3.232,-1.586,-1.539
2714.0,-12.288,-4.092,-1.427,3.232,-1.586,-1.539
2718.0,-12.11,-4.118,-1.692,3.127,-1.605,-1.642
2722.0,-12.11,-4.118,-1.692,3.127,-1.605,-1.642
2726.0,-11.984,-4.195,-1.992,3.051,-1.608,-1.747
2730.0,-11.984,-4.195,-1.992,3.051,-1.608,-1.747
2734.0,-11.984,-4.195,-1.992,3.051,-1.608,-1.747
2739.0,-12.05,-4.301,-2.16,3.009,-1.592,-1.856
2743.0,-12.05,-4.301,-2.16,3.009,-1.592,-1.856
2747.0,-12.12,-4.345,-2.206,3.006,-1.576,-1.958
2751.0,-12.12,-4.345,-2.206,3.006,-1.576,-1.958
2755.0,-12.137,-4.365,-2.317,3.006,-1.572,-2.05
2759.0,-12.137,-4.365,-2.317,3.035,-1.572,-2.05
2764.0,-12.137,-4.365,-2.317,3.035,-1.572,-2.05
2768.0,-12.134,-4.329,-2.477,3.08,-1.563,-2.124
2772.0,-12.134,-4.329,-2.477,3.08,-1.563,-2.124
2776.0,-12.096,-4.312,-2.635,3.129,-1.542,-2.183
2780.0,-12.096,-4.312,-2.635,3.129,-1.542,-2.183
2784.0,-11.932,-4.256,-2.669,3.129,-1.542,-2.183
2789.0,-11.932,-4.256,-2.669,3.177,-1.512,-2.231
2793.0,-11.932,-4.256,-2.669,3.177,-1.512,-2.231
2797.0,-11.721,-4.208,-2.775,3.226,-1.48,-2.277
2801.0,-11.721,-4.208,-2.775,3.226,-1.48,-2.277
2805.0,-11.609,-4.125,-2.843,3.272,-1.437,-2.32
2809.0,-11.609,-4.125,-2.843,3.272,-1.437,-2.32
2814.0,-11.609,-4.125,-2.843,3.272,-1.437,-2.32
2818.0,-11.531,-4.007,-2.783,3.315,-1.382,-2.357
2822.0,-11.531,-4.007,-2.783,3.315,-1.382,-2.357
2826.0,-11.417,-3.877,-2.681,3.343,-1.327,-2.38
2830.0,-11.417,-3.877,-2.681,3.343,-1.327,-2.38
2834.0,-11.288,-3.762,-2.56,3.351,-1.277,-2.392
2839.0,-11.288,-3.762,-2.56,3.351,-1.277,-2.392
2843.0,-11.288,-3.762,-2.56,3.351,-1.277,-2.392
2847.0,-11.192,-3.744,-2.76,3.337,-1.224,-2.404
2851.0,-11.192,-3.744,-2.76,3.337,-1.224,-2.404
2855.0,-11.279,-3.772,-2.965,3.307,-1.137,-2.427
2859.0,-11.279,-3.772,-2.965,3.307,-1.137,-2.427
2864.0,-11.332,-3.775,-2.939,3.307,-1.137,-2.465
2868.0,-11.332,-3.775,-2.939,3.277,-1.022,-2.465
2872.0,-11.332,-3.775,-2.939,3.277,-1.022,-2.465
2876.0,-11.333,-3.692,-2.76,3.255,-0.906,-2.506
2880.0,-11.333,-3.692,-2.76,3.255,-0.906,-2.506
2884.0,-11.253,-3.533,-2.53,3.24,-0.805,-2.544
2889.0,-11.253,-3.533,-2.53,3.24,-0.805,-2.544
2893.0,-11.253,-3.533,-2.372,3.24,-0.805,-2.544
2897.0,-11.138,-3.357,-2.372,3.223,-0.718,-2.579
2901.0,-11.138,-3.357,-2.372,3.223,-0.718,-2.579
2905.0,-11.03,-3.171,-2.288,3.197,-0.634,-2.612
2909.0,-11.03,-3.171,-2.288,3.197,-0.634,-2.612
2914.0,-10.959,-2.985,-2.143,3.156,-0.548,-2.648
2918.0,-10.959,-2.985,-2.143,3.156,-0.548,-2.648
2922.0,-10.959,-2.985,-2.143,3.156,-0.548,-2.648
2926.0,-10.917,-2.803,-2.063,3.1,-0.462,-2.688
2930.0,-10.917,-2.803,-2.063,3.1,-0.462,-2.688
2934.0,-10.925,-2.681,-2.009,3.029,-0.375,-2.73
2939.0,-10.925,-2.681,-2.009,3.029,-0.375,-2.73
2943.0,-11.017,-2.599,-1.938,3.029,-0.281,-2.771
2947.0,-11.017,-2.599,-1.938,2.948,-0.281,-2.771
2951.0,-11.017,-2.599,-1.938,2.948,-0.281,-2.771
2955.0,-11.114,-2.505,-1.812,2.861,-0.189,-2.809
2959.0,-11.114,-2.505,-1.812,2.861,-0.189,-2.809
2964.0,-11.103,-2.454,-1.682,2.771,-0.106,-2.844
2968.0,-11.103,-2.454,-1.682,2.771,-0.106,-2.844
2972.0,-11.098,-2.449,-1.566,2.771,-0.106,-2.844
2976.0,-11.098,-2.449,-1.566,2.685,-0.028,-2.873
2980.0,-11.098,-2.449,-1.566,2.685,-0.028,-2.873
2984.0,-11.13,-2.455,-1.458,2.611,0.053,-2.896
2988.0,-11.13,-2.455,-1.458,2.611,0.053,-2.896
2993.0,-11.305,-2.467,-1.402,2.547,0.142,-2.912
2997.0,-11.305,-2.467,-1.402,2.547,0.142,-2.912
