deltaTime,Acc_X,Acc_Y,Acc_Z,Gyro_X,Gyro_Y,Gyro_Z
0.0,-9.891,-2.323,1.91,-0.562,-0.347,-0.09
3.0,-9.891,-2.323,1.91,-0.562,-0.347,-0.09
6.0,-9.891,-2.323,1.91,-0.562,-0.347,-0.09
9.0,-9.514,-2.518,1.896,-0.562,-0.353,-0.137
12.0,-9.514,-2.518,1.896,-0.485,-0.353,-0.137
15.0,-9.514,-2.518,1.896,-0.485,-0.353,-0.137
18.0,-9.514,-2.518,1.896,-0.485,-0.353,-0.137
21.0,-9.005,-2.524,1.933,-0.37,-0.34,-0.179
24.0,-9.005,-2.524,1.933,-0.37,-0.34,-0.179
27.0,-9.005,-2.524,1.933,-0.37,-0.34,-0.179
30.0,-8.704,-2.367,2.07,-0.236,-0.299,-0.227
34.0,-8.704,-2.367,2.07,-0.236,-0.299,-0.227
38.0,-8.704,-2.099,2.145,-0.236,-0.299,-0.227
42.0,-8.496,-2.099,2.145,-0.106,-0.281,-0.281
46.0,-8.496,-2.099,2.145,-0.106,-0.281,-0.281
50.0,-8.581,-1.733,2.054,-0.012,-0.264,-0.325
54.0,-8.581,-1.733,2.054,-0.012,-0.264,-0.325
58.0,-8.581,-1.733,1.939,-0.012,-0.264,-0.325
62.0,-8.932,-1.29,1.939,0.013,-0.24,-0.348
65.0,-8.932,-1.29,1.939,0.013,-0.24,-0.348
69.0,-9.044,-0.967,1.917,-0.041,-0.209,-0.347
73.0,-9.044,-0.967,1.917,-0.041,-0.209,-0.347
77.0,-9.044,-0.967,1.917,-0.041,-0.209,-0.347
81.0,-9.015,-0.779,2.016,-0.15,-0.174,-0.322
85.0,-9.015,-0.779,2.016,-0.15,-0.174,-0.322
89.0,-9.084,-0.642,2.096,-0.295,-0.138,-0.277
93.0,-9.084,-0.642,2.096,-0.295,-0.138,-0.277
97.0,-9.084,-0.642,2.096,-0.295,-0.138,-0.277
100.0,-9.173,-0.58,2.194,-0.47,-0.102,-0.223
104.0,-9.173,-0.58,2.194,-0.47,-0.102,-0.223
108.0,-9.232,-0.842,2.276,-0.654,-0.075,-0.153
112.0,-9.232,-0.842,2.276,-0.654,-0.075,-0.153
116.0,-9.232,-0.842,2.276,-0.654,-0.075,-0.153
120.0,-9.029,-1.368,2.243,-0.797,-0.051,-0.072
124.0,-9.029,-1.368,2.243,-0.797,-0.051,-0.072
128.0,-8.961,-1.872,2.328,-0.859,-0.011,0.004
132.0,-8.961,-1.872,2.328,-0.859,-0.011,0.004
136.0,-8.961,-1.872,2.328,-0.859,-0.011,0.004
140.0,-9.047,-2.113,2.391,-0.845,0.027,0.063
144.0,-9.047,-2.113,2.391,-0.845,0.027,0.063
148.0,-9.19,-2.203,2.471,-0.795,0.055,0.097
152.0,-9.19,-2.203,2.471,-0.795,0.055,0.097
155.0,-9.19,-2.203,2.471,-0.795,0.055,0.097
159.0,-9.102,-2.289,2.49,-0.721,0.071,0.119
163.0,-9.102,-2.289,2.49,-0.721,0.071,0.119
167.0,-9.045,-2.329,2.459,-0.721,0.071,0.128
171.0,-9.045,-2.329,2.459,-0.621,0.075,0.128
174.0,-9.045,-2.329,2.459,-0.621,0.075,0.128
178.0,-9.286,-2.207,2.402,-0.508,0.083,0.127
182.0,-9.286,-2.207,2.402,-0.508,0.083,0.127
186.0,-9.286,-2.207,2.369,-0.508,0.083,0.127
190.0,-9.529,-1.974,2.369,-0.412,0.096,0.117
194.0,-9.529,-1.974,2.369,-0.412,0.096,0.117
197.0,-9.661,-1.796,2.344,-0.352,0.102,0.103
201.0,-9.661,-1.796,2.344,-0.352,0.102,0.103
205.0,-9.661,-1.796,2.344,-0.352,0.102,0.103
209.0,-9.753,-1.656,2.3,-0.321,0.108,0.089
213.0,-9.753,-1.656,2.3,-0.321,0.108,0.089
217.0,-10.01,-1.363,2.438,-0.321,0.12,0.076
220.0,-10.01,-1.363,2.438,-0.321,0.12,0.076
224.0,-10.01,-1.363,2.438,-0.321,0.12,0.076
228.0,-10.095,-0.916,2.651,-0.372,0.125,0.051
232.0,-10.095,-0.916,2.651,-0.372,0.125,0.051
236.0,-9.849,-0.015,2.622,-0.372,0.125,0.005
240.0,-9.849,-0.015,2.622,-0.509,0.109,0.005
244.0,-9.849,-0.015,2.622,-0.509,0.109,0.005
247.0,-9.564,0.835,2.681,-0.801,0.085,-0.09
251.0,-9.564,0.835,2.681,-0.801,0.085,-0.09
255.0,-9.564,0.835,2.617,-0.801,0.085,-0.09
259.0,-9.603,1.097,2.617,-1.216,0.058,-0.191
263.0,-9.603,1.097,2.617,-1.216,0.058,-0.191
267.0,-9.951,0.963,2.442,-1.658,0.032,-0.272
270.0,-9.951,0.963,2.442,-1.658,0.032,-0.272
274.0,-9.951,0.963,2.442,-1.658,0.032,-0.272
278.0,-10.274,0.702,2.201,-2.061,-0.018,-0.325
282.0,-10.274,0.702,2.201,-2.061,-0.018,-0.325
286.0,-10.487,0.144,2.198,-2.416,-0.09,-0.317
290.0,-10.487,0.144,2.198,-2.416,-0.09,-0.317
294.0,-10.487,0.144,2.198,-2.416,-0.09,-0.317
298.0,-10.956,-0.653,2.012,-2.657,-0.225,-0.279
302.0,-10.956,-0.653,2.012,-2.657,-0.225,-0.279
306.0,-11.259,-1.015,1.733,-2.768,-0.404,-0.253
310.0,-11.259,-1.015,1.733,-2.768,-0.404,-0.253
314.0,-11.259,-1.015,1.386,-2.768,-0.404,-0.253
318.0,-10.948,-1.105,1.386,-2.819,-0.552,-0.261
322.0,-10.948,-1.105,1.386,-2.819,-0.552,-0.261
327.0,-10.42,-1.162,1.027,-2.849,-0.665,-0.292
331.0,-10.42,-1.162,1.027,-2.849,-0.665,-0.292
335.0,-9.941,-1.269,0.718,-2.849,-0.665,-0.323
339.0,-9.941,-1.269,0.718,-2.869,-0.734,-0.323
343.0,-9.941,-1.269,0.718,-2.869,-0.734,-0.323
347.0,-9.625,-1.381,0.522,-2.88,-0.769,-0.341
351.0,-9.625,-1.381,0.522,-2.88,-0.769,-0.341
355.0,-9.567,-1.52,0.388,-2.875,-0.78,-0.344
359.0,-9.567,-1.52,0.388,-2.875,-0.78,-0.344
363.0,-9.567,-1.52,0.388,-2.875,-0.78,-0.344
367.0,-9.703,-1.65,0.307,-2.856,-0.782,-0.337
371.0,-9.703,-1.65,0.307,-2.856,-0.782,-0.337
375.0,-9.811,-1.768,0.307,-2.821,-0.785,-0.319
379.0,-9.811,-1.768,0.307,-2.821,-0.785,-0.319
383.0,-9.811,-1.768,0.307,-2.821,-0.785,-0.319
387.0,-9.806,-1.865,0.403,-2.775,-0.798,-0.289
391.0,-9.806,-1.865,0.403,-2.775,-0.798,-0.289
395.0,-9.753,-1.93,0.571,-2.72,-0.832,-0.248
399.0,-9.753,-1.93,0.571,-2.72,-0.832,-0.248
403.0,-9.753,-1.93,0.571,-2.72,-0.832,-0.248
407.0,-9.782,-1.945,0.704,-2.66,-0.883,-0.203
411.0,-9.782,-1.945,0.704,-2.66,-0.883,-0.203
415.0,-9.912,-1.92,0.647,-2.602,-0.944,-0.151
419.0,-9.912,-1.92,0.647,-2.602,-0.944,-0.151
423.0,-9.912,-1.92,0.647,-2.602,-0.944,-0.151
427.0,-9.987,-1.893,0.447,-2.558,-0.999,-0.084
431.0,-9.987,-1.893,0.447,-2.558,-0.999,-0.084
435.0,-10.028,-1.845,0.199,-2.539,-1.038,0.004
439.0,-10.028,-1.845,0.199,-2.539,-1.038,0.004
443.0,-10.028,-1.845,0.199,-2.539,-1.038,0.004
447.0,-10.044,-1.844,-0.056,-2.549,-1.049,0.115
451.0,-10.044,-1.844,-0.056,-2.549,-1.049,0.115
455.0,-9.942,-1.866,-0.245,-2.579,-1.028,0.256
459.0,-9.942,-1.866,-0.245,-2.579,-1.028,0.256
463.0,-9.697,-1.933,-0.321,-2.579,-1.028,0.256
467.0,-9.697,-1.933,-0.321,-2.622,-0.98,0.416
471.0,-9.697,-1.933,-0.321,-2.622,-0.98,0.416
475.0,-9.407,-2.035,-0.276,-2.669,-0.912,0.586
479.0,-9.407,-2.035,-0.276,-2.669,-0.912,0.586
483.0,-9.148,-2.165,-0.189,-2.669,-0.912,0.752
487.0,-9.148,-2.165,-0.189,-2.71,-0.831,0.752
491.0,-9.148,-2.165,-0.189,-2.71,-0.831,0.752
495.0,-9.01,-2.293,-0.083,-2.734,-0.75,0.913
499.0,-9.01,-2.293,-0.083,-2.734,-0.75,0.913
503.0,-9.036,-2.402,-0.007,-2.734,-0.676,1.063
507.0,-9.036,-2.402,-0.007,-2.738,-0.676,1.063
511.0,-9.036,-2.402,-0.007,-2.738,-0.676,1.063
515.0,-9.095,-2.5,0.079,-2.724,-0.615,1.209
518.0,-9.095,-2.5,0.079,-2.724,-0.615,1.209
522.0,-9.09,-2.573,0.136,-2.724,-0.569,1.353
526.0,-9.09,-2.573,0.136,-2.696,-0.569,1.353
530.0,-9.09,-2.573,0.136,-2.696,-0.569,1.353
534.0,-8.993,-2.621,0.175,-2.655,-0.531,1.496
538.0,-8.993,-2.621,0.175,-2.655,-0.531,1.496
542.0,-8.92,-2.659,0.163,-2.655,-0.531,1.637
546.0,-8.92,-2.659,0.163,-2.601,-0.491,1.637
550.0,-8.92,-2.659,0.163,-2.601,-0.491,1.637
554.0,-9.01,-2.692,0.1,-2.534,-0.437,1.775
558.0,-9.01,-2.692,0.1,-2.534,-0.437,1.775
561.0,-9.238,-2.752,0.063,-2.534,-0.437,1.775
565.0,-9.238,-2.752,0.063,-2.454,-0.368,1.911
569.0,-9.238,-2.752,0.063,-2.454,-0.368,1.911
573.0,-9.482,-2.843,0.073,-2.361,-0.294,2.049
577.0,-9.482,-2.843,0.073,-2.361,-0.294,2.049
581.0,-9.482,-2.953,0.111,-2.361,-0.294,2.049
585.0,-9.796,-2.953,0.111,-2.255,-0.222,2.186
589.0,-9.796,-2.953,0.111,-2.255,-0.222,2.186
593.0,-10.089,-3.084,0.132,-2.133,-0.153,2.317
597.0,-10.089,-3.084,0.132,-2.133,-0.153,2.317
601.0,-10.089,-3.084,0.166,-2.133,-0.153,2.317
605.0,-10.323,-3.214,0.166,-1.996,-0.09,2.432
609.0,-10.323,-3.214,0.166,-1.996,-0.09,2.432
613.0,-10.633,-3.315,0.215,-1.849,-0.035,2.524
617.0,-10.633,-3.315,0.215,-1.849,-0.035,2.524
621.0,-10.958,-3.406,0.299,-1.849,-0.035,2.524
625.0,-10.958,-3.406,0.299,-1.689,0.018,2.591
629.0,-10.958,-3.406,0.299,-1.689,0.018,2.591
632.0,-11.008,-3.48,0.452,-1.517,0.062,2.633
636.0,-11.008,-3.48,0.452,-1.517,0.062,2.633
640.0,-11.008,-3.529,0.592,-1.517,0.062,2.633
644.0,-10.691,-3.529,0.592,-1.332,0.081,2.645
648.0,-10.691,-3.529,0.592,-1.332,0.081,2.645
652.0,-10.408,-3.521,0.599,-1.137,0.087,2.616
656.0,-10.408,-3.521,0.599,-1.137,0.087,2.616
660.0,-10.408,-3.521,0.497,-1.137,0.087,2.616
664.0,-10.363,-3.422,0.497,-0.939,0.107,2.545
668.0,-10.363,-3.422,0.497,-0.939,0.107,2.545
672.0,-10.506,-3.296,0.444,-0.744,0.148,2.444
675.0,-10.506,-3.296,0.444,-0.744,0.148,2.444
679.0,-10.506,-3.296,0.444,-0.744,0.148,2.444
683.0,-10.686,-3.142,0.492,-0.559,0.194,2.334
687.0,-10.686,-3.142,0.492,-0.559,0.194,2.334
691.0,-10.773,-3.024,0.569,-0.389,0.232,2.219
695.0,-10.773,-3.024,0.569,-0.389,0.232,2.219
699.0,-10.773,-3.024,0.569,-0.389,0.232,2.219
703.0,-10.845,-2.919,0.586,-0.236,0.261,2.094
707.0,-10.845,-2.919,0.586,-0.236,0.261,2.094
711.0,-10.987,-2.786,0.532,-0.096,0.284,1.949
715.0,-10.987,-2.786,0.532,-0.096,0.284,1.949
718.0,-10.987,-2.786,0.532,-0.096,0.284,1.949
722.0,-11.101,-2.646,0.491,0.028,0.308,1.79
726.0,-11.101,-2.646,0.491,0.028,0.308,1.79
730.0,-11.118,-2.501,0.504,0.13,0.326,1.624
734.0,-11.118,-2.501,0.504,0.13,0.326,1.624
738.0,-11.118,-2.501,0.504,0.13,0.326,1.624
741.0,-11.155,-2.347,0.508,0.21,0.341,1.456
745.0,-11.155,-2.347,0.508,0.21,0.341,1.456
749.0,-11.239,-2.204,0.507,0.21,0.341,1.456
753.0,-11.239,-2.204,0.507,0.266,0.358,1.288
757.0,-11.239,-2.204,0.507,0.266,0.358,1.288
761.0,-11.229,-2.058,0.571,0.298,0.369,1.119
764.0,-11.229,-2.058,0.571,0.298,0.369,1.119
768.0,-11.229,-2.058,0.571,0.298,0.369,1.119
772.0,-11.021,-1.899,0.586,0.305,0.359,0.948
776.0,-11.021,-1.899,0.586,0.305,0.359,0.948
780.0,-10.723,-1.756,0.558,0.287,0.335,0.775
783.0,-10.723,-1.756,0.558,0.287,0.335,0.775
787.0,-10.723,-1.756,0.558,0.287,0.335,0.775
791.0,-10.508,-1.601,0.489,0.24,0.312,0.594
795.0,-10.508,-1.601,0.489,0.24,0.312,0.594
799.0,-10.396,-1.445,0.486,0.24,0.312,0.41
803.0,-10.396,-1.445,0.486,0.167,0.298,0.41
806.0,-10.396,-1.445,0.486,0.167,0.298,0.41
810.0,-10.219,-1.308,0.552,0.069,0.283,0.229
814.0,-10.219,-1.308,0.552,0.069,0.283,0.229
818.0,-10.219,-1.308,0.599,0.069,0.283,0.229
822.0,-9.946,-1.195,0.599,-0.049,0.255,0.057
825.0,-9.946,-1.195,0.599,-0.049,0.255,0.057
829.0,-9.855,-1.095,0.547,-0.183,0.223,-0.106
833.0,-9.855,-1.095,0.547,-0.183,0.223,-0.106
837.0,-9.855,-1.095,0.547,-0.183,0.223,-0.106
841.0,-10.182,-0.996,0.36,-0.331,0.207,-0.262
845.0,-10.182,-0.996,0.36,-0.331,0.207,-0.262
849.0,-10.753,-0.904,0.259,-0.492,0.215,-0.403
853.0,-10.753,-0.904,0.259,-0.492,0.215,-0.403
857.0,-10.753,-0.904,0.259,-0.492,0.215,-0.403
861.0,-11.056,-0.878,0.352,-0.661,0.226,-0.515
865.0,-11.056,-0.878,0.352,-0.661,0.226,-0.515
869.0,-10.969,-0.919,0.514,-0.834,0.216,-0.59
873.0,-10.969,-0.919,0.514,-0.834,0.216,-0.59
877.0,-10.969,-0.919,0.742,-0.834,0.216,-0.59
881.0,-10.724,-0.963,0.742,-1.001,0.195,-0.641
885.0,-10.724,-0.963,0.742,-1.001,0.195,-0.641
889.0,-10.113,-1.043,1.077,-1.151,0.165,-0.678
893.0,-10.113,-1.043,1.077,-1.151,0.165,-0.678
897.0,-10.113,-1.078,1.381,-1.151,0.165,-0.678
901.0,-9.441,-1.078,1.381,-1.279,0.111,-0.708
905.0,-9.441,-1.078,1.381,-1.279,0.111,-0.708
909.0,-8.826,-1.061,1.504,-1.387,0.04,-0.738
913.0,-8.826,-1.061,1.504,-1.387,0.04,-0.738
916.0,-8.826,-1.061,1.58,-1.387,0.04,-0.738
920.0,-8.162,-1.028,1.58,-1.48,-0.036,-0.767
924.0,-8.162,-1.028,1.58,-1.48,-0.036,-0.767
928.0,-7.595,-0.944,1.608,-1.565,-0.113,-0.793
932.0,-7.595,-0.944,1.608,-1.565,-0.113,-0.793
936.0,-7.595,-0.832,1.559,-1.565,-0.113,-0.793
940.0,-7.169,-0.832,1.559,-1.644,-0.173,-0.808
944.0,-7.169,-0.832,1.559,-1.644,-0.173,-0.808
948.0,-6.809,-0.802,1.556,-1.718,-0.203,-0.801
952.0,-6.809,-0.802,1.556,-1.718,-0.203,-0.801
956.0,-6.453,-0.767,1.649,-1.718,-0.203,-0.801
960.0,-6.453,-0.767,1.649,-1.783,-0.212,-0.766
964.0,-6.453,-0.767,1.649,-1.783,-0.212,-0.766
968.0,-6.179,-0.771,1.71,-1.833,-0.208,-0.697
972.0,-6.179,-0.771,1.71,-1.833,-0.208,-0.697
976.0,-6.06,-0.815,1.69,-1.833,-0.208,-0.599
980.0,-6.06,-0.815,1.69,-1.866,-0.187,-0.599
984.0,-6.06,-0.815,1.69,-1.866,-0.187,-0.599
988.0,-6.16,-0.899,1.593,-1.883,-0.137,-0.474
992.0,-6.16,-0.899,1.593,-1.883,-0.137,-0.474
996.0,-6.537,-0.983,1.525,-1.883,-0.05,-0.323
1000.0,-6.537,-0.983,1.525,-1.892,-0.05,-0.323
1004.0,-6.537,-0.983,1.525,-1.892,-0.05,-0.323
1008.0,-7.107,-1.149,1.618,-1.898,0.071,-0.141
1012.0,-7.107,-1.149,1.618,-1.898,0.071,-0.141
1016.0,-7.756,-1.397,1.967,-1.899,0.203,0.065
1020.0,-7.756,-1.397,1.967,-1.899,0.203,0.065
1024.0,-7.756,-1.397,1.967,-1.899,0.203,0.065
1028.0,-8.43,-1.693,2.386,-1.89,0.309,0.274
1032.0,-8.43,-1.693,2.386,-1.89,0.309,0.274
1036.0,-8.996,-1.971,2.746,-1.866,0.375,0.459
1040.0,-8.996,-1.971,2.746,-1.866,0.375,0.459
1044.0,-8.996,-1.971,2.746,-1.866,0.375,0.459
1048.0,-9.382,-2.195,3.113,-1.825,0.403,0.589
1052.0,-9.382,-2.195,3.113,-1.825,0.403,0.589
1055.0,-9.626,-2.292,3.414,-1.825,0.409,0.651
1059.0,-9.626,-2.292,3.414,-1.765,0.409,0.651
1063.0,-9.626,-2.292,3.414,-1.765,0.409,0.651
1067.0,-9.764,-2.3,3.706,-1.677,0.41,0.651
1071.0,-9.764,-2.3,3.706,-1.677,0.41,0.651
1075.0,-9.822,-2.255,3.977,-1.677,0.41,0.609
1079.0,-9.822,-2.255,3.977,-1.552,0.409,0.609
1083.0,-9.822,-2.255,3.977,-1.552,0.409,0.609
1087.0,-9.865,-2.174,4.178,-1.385,0.402,0.542
1091.0,-9.865,-2.174,4.178,-1.385,0.402,0.542
1095.0,-9.996,-2.061,4.36,-1.385,0.402,0.542
1098.0,-9.996,-2.061,4.36,-1.173,0.387,0.463
1102.0,-9.996,-2.061,4.36,-1.173,0.387,0.463
1106.0,-10.228,-1.937,4.516,-0.919,0.364,0.377
1110.0,-10.228,-1.937,4.516,-0.919,0.364,0.377
1114.0,-10.37,-1.803,4.501,-0.919,0.364,0.377
1118.0,-10.37,-1.803,4.501,-0.632,0.32,0.296
1122.0,-10.37,-1.803,4.501,-0.632,0.32,0.296
1126.0,-10.284,-1.663,4.358,-0.329,0.259,0.231
1130.0,-10.284,-1.663,4.358,-0.329,0.259,0.231
1134.0,-10.122,-1.511,4.184,-0.329,0.259,0.178
1138.0,-10.122,-1.511,4.184,-0.028,0.199,0.178
1142.0,-10.122,-1.511,4.184,-0.028,0.199,0.178
1146.0,-10.058,-1.411,4.088,0.26,0.155,0.135
1150.0,-10.058,-1.411,4.088,0.26,0.155,0.135
1154.0,-10.105,-1.396,4.085,0.26,0.155,0.099
1158.0,-10.105,-1.396,4.085,0.536,0.12,0.099
1162.0,-10.105,-1.396,4.085,0.536,0.12,0.099
1166.0,-10.171,-1.418,3.986,0.791,0.066,0.063
1170.0,-10.171,-1.418,3.986,0.791,0.066,0.063
1174.0,-10.227,-1.414,3.748,0.791,0.066,0.063
1177.0,-10.227,-1.414,3.748,1.016,-0.006,0.011
1181.0,-10.227,-1.414,3.748,1.016,-0.006,0.011
1185.0,-10.418,-1.345,3.488,1.2,-0.079,-0.063
1189.0,-10.418,-1.345,3.488,1.2,-0.079,-0.063
1194.0,-10.63,-1.234,3.269,1.2,-0.15,-0.148
1198.0,-10.63,-1.234,3.269,1.336,-0.15,-0.148
1202.0,-10.63,-1.234,3.269,1.336,-0.15,-0.148
1206.0,-10.665,-1.135,3.101,1.425,-0.224,-0.223
1210.0,-10.665,-1.135,3.101,1.425,-0.224,-0.223
1214.0,-10.518,-1.016,3.01,1.469,-0.3,-0.277
1218.0,-10.518,-1.016,3.01,1.469,-0.3,-0.277
1222.0,-10.518,-1.016,3.01,1.469,-0.3,-0.277
1226.0,-10.31,-0.925,2.901,1.476,-0.371,-0.316
1230.0,-10.31,-0.925,2.901,1.476,-0.371,-0.316
1234.0,-10.175,-0.836,2.813,1.449,-0.425,-0.341
1238.0,-10.175,-0.836,2.813,1.449,-0.425,-0.341
1243.0,-10.128,-0.798,2.719,1.449,-0.425,-0.341
1247.0,-10.128,-0.798,2.719,1.398,-0.462,-0.35
1251.0,-10.128,-0.798,2.719,1.398,-0.462,-0.35
1255.0,-10.163,-0.805,2.624,1.326,-0.486,-0.341
1259.0,-10.163,-0.805,2.624,1.326,-0.486,-0.341
1263.0,-10.223,-0.818,2.585,1.24,-0.501,-0.319
1267.0,-10.223,-0.818,2.585,1.24,-0.501,-0.319
1271.0,-10.223,-0.818,2.585,1.24,-0.501,-0.319
1275.0,-10.209,-0.861,2.581,1.144,-0.515,-0.288
1279.0,-10.209,-0.861,2.581,1.144,-0.515,-0.288
1283.0,-10.088,-0.971,2.593,1.049,-0.541,-0.253
1287.0,-10.088,-0.971,2.593,1.049,-0.541,-0.253
1291.0,-10.088,-0.971,2.593,1.049,-0.541,-0.253
1296.0,-9.916,-1.12,2.512,0.959,-0.578,-0.227
1300.0,-9.916,-1.12,2.512,0.959,-0.578,-0.227
1304.0,-9.873,-1.3,2.381,0.881,-0.612,-0.218
1308.0,-9.873,-1.3,2.381,0.881,-0.612,-0.218
1312.0,-9.873,-1.454,2.238,0.881,-0.612,-0.218
1316.0,-10.102,-1.454,2.238,0.815,-0.624,-0.225
1320.0,-10.102,-1.454,2.238,0.815,-0.624,-0.225
1324.0,-10.505,-1.601,2.118,0.763,-0.617,-0.237
1328.0,-10.505,-1.601,2.118,0.763,-0.617,-0.237
1332.0,-10.913,-1.75,2.117,0.763,-0.612,-0.242
1336.0,-10.913,-1.75,2.117,0.726,-0.612,-0.242
1340.0,-10.913,-1.75,2.117,0.726,-0.612,-0.242
1344.0,-11.229,-1.912,2.056,0.708,-0.624,-0.242
1348.0,-11.229,-1.912,2.056,0.708,-0.624,-0.242
1352.0,-11.509,-2.096,2.012,0.709,-0.65,-0.245
1356.0,-11.509,-2.096,2.012,0.709,-0.65,-0.245
1360.0,-11.509,-2.096,2.012,0.709,-0.65,-0.245
1364.0,-11.645,-2.237,1.932,0.733,-0.688,-0.263
1369.0,-11.645,-2.237,1.932,0.733,-0.688,-0.263
1373.0,-11.49,-2.319,1.802,0.777,-0.744,-0.3
1377.0,-11.49,-2.319,1.802,0.777,-0.744,-0.3
1381.0,-11.266,-2.331,1.588,0.777,-0.744,-0.3
1385.0,-11.266,-2.331,1.588,0.833,-0.803,-0.357
1389.0,-11.266,-2.331,1.588,0.833,-0.803,-0.357
1393.0,-10.952,-2.284,1.383,0.897,-0.846,-0.434
1397.0,-10.952,-2.284,1.383,0.897,-0.846,-0.434
1401.0,-10.489,-2.189,1.201,0.962,-0.88,-0.523
1405.0,-10.489,-2.189,1.201,0.962,-0.88,-0.523
1409.0,-10.489,-2.189,1.201,0.962,-0.88,-0.523
1413.0,-10.019,-2.058,1.018,1.024,-0.906,-0.617
1418.0,-10.019,-2.058,1.018,1.024,-0.906,-0.617
1422.0,-9.841,-1.934,0.832,1.079,-0.907,-0.712
1426.0,-9.841,-1.934,0.832,1.079,-0.907,-0.712
1430.0,-9.841,-1.934,0.832,1.079,-0.907,-0.712
1434.0,-10.033,-1.88,0.762,1.129,-0.88,-0.799
1438.0,-10.033,-1.88,0.762,1.129,-0.88,-0.799
1442.0,-10.108,-1.847,0.704,1.179,-0.851,-0.867
1446.0,-10.108,-1.847,0.704,1.179,-0.851,-0.867
1450.0,-10.132,-1.816,0.772,1.179,-0.851,-0.867
1454.0,-10.132,-1.816,0.772,1.22,-0.829,-0.916
1458.0,-10.132,-1.816,0.772,1.22,-0.829,-0.916
1462.0,-10.238,-1.82,0.808,1.255,-0.804,-0.954
1466.0,-10.238,-1.82,0.808,1.255,-0.804,-0.954
1470.0,-10.314,-1.872,0.846,1.283,-0.779,-0.983
1474.0,-10.314,-1.872,0.846,1.283,-0.779,-0.983
1478.0,-10.314,-1.872,0.846,1.283,-0.779,-0.983
1483.0,-10.286,-1.898,0.909,1.312,-0.756,-0.997
1487.0,-10.286,-1.898,0.909,1.312,-0.756,-0.997
1491.0,-10.18,-1.898,0.89,1.333,-0.745,-1.006
1495.0,-10.18,-1.898,0.89,1.333,-0.745,-1.006
1499.0,-10.18,-1.898,0.872,1.333,-0.745,-1.006
1503.0,-10.129,-1.884,0.872,1.338,-0.735,-1.015
1507.0,-10.129,-1.884,0.872,1.338,-0.735,-1.015
1511.0,-10.065,-1.863,0.854,1.333,-0.72,-1.025
1515.0,-10.065,-1.863,0.854,1.333,-0.72,-1.025
1519.0,-9.899,-1.826,0.855,1.333,-0.72,-1.026
1523.0,-9.899,-1.826,0.855,1.317,-0.705,-1.026
1527.0,-9.899,-1.826,0.855,1.317,-0.705,-1.026
1531.0,-9.623,-1.785,0.833,1.296,-0.694,-1.02
1535.0,-9.623,-1.785,0.833,1.296,-0.694,-1.02
1539.0,-9.428,-1.741,0.765,1.296,-0.679,-1.015
1543.0,-9.428,-1.741,0.765,1.268,-0.679,-1.015
1547.0,-9.428,-1.741,0.765,1.268,-0.679,-1.015
1551.0,-9.381,-1.685,0.687,1.233,-0.653,-1.012
1555.0,-9.381,-1.685,0.687,1.233,-0.653,-1.012
1559.0,-9.391,-1.62,0.607,1.191,-0.619,-1.006
1563.0,-9.391,-1.62,0.607,1.191,-0.619,-1.006
1567.0,-9.391,-1.62,0.607,1.191,-0.619,-1.006
1571.0,-9.379,-1.554,0.604,1.14,-0.582,-0.99
1575.0,-9.379,-1.554,0.604,1.14,-0.582,-0.99
1579.0,-9.2,-1.503,0.628,1.083,-0.551,-0.965
1583.0,-9.2,-1.503,0.628,1.083,-0.551,-0.965
1587.0,-9.2,-1.503,0.628,1.083,-0.551,-0.965
1591.0,-8.937,-1.481,0.598,1.025,-0.526,-0.94
1595.0,-8.937,-1.481,0.598,1.025,-0.526,-0.94
1599.0,-8.868,-1.462,0.528,0.967,-0.488,-0.92
1603.0,-8.868,-1.462,0.528,0.967,-0.488,-0.92
1607.0,-8.868,-1.462,0.528,0.967,-0.488,-0.92
1611.0,-8.996,-1.448,0.464,0.906,-0.434,-0.903
1615.0,-8.996,-1.448,0.464,0.906,-0.434,-0.903
1619.0,-9.239,-1.44,0.452,0.842,-0.369,-0.88
1623.0,-9.239,-1.44,0.452,0.842,-0.369,-0.88
1627.0,-9.239,-1.44,0.452,0.842,-0.369,-0.88
1631.0,-9.476,-1.442,0.519,0.773,-0.303,-0.847
1635.0,-9.476,-1.442,0.519,0.773,-0.303,-0.847
1639.0,-9.605,-1.474,0.58,0.707,-0.245,-0.807
1643.0,-9.605,-1.474,0.58,0.707,-0.245,-0.807
1647.0,-9.605,-1.474,0.616,0.707,-0.245,-0.807
1651.0,-9.77,-1.53,0.616,0.641,-0.188,-0.767
1655.0,-9.77,-1.53,0.616,0.641,-0.188,-0.767
1659.0,-9.949,-1.584,0.652,0.58,-0.132,-0.733
1663.0,-9.949,-1.584,0.652,0.58,-0.132,-0.733
1667.0,-10.088,-1.613,0.674,0.58,-0.132,-0.733
1671.0,-10.088,-1.613,0.674,0.525,-0.077,-0.706
1675.0,-10.088,-1.613,0.674,0.525,-0.077,-0.706
1679.0,-10.064,-1.596,0.725,0.476,-0.029,-0.684
1683.0,-10.064,-1.596,0.725,0.476,-0.029,-0.684
1687.0,-9.844,-1.566,0.776,0.434,0.01,-0.669
1691.0,-9.844,-1.566,0.776,0.434,0.01,-0.669
1695.0,-9.844,-1.566,0.776,0.434,0.01,-0.669
1699.0,-9.596,-1.509,0.822,0.402,0.045,-0.664
1703.0,-9.596,-1.509,0.822,0.402,0.045,-0.664
1707.0,-9.339,-1.441,0.845,0.402,0.078,-0.671
1711.0,-9.339,-1.441,0.845,0.377,0.078,-0.671
1715.0,-9.339,-1.441,0.845,0.377,0.078,-0.671
1719.0,-9.048,-1.386,0.873,0.358,0.111,-0.686
1723.0,-9.048,-1.386,0.873,0.358,0.111,-0.686
1726.0,-8.669,-1.314,0.954,0.358,0.111,-0.708
1730.0,-8.669,-1.314,0.954,0.344,0.136,-0.708
1734.0,-8.669,-1.314,0.954,0.344,0.136,-0.708
1738.0,-8.394,-1.213,1.07,0.334,0.15,-0.734
1742.0,-8.394,-1.213,1.07,0.334,0.15,-0.734
1746.0,-8.282,-1.12,1.102,0.334,0.15,-0.734
1750.0,-8.282,-1.12,1.102,0.324,0.158,-0.76
1754.0,-8.282,-1.12,1.102,0.324,0.158,-0.76
1758.0,-8.307,-1.068,1.12,0.311,0.171,-0.778
1762.0,-8.307,-1.068,1.12,0.311,0.171,-0.778
1766.0,-8.307,-1.012,1.21,0.311,0.171,-0.778
1769.0,-8.36,-1.012,1.21,0.291,0.186,-0.782
1773.0,-8.36,-1.012,1.21,0.291,0.186,-0.782
1777.0,-8.527,-0.982,1.311,0.264,0.201,-0.771
1781.0,-8.527,-0.982,1.311,0.264,0.201,-0.771
1785.0,-8.527,-0.982,1.311,0.264,0.201,-0.771
1789.0,-8.801,-0.976,1.37,0.23,0.222,-0.74
1793.0,-8.801,-0.976,1.37,0.23,0.222,-0.74
1797.0,-9.155,-0.992,1.478,0.189,0.256,-0.689
1801.0,-9.155,-0.992,1.478,0.189,0.256,-0.689
1805.0,-9.155,-0.992,1.478,0.189,0.256,-0.689
1809.0,-9.473,-0.998,1.671,0.145,0.291,-0.616
1812.0,-9.473,-0.998,1.671,0.145,0.291,-0.616
1816.0,-9.71,-1.006,1.825,0.101,0.32,-0.518
1820.0,-9.71,-1.006,1.825,0.101,0.32,-0.518
1824.0,-9.71,-1.006,1.825,0.101,0.32,-0.518
1828.0,-9.961,-1.016,1.973,0.053,0.352,-0.401
1832.0,-9.961,-1.016,1.973,0.053,0.352,-0.401
1836.0,-10.118,-1.004,2.255,0.004,0.388,-0.27
1840.0,-10.118,-1.004,2.255,0.004,0.388,-0.27
1844.0,-10.118,-1.004,2.255,0.004,0.388,-0.27
1848.0,-9.948,-0.985,2.654,-0.042,0.407,-0.129
1852.0,-9.948,-0.985,2.654,-0.042,0.407,-0.129
1856.0,-9.478,-0.904,3.017,-0.079,0.398,0.01
1860.0,-9.478,-0.904,3.017,-0.079,0.398,0.01
1864.0,-9.478,-0.904,3.017,-0.079,0.398,0.01
1868.0,-9.102,-0.827,3.311,-0.107,0.377,0.136
1871.0,-9.102,-0.827,3.311,-0.107,0.377,0.136
1875.0,-8.956,-0.729,3.571,-0.125,0.37,0.247
1879.0,-8.956,-0.729,3.571,-0.125,0.37,0.247
1883.0,-8.956,-0.729,3.571,-0.125,0.37,0.247
1887.0,-8.949,-0.608,3.843,-0.132,0.371,0.358
1891.0,-8.949,-0.608,3.843,-0.132,0.371,0.358
1895.0,-8.925,-0.509,4.041,-0.135,0.366,0.484
1899.0,-8.925,-0.509,4.041,-0.135,0.366,0.484
1903.0,-8.925,-0.509,4.041,-0.135,0.366,0.484
1907.0,-8.788,-0.451,4.033,-0.141,0.353,0.621
1910.0,-8.788,-0.451,4.033,-0.141,0.353,0.621
1914.0,-8.741,-0.389,4.065,-0.161,0.356,0.76
1918.0,-8.741,-0.389,4.065,-0.161,0.356,0.76
1922.0,-8.741,-0.389,4.065,-0.161,0.356,0.76
1926.0,-8.76,-0.37,4.007,-0.192,0.38,0.892
1930.0,-8.76,-0.37,4.007,-0.192,0.38,0.892
1934.0,-8.82,-0.385,3.965,-0.192,0.422,1.015
1938.0,-8.82,-0.385,3.965,-0.237,0.422,1.015
1942.0,-8.82,-0.385,3.965,-0.237,0.422,1.015
1946.0,-8.986,-0.401,3.958,-0.292,0.476,1.125
1950.0,-8.986,-0.401,3.958,-0.292,0.476,1.125
1953.0,-9.303,-0.396,4.07,-0.292,0.476,1.125
1957.0,-9.303,-0.396,4.07,-0.352,0.527,1.222
1961.0,-9.303,-0.396,4.07,-0.352,0.527,1.222
1965.0,-9.67,-0.378,4.259,-0.414,0.556,1.307
1969.0,-9.67,-0.378,4.259,-0.414,0.556,1.307
1973.0,-9.871,-0.377,4.395,-0.414,0.556,1.307
1977.0,-9.871,-0.377,4.395,-0.478,0.546,1.383
1981.0,-9.871,-0.377,4.395,-0.478,0.546,1.383
1985.0,-9.942,-0.441,4.426,-0.539,0.499,1.44
1989.0,-9.942,-0.441,4.426,-0.539,0.499,1.44
1993.0,-9.942,-0.441,4.351,-0.539,0.499,1.44
1996.0,-9.951,-0.51,4.351,-0.593,0.429,1.471
2000.0,-9.951,-0.51,4.351,-0.593,0.429,1.471
2004.0,-9.946,-0.569,4.268,-0.639,0.352,1.478
2008.0,-9.946,-0.569,4.268,-0.639,0.352,1.478
2012.0,-9.946,-0.569,4.268,-0.639,0.352,1.478
2016.0,-9.869,-0.672,4.115,-0.679,0.271,1.467
2020.0,-9.869,-0.672,4.115,-0.679,0.271,1.467
2024.0,-9.721,-0.825,3.873,-0.711,0.187,1.439
2028.0,-9.721,-0.825,3.873,-0.711,0.187,1.439
2032.0,-9.721,-0.825,3.873,-0.711,0.187,1.439
2035.0,-9.616,-0.97,3.582,-0.732,0.108,1.393
2039.0,-9.616,-0.97,3.582,-0.732,0.108,1.393
2043.0,-9.82,-1.156,3.194,-0.742,0.048,1.334
2047.0,-9.82,-1.156,3.194,-0.742,0.048,1.334
2051.0,-9.82,-1.156,3.194,-0.742,0.048,1.334
2055.0,-10.427,-1.32,2.932,-0.736,0.023,1.269
2059.0,-10.427,-1.32,2.932,-0.736,0.023,1.269
2063.0,-11.203,-1.478,2.913,-0.711,0.015,1.211
2067.0,-11.203,-1.478,2.913,-0.711,0.015,1.211
2071.0,-11.203,-1.478,2.913,-0.711,0.015,1.211
2075.0,-11.731,-1.664,2.888,-0.668,-0.013,1.17
2079.0,-11.731,-1.664,2.888,-0.668,-0.013,1.17
2083.0,-11.812,-1.862,2.776,-0.61,-0.073,1.132
2087.0,-11.812,-1.862,2.776,-0.61,-0.073,1.132
2091.0,-11.812,-2.042,2.611,-0.61,-0.073,1.132
2095.0,-11.612,-2.042,2.611,-0.542,-0.139,1.082
2099.0,-11.612,-2.042,2.611,-0.542,-0.139,1.082
2104.0,-11.385,-2.194,2.497,-0.459,-0.184,1.01
2108.0,-11.385,-2.194,2.497,-0.459,-0.184,1.01
2112.0,-11.167,-2.331,2.486,-0.459,-0.209,0.926
2116.0,-11.167,-2.331,2.486,-0.359,-0.209,0.926
2120.0,-11.167,-2.331,2.486,-0.359,-0.209,0.926
2124.0,-10.829,-2.387,2.415,-0.24,-0.234,0.844
2128.0,-10.829,-2.387,2.415,-0.24,-0.234,0.844
2132.0,-10.584,-2.412,2.462,-0.109,-0.261,0.766
2136.0,-10.584,-2.412,2.462,-0.109,-0.261,0.766
2140.0,-10.584,-2.412,2.462,-0.109,-0.261,0.766
2144.0,-10.433,-2.432,2.412,0.039,-0.295,0.697
2148.0,-10.433,-2.432,2.412,0.039,-0.295,0.697
2152.0,-10.298,-2.414,2.286,0.198,-0.323,0.634
2156.0,-10.298,-2.414,2.286,0.198,-0.323,0.634
2160.0,-10.298,-2.414,2.066,0.198,-0.323,0.634
2164.0,-10.165,-2.39,2.066,0.359,-0.341,0.577
2168.0,-10.165,-2.39,2.066,0.359,-0.341,0.577
2172.0,-10.16,-2.396,1.887,0.508,-0.337,0.53
2176.0,-10.16,-2.396,1.887,0.508,-0.337,0.53
2180.0,-10.213,-2.375,1.745,0.508,-0.337,0.53
2184.0,-10.213,-2.375,1.745,0.645,-0.313,0.495
2188.0,-10.213,-2.375,1.745,0.645,-0.313,0.495
2192.0,-10.282,-2.387,1.611,0.767,-0.277,0.478
2196.0,-10.282,-2.387,1.611,0.767,-0.277,0.478
2200.0,-10.458,-2.395,1.528,0.767,-0.277,0.478
2204.0,-10.458,-2.395,1.528,0.875,-0.229,0.471
2208.0,-10.458,-2.395,1.528,0.875,-0.229,0.471
2212.0,-10.654,-2.414,1.607,0.975,-0.173,0.473
2216.0,-10.654,-2.414,1.607,0.975,-0.173,0.473
2220.0,-10.623,-2.417,1.787,0.975,-0.136,0.486
2224.0,-10.623,-2.417,1.787,1.072,-0.136,0.486
2228.0,-10.623,-2.417,1.787,1.072,-0.136,0.486
2232.0,-10.337,-2.401,1.897,1.168,-0.131,0.506
2236.0,-10.337,-2.401,1.897,1.168,-0.131,0.506
2240.0,-9.948,-2.344,1.938,1.258,-0.147,0.516
2244.0,-9.948,-2.344,1.938,1.258,-0.147,0.516
2248.0,-9.948,-2.344,1.938,1.258,-0.147,0.516
2252.0,-9.633,-2.215,1.869,1.337,-0.163,0.511
2256.0,-9.633,-2.215,1.869,1.337,-0.163,0.511
2260.0,-9.39,-2.036,1.641,1.337,-0.169,0.5
2264.0,-9.39,-2.036,1.641,1.397,-0.169,0.5
2268.0,-9.39,-2.036,1.641,1.397,-0.169,0.5
2271.0,-9.308,-1.853,1.385,1.424,-0.154,0.499
2275.0,-9.308,-1.853,1.385,1.424,-0.154,0.499
2279.0,-9.488,-1.716,1.202,1.424,-0.154,0.517
2283.0,-9.488,-1.716,1.202,1.422,-0.109,0.517
2287.0,-9.488,-1.716,1.202,1.422,-0.109,0.517
2291.0,-9.745,-1.646,1.188,1.395,-0.046,0.56
2295.0,-9.745,-1.646,1.188,1.395,-0.046,0.56
2299.0,-9.816,-1.653,1.262,1.395,-0.046,0.56
2303.0,-9.816,-1.653,1.262,1.352,0.012,0.622
2307.0,-9.816,-1.653,1.262,1.352,0.012,0.622
2310.0,-9.699,-1.687,1.325,1.297,0.05,0.694
2314.0,-9.699,-1.687,1.325,1.297,0.05,0.694
2318.0,-9.699,-1.687,1.325,1.297,0.05,0.694
2322.0,-9.596,-1.733,1.386,1.232,0.084,0.757
2326.0,-9.596,-1.733,1.386,1.232,0.084,0.757
2329.0,-9.557,-1.747,1.497,1.164,0.125,0.801
2333.0,-9.557,-1.747,1.497,1.164,0.125,0.801
2337.0,-9.557,-1.747,1.497,1.164,0.125,0.801
2341.0,-9.418,-1.755,1.638,1.092,0.157,0.832
2345.0,-9.418,-1.755,1.638,1.092,0.157,0.832
2349.0,-9.132,-1.748,1.738,1.092,0.157,0.853
2352.0,-9.132,-1.748,1.738,1.025,0.165,0.853
2356.0,-9.132,-1.748,1.738,1.025,0.165,0.853
2360.0,-8.881,-1.746,1.76,0.963,0.161,0.859
2364.0,-8.881,-1.746,1.76,0.963,0.161,0.859
2368.0,-8.881,-1.746,1.731,0.963,0.161,0.859
2371.0,-8.7,-1.728,1.731,0.914,0.156,0.848
2375.0,-8.7,-1.728,1.731,0.914,0.156,0.848
2379.0,-8.545,-1.682,1.717,0.872,0.148,0.828
2383.0,-8.545,-1.682,1.717,0.872,0.148,0.828
2387.0,-8.545,-1.682,1.717,0.872,0.148,0.828
2391.0,-8.434,-1.667,1.642,0.833,0.132,0.81
2394.0,-8.434,-1.667,1.642,0.833,0.132,0.81
2398.0,-8.434,-1.645,1.481,0.792,0.118,0.794
2402.0,-8.434,-1.645,1.481,0.792,0.118,0.794
2406.0,-8.434,-1.645,1.481,0.792,0.118,0.794
2410.0,-8.687,-1.647,1.335,0.743,0.126,0.781
2413.0,-8.687,-1.647,1.335,0.743,0.126,0.781
2417.0,-9.053,-1.685,1.313,0.743,0.126,0.781
2421.0,-9.053,-1.685,1.313,0.685,0.151,0.774
2425.0,-9.053,-1.685,1.313,0.685,0.151,0.774
2429.0,-9.461,-1.767,1.385,0.622,0.178,0.772
2433.0,-9.461,-1.767,1.385,0.622,0.178,0.772
2436.0,-9.461,-1.767,1.385,0.622,0.178,0.772
2440.0,-9.835,-1.869,1.614,0.559,0.193,0.767
2444.0,-9.835,-1.869,1.614,0.559,0.193,0.767
2448.0,-9.867,-1.974,1.872,0.507,0.177,0.748
2452.0,-9.867,-1.974,1.872,0.507,0.177,0.748
2455.0,-9.867,-1.974,1.872,0.507,0.177,0.748
2459.0,-9.416,-2.051,1.963,0.469,0.122,0.702
2463.0,-9.416,-2.051,1.963,0.469,0.122,0.702
2467.0,-9.073,-2.083,1.864,0.469,0.122,0.622
2471.0,-9.073,-2.083,1.864,0.441,0.067,0.622
2475.0,-9.073,-2.083,1.864,0.441,0.067,0.622
2478.0,-9.211,-2.067,1.821,0.422,0.052,0.52
2482.0,-9.211,-2.067,1.821,0.422,0.052,0.52
2486.0,-9.211,-2.067,1.766,0.422,0.052,0.52
2490.0,-9.656,-2.107,1.766,0.41,0.061,0.426
2494.0,-9.656,-2.107,1.766,0.41,0.061,0.426
2497.0,-10.068,-2.188,1.711,0.406,0.068,0.353
2501.0,-10.068,-2.188,1.711,0.406,0.068,0.353
2505.0,-10.068,-2.188,1.711,0.406,0.068,0.353
2509.0,-10.423,-2.283,1.762,0.409,0.065,0.287
2513.0,-10.423,-2.283,1.762,0.409,0.065,0.287
2517.0,-10.736,-2.404,1.841,0.423,0.052,0.213
2521.0,-10.736,-2.404,1.841,0.423,0.052,0.213
2525.0,-10.736,-2.404,1.841,0.423,0.052,0.213
2529.0,-10.901,-2.534,1.846,0.451,0.027,0.128
2533.0,-10.901,-2.534,1.846,0.451,0.027,0.128
2537.0,-10.901,-2.6,1.919,0.491,-0.003,0.03
2541.0,-10.901,-2.6,1.919,0.491,-0.003,0.03
2545.0,-10.901,-2.6,1.919,0.491,-0.003,0.03
2549.0,-10.572,-2.576,1.937,0.538,-0.045,-0.086
2553.0,-10.572,-2.576,1.937,0.538,-0.045,-0.086
2557.0,-10.043,-2.492,1.884,0.59,-0.092,-0.216
2561.0,-10.043,-2.492,1.884,0.59,-0.092,-0.216
2565.0,-10.043,-2.492,1.884,0.59,-0.092,-0.216
2569.0,-9.567,-2.358,1.771,0.643,-0.121,-0.362
2573.0,-9.567,-2.358,1.771,0.643,-0.121,-0.362
2577.0,-9.235,-2.231,1.702,0.697,-0.126,-0.511
2581.0,-9.235,-2.231,1.702,0.697,-0.126,-0.511
2585.0,-9.235,-2.094,1.79,0.697,-0.126,-0.511
2589.0,-8.956,-2.094,1.79,0.755,-0.12,-0.652
2593.0,-8.956,-2.094,1.79,0.755,-0.12,-0.652
2597.0,-8.642,-2.022,1.781,0.818,-0.127,-0.779
2601.0,-8.642,-2.022,1.781,0.818,-0.127,-0.779
2605.0,-8.532,-2.005,1.719,0.818,-0.127,-0.779
2609.0,-8.532,-2.005,1.719,0.885,-0.13,-0.893
2613.0,-8.532,-2.005,1.719,0.885,-0.13,-0.893
2617.0,-8.844,-2.066,1.712,0.955,-0.11,-0.997
2621.0,-8.844,-2.066,1.712,0.955,-0.11,-0.997
2625.0,-9.354,-2.113,1.875,0.955,-0.11,-1.081
2629.0,-9.354,-2.113,1.875,1.036,-0.08,-1.081
2633.0,-9.354,-2.113,1.875,1.036,-0.08,-1.081
2637.0,-9.491,-2.179,2.012,1.126,-0.087,-1.142
2641.0,-9.491,-2.179,2.012,1.126,-0.087,-1.142
2645.0,-9.465,-2.281,1.944,1.126,-0.13,-1.188
2649.0,-9.465,-2.281,1.944,1.22,-0.13,-1.188
2653.0,-9.465,-2.281,1.944,1.22,-0.13,-1.188
2657.0,-9.742,-2.344,1.822,1.315,-0.157,-1.237
2661.0,-9.742,-2.344,1.822,1.315,-0.157,-1.237
2665.0,-10.293,-2.41,1.704,1.416,-0.152,-1.278
2669.0,-10.293,-2.41,1.704,1.416,-0.152,-1.278
2673.0,-10.293,-2.41,1.704,1.416,-0.152,-1.278
2677.0,-10.662,-2.457,1.692,1.521,-0.149,-1.297
2681.0,-10.662,-2.457,1.692,1.521,-0.149,-1.297
2685.0,-10.81,-2.498,1.727,1.628,-0.166,-1.294
2689.0,-10.81,-2.498,1.727,1.628,-0.166,-1.294
2693.0,-10.81,-2.498,1.754,1.628,-0.166,-1.294
2697.0,-10.85,-2.514,1.754,1.74,-0.199,-1.286
2701.0,-10.85,-2.514,1.754,1.74,-0.199,-1.286
2706.0,-10.851,-2.536,1.68,1.857,-0.236,-1.278
2710.0,-10.851,-2.536,1.68,1.857,-0.236,-1.278
2714.0,-10.954,-2.524,1.558,1.857,-0.236,-1.266
2718.0,-10.954,-2.524,1.558,1.976,-0.263,-1.266
2722.0,-10.954,-2.524,1.558,1.976,-0.263,-1.266
2726.0,-11.174,-2.495,1.473,2.092,-0.279,-1.246
2730.0,-11.174,-2.495,1.473,2.092,-0.279,-1.246
2734.0,-11.423,-2.448,1.433,2.202,-0.296,-1.217
2738.0,-11.423,-2.448,1.433,2.202,-0.296,-1.217
2742.0,-11.423,-2.448,1.433,2.202,-0.296,-1.217
2746.0,-11.533,-2.405,1.385,2.305,-0.324,-1.182
2750.0,-11.533,-2.405,1.385,2.305,-0.324,-1.182
2754.0,-11.657,-2.353,1.309,2.397,-0.358,-1.143
2759.0,-11.657,-2.353,1.309,2.397,-0.358,-1.143
2763.0,-11.657,-2.32,1.294,2.397,-0.358,-1.143
2767.0,-11.911,-2.32,1.294,2.477,-0.386,-1.106
2771.0,-11.911,-2.32,1.294,2.477,-0.386,-1.106
2775.0,-11.979,-2.28,1.244,2.548,-0.423,-1.068
2779.0,-11.979,-2.28,1.244,2.548,-0.423,-1.068
2783.0,-11.875,-2.209,1.147,2.604,-0.474,-1.034
2787.0,-11.875,-2.209,1.147,2.604,-0.474,-1.034
2791.0,-11.875,-2.209,1.147,2.604,-0.474,-1.034
2795.0,-11.807,-2.121,1.038,2.646,-0.523,-1.011
2799.0,-11.807,-2.121,1.038,2.646,-0.523,-1.011
2803.0,-11.804,-2.02,0.937,2.674,-0.562,-1.001
2808.0,-11.804,-2.02,0.937,2.674,-0.562,-1.001
2812.0,-11.804,-2.02,0.937,2.674,-0.562,-1.001
2816.0,-11.587,-1.9,0.862,2.687,-0.602,-0.998
2820.0,-11.587,-1.9,0.862,2.687,-0.602,-0.998
2824.0,-11.338,-1.762,0.744,2.681,-0.646,-1.002
2828.0,-11.338,-1.762,0.744,2.681,-0.646,-1.002
2832.0,-11.468,-1.634,0.62,2.681,-0.646,-1.002
2836.0,-11.468,-1.634,0.62,2.652,-0.67,-1.018
2840.0,-11.468,-1.634,0.62,2.652,-0.67,-1.018
2844.0,-11.827,-1.53,0.608,2.605,-0.672,-1.037
2848.0,-11.827,-1.53,0.608,2.605,-0.672,-1.037
2852.0,-11.972,-1.44,0.715,2.545,-0.685,-1.045
2856.0,-11.972,-1.44,0.715,2.545,-0.685,-1.045
2861.0,-11.972,-1.44,0.715,2.545,-0.685,-1.045
2865.0,-11.797,-1.383,0.805,2.472,-0.724,-1.041
2869.0,-11.797,-1.383,0.805,2.472,-0.724,-1.041
2873.0,-11.546,-1.326,0.806,2.389,-0.77,-1.041
2877.0,-11.546,-1.326,0.806,2.389,-0.77,-1.041
2881.0,-11.546,-1.326,0.687,2.389,-0.77,-1.041
2885.0,-11.362,-1.275,0.687,2.296,-0.809,-1.054
2889.0,-11.362,-1.275,0.687,2.296,-0.809,-1.054
2893.0,-11.337,-1.213,0.585,2.189,-0.827,-1.073
2897.0,-11.337,-1.213,0.585,2.189,-0.827,-1.073
2901.0,-11.386,-1.162,0.533,2.189,-0.833,-1.09
2905.0,-11.386,-1.162,0.533,2.069,-0.833,-1.09
2910.0,-11.386,-1.162,0.533,2.069,-0.833,-1.09
2914.0,-11.47,-1.116,0.525,1.938,-0.833,-1.098
2918.0,-11.47,-1.116,0.525,1.938,-0.833,-1.098
2922.0,-11.416,-1.101,0.523,1.801,-0.834,-1.098
2926.0,-11.416,-1.101,0.523,1.801,-0.834,-1.098
2930.0,-11.416,-1.101,0.523,1.801,-0.834,-1.098
2934.0,-11.197,-1.117,0.53,1.661,-0.842,-1.093
2938.0,-11.197,-1.117,0.53,1.661,-0.842,-1.093
2942.0,-11.118,-1.133,0.474,1.521,-0.843,-1.088
2946.0,-11.118,-1.133,0.474,1.521,-0.843,-1.088
2950.0,-11.185,-1.142,0.478,1.521,-0.843,-1.088
2954.0,-11.185,-1.142,0.478,1.384,-0.824,-1.087
2958.0,-11.185,-1.142,0.478,1.384,-0.824,-1.087
2963.0,-11.016,-1.142,0.572,1.25,-0.807,-1.078
2967.0,-11.016,-1.142,0.572,1.25,-0.807,-1.078
2971.0,-10.641,-1.135,0.676,1.122,-0.809,-1.063
2975.0,-10.641,-1.135,0.676,1.122,-0.809,-1.063
2979.0,-10.641,-1.135,0.676,1.122,-0.809,-1.063
2983.0,-10.165,-1.168,0.732,1.002,-0.823,-1.054
2987.0,-10.165,-1.168,0.732,1.002,-0.823,-1.054
2991.0,-9.717,-1.199,0.637,0.898,-0.834,-1.053
2995.0,-9.717,-1.199,0.637,0.898,-0.834,-1.053
2999.0,-9.717,-1.199,0.637,0.898,-0.834,-1.053
