deltaTime,Acc_X,Acc_Y,Acc_Z,Gyro_X,Gyro_Y,Gyro_Z
0.0,-8.836,-0.84,0.87,1.859,0.224,-0.772
3.0,-8.836,-0.765,1.013,1.859,0.224,-0.772
6.0,-9.459,-0.765,1.013,1.644,0.281,-0.799
9.0,-9.459,-0.765,1.013,1.644,0.281,-0.799
12.0,-9.459,-0.765,1.013,1.644,0.281,-0.799
15.0,-9.874,-0.867,1.239,1.429,0.324,-0.799
18.0,-9.874,-0.867,1.239,1.429,0.324,-0.799
21.0,-9.874,-0.867,1.239,1.429,0.324,-0.799
24.0,-9.9,-1.018,1.384,1.244,0.333,-0.772
27.0,-9.9,-1.018,1.384,1.244,0.333,-0.772
30.0,-9.9,-1.018,1.384,1.244,0.333,-0.772
33.0,-9.709,-1.125,1.35,1.244,0.333,-0.772
36.0,-9.709,-1.125,1.35,1.09,0.325,-0.732
39.0,-9.709,-1.125,1.35,1.09,0.325,-0.732
43.0,-9.547,-1.369,1.251,0.949,0.327,-0.695
47.0,-9.547,-1.369,1.251,0.949,0.327,-0.695
51.0,-9.547,-1.369,1.251,0.949,0.327,-0.695
54.0,-9.528,-1.671,1.155,0.833,0.347,-0.656
58.0,-9.528,-1.671,1.155,0.833,0.347,-0.656
62.0,-9.528,-1.671,1.067,0.833,0.347,-0.656
66.0,-9.664,-1.851,1.067,0.745,0.38,-0.624
69.0,-9.664,-1.851,1.067,0.745,0.38,-0.624
73.0,-10.102,-2.001,1.079,0.671,0.414,-0.603
77.0,-10.102,-2.001,1.079,0.671,0.414,-0.603
81.0,-10.102,-2.001,1.079,0.671,0.414,-0.603
85.0,-10.484,-2.172,1.14,0.617,0.426,-0.591
88.0,-10.484,-2.172,1.14,0.617,0.426,-0.591
92.0,-10.424,-2.127,1.174,0.617,0.402,-0.593
96.0,-10.424,-2.127,1.174,0.589,0.402,-0.593
100.0,-10.424,-2.127,1.174,0.589,0.402,-0.593
104.0,-10.074,-2.024,1.207,0.574,0.365,-0.624
108.0,-10.074,-2.024,1.207,0.574,0.365,-0.624
112.0,-9.832,-1.937,1.22,0.574,0.365,-0.624
115.0,-9.832,-1.937,1.22,0.567,0.337,-0.674
119.0,-9.832,-1.937,1.22,0.567,0.337,-0.674
123.0,-9.635,-1.778,1.218,0.576,0.32,-0.728
127.0,-9.635,-1.778,1.218,0.576,0.32,-0.728
131.0,-9.635,-1.778,1.218,0.576,0.32,-0.728
134.0,-9.617,-1.557,1.178,0.594,0.31,-0.776
138.0,-9.617,-1.557,1.178,0.594,0.31,-0.776
142.0,-9.936,-1.297,1.186,0.6,0.307,-0.81
146.0,-9.936,-1.297,1.186,0.6,0.307,-0.81
150.0,-9.936,-1.297,1.186,0.6,0.307,-0.81
154.0,-10.413,-1.164,1.306,0.581,0.309,-0.825
157.0,-10.413,-1.164,1.306,0.581,0.309,-0.825
161.0,-10.671,-1.213,1.568,0.581,0.301,-0.828
165.0,-10.671,-1.213,1.568,0.548,0.301,-0.828
169.0,-10.671,-1.213,1.568,0.548,0.301,-0.828
173.0,-10.74,-1.317,1.954,0.529,0.286,-0.826
177.0,-10.74,-1.317,1.954,0.529,0.286,-0.826
181.0,-10.581,-1.391,2.392,0.529,0.286,-0.822
185.0,-10.581,-1.391,2.392,0.537,0.255,-0.822
189.0,-10.581,-1.391,2.392,0.537,0.255,-0.822
193.0,-10.396,-1.449,2.754,0.572,0.214,-0.814
196.0,-10.396,-1.449,2.754,0.572,0.214,-0.814
200.0,-10.262,-1.426,2.972,0.572,0.214,-0.814
204.0,-10.262,-1.426,2.972,0.628,0.179,-0.8
208.0,-10.262,-1.426,2.972,0.628,0.179,-0.8
212.0,-10.339,-1.365,3.18,0.698,0.155,-0.778
216.0,-10.339,-1.365,3.18,0.698,0.155,-0.778
220.0,-10.339,-1.053,3.488,0.698,0.155,-0.778
224.0,-10.088,-1.053,3.488,0.772,0.134,-0.752
228.0,-10.088,-1.053,3.488,0.772,0.134,-0.752
232.0,-10.053,-0.848,3.678,0.809,0.108,-0.746
236.0,-10.053,-0.848,3.678,0.809,0.108,-0.746
239.0,-10.053,-0.848,3.973,0.809,0.108,-0.746
243.0,-10.136,-0.756,3.973,0.816,0.076,-0.71
247.0,-10.136,-0.756,3.973,0.816,0.076,-0.71
251.0,-10.133,-1.133,4.14,0.825,0.053,-0.644
255.0,-10.133,-1.133,4.14,0.825,0.053,-0.644
259.0,-10.133,-1.133,4.14,0.825,0.053,-0.644
263.0,-10.385,-1.426,4.117,0.876,0.024,-0.556
267.0,-10.385,-1.426,4.117,0.876,0.024,-0.556
271.0,-10.774,-1.582,4.177,0.943,-0.034,-0.461
275.0,-10.774,-1.582,4.177,0.943,-0.034,-0.461
279.0,-10.774,-1.582,4.177,0.943,-0.034,-0.461
283.0,-10.811,-1.636,4.193,1.0,-0.122,-0.364
287.0,-10.811,-1.636,4.193,1.0,-0.122,-0.364
291.0,-10.46,-1.601,4.028,1.04,-0.238,-0.285
295.0,-10.46,-1.601,4.028,1.04,-0.238,-0.285
299.0,-10.46,-1.601,3.567,1.04,-0.238,-0.285
303.0,-10.002,-1.382,3.567,1.046,-0.359,-0.236
307.0,-10.002,-1.382,3.567,1.046,-0.359,-0.236
311.0,-9.54,-1.267,3.275,0.992,-0.444,-0.21
315.0,-9.54,-1.267,3.275,0.992,-0.444,-0.21
318.0,-9.54,-1.267,3.017,0.992,-0.444,-0.21
322.0,-9.093,-1.34,3.017,0.925,-0.503,-0.21
326.0,-9.093,-1.34,3.017,0.925,-0.503,-0.21
330.0,-8.728,-1.418,2.761,0.875,-0.536,-0.222
334.0,-8.728,-1.418,2.761,0.875,-0.536,-0.222
338.0,-8.728,-1.418,2.761,0.875,-0.536,-0.222
342.0,-8.65,-1.596,2.664,0.843,-0.544,-0.236
346.0,-8.65,-1.596,2.664,0.843,-0.544,-0.236
350.0,-8.849,-1.663,2.56,0.849,-0.552,-0.249
354.0,-8.849,-1.663,2.56,0.849,-0.552,-0.249
358.0,-8.849,-1.663,2.56,0.849,-0.552,-0.249
361.0,-9.007,-1.654,2.407,0.872,-0.579,-0.263
365.0,-9.007,-1.654,2.407,0.872,-0.579,-0.263
369.0,-9.059,-1.655,2.284,0.896,-0.615,-0.275
373.0,-9.059,-1.655,2.284,0.896,-0.615,-0.275
377.0,-9.059,-1.655,2.284,0.896,-0.615,-0.275
381.0,-9.063,-1.632,2.255,0.92,-0.643,-0.277
385.0,-9.063,-1.632,2.255,0.92,-0.643,-0.277
389.0,-8.952,-1.616,2.125,0.941,-0.665,-0.268
393.0,-8.952,-1.616,2.125,0.941,-0.665,-0.268
397.0,-8.952,-1.616,2.125,0.941,-0.665,-0.268
400.0,-8.932,-1.634,1.988,0.948,-0.666,-0.246
404.0,-8.932,-1.634,1.988,0.948,-0.666,-0.246
408.0,-9.171,-1.645,1.927,0.941,-0.647,-0.22
412.0,-9.171,-1.645,1.927,0.941,-0.647,-0.22
416.0,-9.171,-1.645,1.927,0.941,-0.647,-0.22
420.0,-9.474,-1.612,1.968,0.919,-0.624,-0.187
424.0,-9.474,-1.612,1.968,0.919,-0.624,-0.187
428.0,-9.516,-1.567,2.005,0.919,-0.62,-0.139
432.0,-9.516,-1.567,2.005,0.881,-0.62,-0.139
436.0,-9.516,-1.567,2.005,0.881,-0.62,-0.139
440.0,-9.249,-1.548,2.006,0.824,-0.633,-0.081
443.0,-9.249,-1.548,2.006,0.824,-0.633,-0.081
447.0,-8.769,-1.518,1.959,0.824,-0.633,-0.022
451.0,-8.769,-1.518,1.959,0.746,-0.638,-0.022
455.0,-8.769,-1.518,1.959,0.746,-0.638,-0.022
459.0,-8.403,-1.725,1.825,0.663,-0.594,0.069
463.0,-8.403,-1.725,1.825,0.663,-0.594,0.069
467.0,-8.403,-1.792,1.801,0.663,-0.594,0.069
471.0,-9.44,-1.792,1.801,0.592,-0.523,0.141
474.0,-9.44,-1.792,1.801,0.592,-0.523,0.141
478.0,-10.106,-1.685,1.925,0.507,-0.505,0.154
482.0,-10.106,-1.685,1.925,0.507,-0.505,0.154
486.0,-10.106,-1.685,1.925,0.507,-0.505,0.154
490.0,-10.099,-1.483,1.96,0.398,-0.546,0.145
494.0,-10.099,-1.483,1.96,0.398,-0.546,0.145
498.0,-9.596,-1.314,1.819,0.266,-0.583,0.149
502.0,-9.596,-1.314,1.819,0.266,-0.583,0.149
505.0,-9.596,-1.314,1.819,0.266,-0.583,0.149
509.0,-9.324,-1.216,1.635,0.125,-0.572,0.166
513.0,-9.324,-1.216,1.635,0.125,-0.572,0.166
517.0,-9.403,-1.172,1.512,-0.017,-0.521,0.184
521.0,-9.403,-1.172,1.512,-0.017,-0.521,0.184
525.0,-9.403,-1.172,1.512,-0.017,-0.521,0.184
529.0,-9.685,-1.13,1.475,-0.157,-0.458,0.193
532.0,-9.685,-1.13,1.475,-0.157,-0.458,0.193
536.0,-9.757,-1.043,1.579,-0.157,-0.417,0.19
540.0,-9.757,-1.043,1.579,-0.292,-0.417,0.19
544.0,-9.757,-1.043,1.579,-0.292,-0.417,0.19
548.0,-9.416,-0.961,1.592,-0.42,-0.415,0.169
552.0,-9.416,-0.961,1.592,-0.42,-0.415,0.169
556.0,-8.995,-0.912,1.508,-0.42,-0.415,0.169
560.0,-8.995,-0.912,1.508,-0.545,-0.426,0.125
564.0,-8.995,-0.912,1.508,-0.545,-0.426,0.125
568.0,-8.711,-0.848,1.457,-0.664,-0.419,0.058
571.0,-8.711,-0.848,1.457,-0.664,-0.419,0.058
575.0,-8.635,-0.774,1.421,-0.664,-0.419,0.058
579.0,-8.635,-0.774,1.421,-0.777,-0.398,-0.019
583.0,-8.635,-0.774,1.421,-0.777,-0.398,-0.019
587.0,-8.764,-0.71,1.37,-0.883,-0.364,-0.095
591.0,-8.764,-0.71,1.37,-0.883,-0.364,-0.095
595.0,-9.124,-0.653,1.365,-0.883,-0.364,-0.095
599.0,-9.124,-0.653,1.365,-0.982,-0.321,-0.165
603.0,-9.124,-0.653,1.365,-0.982,-0.321,-0.165
607.0,-9.55,-0.626,1.441,-1.076,-0.281,-0.23
611.0,-9.55,-0.626,1.441,-1.076,-0.281,-0.23
615.0,-9.824,-0.61,1.6,-1.076,-0.281,-0.281
619.0,-9.824,-0.61,1.6,-1.163,-0.259,-0.281
623.0,-9.824,-0.61,1.6,-1.163,-0.259,-0.281
627.0,-9.815,-0.623,1.754,-1.239,-0.261,-0.317
631.0,-9.815,-0.623,1.754,-1.239,-0.261,-0.317
635.0,-9.69,-0.651,1.839,-1.239,-0.274,-0.34
639.0,-9.69,-0.651,1.839,-1.305,-0.274,-0.34
643.0,-9.69,-0.651,1.839,-1.305,-0.274,-0.34
647.0,-9.668,-0.682,1.851,-1.361,-0.282,-0.351
651.0,-9.668,-0.682,1.851,-1.361,-0.282,-0.351
655.0,-9.741,-0.721,1.822,-1.412,-0.275,-0.346
659.0,-9.741,-0.721,1.822,-1.412,-0.275,-0.346
663.0,-9.741,-0.721,1.822,-1.412,-0.275,-0.346
667.0,-9.76,-0.708,1.884,-1.457,-0.263,-0.321
671.0,-9.76,-0.708,1.884,-1.457,-0.263,-0.321
675.0,-9.595,-0.717,2.026,-1.496,-0.261,-0.274
679.0,-9.595,-0.717,2.026,-1.496,-0.261,-0.274
683.0,-9.595,-0.717,2.026,-1.496,-0.261,-0.274
687.0,-9.452,-0.714,2.114,-1.526,-0.279,-0.21
691.0,-9.452,-0.714,2.114,-1.526,-0.279,-0.21
695.0,-9.602,-0.692,2.036,-1.553,-0.301,-0.131
699.0,-9.602,-0.692,2.036,-1.553,-0.301,-0.131
703.0,-9.602,-0.692,2.036,-1.553,-0.301,-0.131
707.0,-10.07,-0.657,1.879,-1.588,-0.307,-0.03
711.0,-10.07,-0.657,1.879,-1.588,-0.307,-0.03
715.0,-10.594,-0.62,1.834,-1.639,-0.301,0.102
719.0,-10.594,-0.62,1.834,-1.639,-0.301,0.102
723.0,-10.594,-0.62,1.869,-1.639,-0.301,0.102
727.0,-10.936,-0.595,1.869,-1.711,-0.303,0.266
731.0,-10.936,-0.595,1.869,-1.711,-0.303,0.266
735.0,-10.859,-0.572,1.909,-1.803,-0.329,0.451
739.0,-10.859,-0.572,1.909,-1.803,-0.329,0.451
743.0,-10.389,-0.539,1.876,-1.803,-0.329,0.451
747.0,-10.389,-0.539,1.876,-1.917,-0.375,0.632
751.0,-10.389,-0.539,1.876,-1.917,-0.375,0.632
755.0,-9.756,-0.507,1.748,-2.052,-0.418,0.78
759.0,-9.756,-0.507,1.748,-2.052,-0.418,0.78
763.0,-9.177,-0.437,1.613,-2.052,-0.418,0.78
767.0,-9.177,-0.437,1.613,-2.204,-0.439,0.889
771.0,-9.177,-0.437,1.613,-2.204,-0.439,0.889
775.0,-8.688,-0.365,1.509,-2.371,-0.437,0.971
779.0,-8.688,-0.365,1.509,-2.371,-0.437,0.971
783.0,-8.688,-0.365,1.451,-2.371,-0.437,0.971
786.0,-8.364,-0.272,1.451,-2.542,-0.419,1.037
790.0,-8.364,-0.272,1.451,-2.542,-0.419,1.037
794.0,-8.259,-0.226,1.426,-2.713,-0.393,1.101
798.0,-8.259,-0.226,1.426,-2.713,-0.393,1.101
802.0,-8.259,-0.226,1.426,-2.713,-0.393,1.101
806.0,-8.505,-0.246,1.345,-2.88,-0.36,1.168
810.0,-8.505,-0.246,1.345,-2.88,-0.36,1.168
814.0,-9.047,-0.342,1.249,-3.038,-0.32,1.247
818.0,-9.047,-0.342,1.249,-3.038,-0.32,1.247
822.0,-9.047,-0.342,1.249,-3.038,-0.32,1.247
825.0,-9.662,-0.528,1.158,-3.187,-0.281,1.341
829.0,-9.662,-0.528,1.158,-3.187,-0.281,1.341
833.0,-10.315,-0.763,1.111,-3.323,-0.247,1.449
837.0,-10.315,-0.763,1.111,-3.323,-0.247,1.449
841.0,-10.315,-0.763,1.111,-3.323,-0.247,1.449
845.0,-10.997,-1.022,1.067,-3.442,-0.225,1.56
849.0,-10.997,-1.022,1.067,-3.442,-0.225,1.56
853.0,-11.463,-1.256,0.945,-3.542,-0.229,1.667
857.0,-11.463,-1.256,0.945,-3.542,-0.229,1.667
861.0,-11.463,-1.256,0.945,-3.542,-0.229,1.667
865.0,-11.599,-1.396,0.878,-3.628,-0.257,1.766
869.0,-11.599,-1.396,0.878,-3.628,-0.257,1.766
873.0,-11.383,-1.515,0.793,-3.701,-0.307,1.849
877.0,-11.383,-1.515,0.793,-3.701,-0.307,1.849
881.0,-11.383,-1.515,0.644,-3.701,-0.307,1.849
885.0,-10.984,-1.627,0.644,-3.761,-0.361,1.908
889.0,-10.984,-1.627,0.644,-3.761,-0.361,1.908
893.0,-10.734,-1.742,0.474,-3.805,-0.399,1.942
897.0,-10.734,-1.742,0.474,-3.805,-0.399,1.942
901.0,-10.633,-1.822,0.315,-3.805,-0.399,1.942
905.0,-10.633,-1.822,0.315,-3.833,-0.42,1.957
909.0,-10.633,-1.822,0.315,-3.833,-0.42,1.957
913.0,-10.597,-1.915,0.198,-3.844,-0.436,1.96
917.0,-10.597,-1.915,0.198,-3.844,-0.436,1.96
921.0,-10.755,-1.979,0.011,-3.844,-0.436,1.952
925.0,-10.755,-1.979,0.011,-3.841,-0.452,1.952
929.0,-10.755,-1.979,0.011,-3.841,-0.452,1.952
933.0,-11.234,-2.006,-0.205,-3.831,-0.46,1.935
937.0,-11.234,-2.006,-0.205,-3.831,-0.46,1.935
941.0,-11.683,-2.029,-0.329,-3.816,-0.465,1.919
945.0,-11.683,-2.029,-0.329,-3.816,-0.465,1.919
949.0,-11.683,-2.029,-0.329,-3.816,-0.465,1.919
954.0,-11.825,-2.118,-0.349,-3.799,-0.484,1.908
958.0,-11.825,-2.118,-0.349,-3.799,-0.484,1.908
962.0,-11.818,-2.229,-0.395,-3.777,-0.511,1.9
966.0,-11.818,-2.229,-0.395,-3.777,-0.511,1.9
970.0,-11.818,-2.229,-0.395,-3.777,-0.511,1.9
974.0,-11.811,-2.316,-0.407,-3.747,-0.529,1.887
978.0,-11.811,-2.316,-0.407,-3.747,-0.529,1.887
982.0,-11.497,-2.409,-0.276,-3.707,-0.545,1.872
986.0,-11.497,-2.409,-0.276,-3.707,-0.545,1.872
990.0,-10.893,-2.492,-0.164,-3.707,-0.545,1.853
994.0,-10.893,-2.492,-0.164,-3.658,-0.578,1.853
998.0,-10.893,-2.492,-0.164,-3.658,-0.578,1.853
1002.0,-10.405,-2.511,-0.179,-3.604,-0.613,1.822
1007.0,-10.405,-2.511,-0.179,-3.604,-0.613,1.822
1011.0,-10.086,-2.509,-0.293,-3.55,-0.632,1.778
1015.0,-10.086,-2.509,-0.293,-3.55,-0.632,1.778
1019.0,-10.086,-2.509,-0.293,-3.55,-0.632,1.778
1023.0,-9.895,-2.482,-0.415,-3.504,-0.632,1.729
1027.0,-9.895,-2.482,-0.415,-3.504,-0.632,1.729
1031.0,-9.853,-2.473,-0.59,-3.466,-0.618,1.68
1036.0,-9.853,-2.473,-0.59,-3.466,-0.618,1.68
1040.0,-9.968,-2.487,-0.682,-3.466,-0.618,1.633
1044.0,-9.968,-2.487,-0.682,-3.436,-0.586,1.633
1048.0,-9.968,-2.487,-0.682,-3.436,-0.586,1.633
1052.0,-10.187,-2.499,-0.723,-3.404,-0.544,1.587
1056.0,-10.187,-2.499,-0.723,-3.404,-0.544,1.587
1060.0,-10.373,-2.545,-0.733,-3.369,-0.501,1.545
1064.0,-10.373,-2.545,-0.733,-3.369,-0.501,1.545
1069.0,-10.373,-2.545,-0.733,-3.369,-0.501,1.545
1073.0,-10.549,-2.617,-0.698,-3.328,-0.462,1.511
1077.0,-10.549,-2.617,-0.698,-3.328,-0.462,1.511
1081.0,-10.7,-2.677,-0.618,-3.281,-0.426,1.487
1085.0,-10.7,-2.677,-0.618,-3.281,-0.426,1.487
1089.0,-10.817,-2.751,-0.577,-3.228,-0.392,1.473
1094.0,-10.817,-2.751,-0.577,-3.228,-0.392,1.473
1098.0,-10.817,-2.751,-0.577,-3.228,-0.392,1.473
1102.0,-10.915,-2.821,-0.514,-3.17,-0.36,1.469
1106.0,-10.915,-2.821,-0.514,-3.17,-0.36,1.469
1110.0,-10.839,-2.897,-0.458,-3.106,-0.333,1.473
1114.0,-10.839,-2.897,-0.458,-3.106,-0.333,1.473
1119.0,-10.637,-2.942,-0.4,-3.106,-0.333,1.48
1123.0,-10.637,-2.942,-0.4,-3.039,-0.313,1.48
1127.0,-10.637,-2.942,-0.4,-3.039,-0.313,1.48
1131.0,-10.329,-2.952,-0.294,-2.968,-0.295,1.483
1135.0,-10.329,-2.952,-0.294,-2.968,-0.295,1.483
1139.0,-9.702,-2.93,-0.095,-2.889,-0.291,1.481
1143.0,-9.702,-2.93,-0.095,-2.889,-0.291,1.481
1148.0,-9.702,-2.93,-0.095,-2.889,-0.291,1.481
1152.0,-8.861,-2.868,0.005,-2.801,-0.312,1.466
1156.0,-8.861,-2.868,0.005,-2.801,-0.312,1.466
1160.0,-8.17,-2.789,-0.103,-2.712,-0.335,1.431
1164.0,-8.17,-2.789,-0.103,-2.712,-0.335,1.431
1168.0,-7.86,-2.7,-0.288,-2.712,-0.335,1.431
1172.0,-7.86,-2.7,-0.288,-2.626,-0.332,1.382
1176.0,-7.86,-2.7,-0.288,-2.626,-0.332,1.382
1180.0,-7.908,-2.591,-0.434,-2.546,-0.294,1.335
1184.0,-7.908,-2.591,-0.434,-2.546,-0.294,1.335
1188.0,-8.212,-2.533,-0.476,-2.475,-0.239,1.308
1192.0,-8.212,-2.533,-0.476,-2.475,-0.239,1.308
1196.0,-8.212,-2.533,-0.476,-2.475,-0.239,1.308
1200.0,-8.713,-2.531,-0.465,-2.415,-0.184,1.304
1204.0,-8.713,-2.531,-0.465,-2.415,-0.184,1.304
1209.0,-9.27,-2.596,-0.397,-2.368,-0.135,1.313
1213.0,-9.27,-2.596,-0.397,-2.368,-0.135,1.313
1217.0,-9.27,-2.596,-0.323,-2.368,-0.135,1.313
1221.0,-9.781,-2.661,-0.323,-2.339,-0.098,1.33
1225.0,-9.781,-2.661,-0.323,-2.339,-0.098,1.33
1229.0,-10.102,-2.725,-0.211,-2.328,-0.07,1.352
1233.0,-10.102,-2.725,-0.211,-2.328,-0.07,1.352
1237.0,-10.188,-2.771,-0.166,-2.328,-0.048,1.375
1241.0,-10.188,-2.771,-0.166,-2.339,-0.048,1.375
1246.0,-10.188,-2.771,-0.166,-2.339,-0.048,1.375
1250.0,-10.323,-2.763,-0.236,-2.373,-0.016,1.394
1254.0,-10.323,-2.763,-0.236,-2.373,-0.016,1.394
1258.0,-10.597,-2.713,-0.276,-2.429,0.047,1.413
1262.0,-10.597,-2.713,-0.276,-2.429,0.047,1.413
1266.0,-10.597,-2.631,-0.157,-2.429,0.047,1.413
1270.0,-10.707,-2.631,-0.157,-2.505,0.122,1.436
1274.0,-10.707,-2.631,-0.157,-2.505,0.122,1.436
1279.0,-10.445,-2.535,0.078,-2.593,0.187,1.456
1282.0,-10.445,-2.535,0.078,-2.593,0.187,1.456
1286.0,-9.797,-2.438,0.362,-2.593,0.187,1.461
1290.0,-9.797,-2.438,0.362,-2.685,0.23,1.461
1294.0,-9.797,-2.438,0.362,-2.685,0.23,1.461
1298.0,-9.058,-2.317,0.455,-2.771,0.251,1.44
1302.0,-9.058,-2.317,0.455,-2.771,0.251,1.44
1306.0,-8.673,-2.173,0.365,-2.771,0.251,1.44
1310.0,-8.673,-2.173,0.365,-2.856,0.285,1.391
1314.0,-8.673,-2.173,0.365,-2.856,0.285,1.391
1318.0,-8.645,-2.038,0.199,-2.943,0.357,1.331
1322.0,-8.645,-2.038,0.199,-2.943,0.357,1.331
1326.0,-8.85,-1.995,0.066,-2.943,0.357,1.331
1329.0,-8.85,-1.995,0.066,-3.037,0.46,1.287
1333.0,-8.85,-1.995,0.066,-3.037,0.46,1.287
1337.0,-9.298,-2.063,0.014,-3.133,0.586,1.273
1341.0,-9.298,-2.063,0.014,-3.133,0.586,1.273
1345.0,-9.298,-2.063,0.153,-3.133,0.586,1.273
1349.0,-9.93,-2.31,0.153,-3.216,0.729,1.289
1353.0,-9.93,-2.31,0.153,-3.216,0.729,1.289
1357.0,-10.458,-2.634,0.49,-3.271,0.86,1.334
1361.0,-10.458,-2.634,0.49,-3.271,0.86,1.334
1365.0,-10.458,-2.634,0.927,-3.271,0.86,1.334
1369.0,-10.724,-2.978,0.927,-3.286,0.951,1.401
1373.0,-10.724,-2.978,0.927,-3.286,0.951,1.401
1377.0,-10.806,-3.263,1.287,-3.26,1.002,1.476
1381.0,-10.806,-3.263,1.287,-3.26,1.002,1.476
1385.0,-10.806,-3.464,1.451,-3.26,1.002,1.476
1389.0,-10.969,-3.464,1.451,-3.202,1.037,1.549
1393.0,-10.969,-3.464,1.451,-3.202,1.037,1.549
1397.0,-11.339,-3.597,1.5,-3.127,1.089,1.627
1401.0,-11.339,-3.597,1.5,-3.127,1.089,1.627
1405.0,-11.659,-3.705,1.702,-3.127,1.089,1.627
1409.0,-11.659,-3.705,1.702,-3.041,1.157,1.718
1413.0,-11.659,-3.705,1.702,-3.041,1.157,1.718
1417.0,-11.567,-3.832,2.112,-2.94,1.21,1.82
1421.0,-11.567,-3.832,2.112,-2.94,1.21,1.82
1425.0,-11.146,-3.913,2.662,-2.94,1.21,1.907
1429.0,-11.146,-3.913,2.662,-2.817,1.226,1.907
1433.0,-11.146,-3.913,2.662,-2.817,1.226,1.907
1437.0,-10.469,-3.904,3.083,-2.666,1.2,1.957
1441.0,-10.469,-3.904,3.083,-2.666,1.2,1.957
1445.0,-9.62,-3.807,3.221,-2.501,1.15,1.964
1449.0,-9.62,-3.807,3.221,-2.501,1.15,1.964
1452.0,-9.62,-3.807,3.221,-2.501,1.15,1.964
1456.0,-8.871,-3.679,3.103,-2.34,1.116,1.935
1460.0,-8.871,-3.679,3.103,-2.34,1.116,1.935
1464.0,-8.603,-3.565,2.921,-2.34,1.14,1.892
1468.0,-8.603,-3.565,2.921,-2.194,1.14,1.892
1472.0,-8.603,-3.565,2.921,-2.194,1.14,1.892
1476.0,-9.112,-3.547,2.941,-2.055,1.231,1.857
1480.0,-9.112,-3.547,2.941,-2.055,1.231,1.857
1484.0,-10.094,-3.703,3.196,-2.055,1.231,1.857
1488.0,-10.094,-3.703,3.196,-1.91,1.332,1.845
1492.0,-10.094,-3.703,3.196,-1.91,1.332,1.845
1496.0,-11.1,-3.904,3.705,-1.748,1.382,1.84
1500.0,-11.1,-3.904,3.705,-1.748,1.382,1.84
1504.0,-11.541,-4.052,4.178,-1.748,1.344,1.809
1508.0,-11.541,-4.052,4.178,-1.574,1.344,1.809
1512.0,-11.541,-4.052,4.178,-1.574,1.344,1.809
1516.0,-11.121,-4.05,4.293,-1.404,1.235,1.728
1520.0,-11.121,-4.05,4.293,-1.404,1.235,1.728
1524.0,-10.345,-3.843,4.183,-1.258,1.133,1.588
1528.0,-10.345,-3.843,4.183,-1.258,1.133,1.588
1532.0,-10.345,-3.843,4.183,-1.258,1.133,1.588
1536.0,-9.68,-3.538,4.187,-1.146,1.085,1.405
1540.0,-9.68,-3.538,4.187,-1.146,1.085,1.405
1543.0,-9.013,-3.176,4.18,-1.062,1.062,1.214
1547.0,-9.013,-3.176,4.18,-1.062,1.062,1.214
1551.0,-9.013,-3.176,4.18,-1.062,1.062,1.214
1555.0,-8.465,-2.828,4.213,-1.005,1.043,1.036
1559.0,-8.465,-2.828,4.213,-1.005,1.043,1.036
1563.0,-8.307,-2.56,4.234,-1.005,1.036,0.877
1567.0,-8.307,-2.56,4.234,-0.971,1.036,0.877
1571.0,-8.307,-2.56,4.234,-0.971,1.036,0.877
1575.0,-8.661,-2.399,4.357,-0.95,1.046,0.736
1579.0,-8.661,-2.399,4.357,-0.95,1.046,0.736
1582.0,-9.174,-2.392,4.449,-0.95,1.046,0.622
1586.0,-9.174,-2.392,4.449,-0.935,1.043,0.622
1590.0,-9.174,-2.392,4.449,-0.935,1.043,0.622
1594.0,-9.669,-2.437,4.579,-0.927,1.013,0.526
1598.0,-9.669,-2.437,4.579,-0.927,1.013,0.526
1602.0,-10.071,-2.507,4.644,-0.927,1.013,0.526
1606.0,-10.071,-2.507,4.644,-0.919,0.963,0.434
1610.0,-10.071,-2.507,4.644,-0.919,0.963,0.434
1614.0,-10.393,-2.539,4.726,-0.915,0.907,0.346
1618.0,-10.393,-2.539,4.726,-0.915,0.907,0.346
1622.0,-10.63,-2.504,4.803,-0.915,0.907,0.263
1626.0,-10.63,-2.504,4.803,-0.92,0.845,0.263
1630.0,-10.63,-2.504,4.803,-0.92,0.845,0.263
1634.0,-10.72,-2.435,4.93,-0.931,0.775,0.191
1638.0,-10.72,-2.435,4.93,-0.931,0.775,0.191
1642.0,-10.513,-2.329,4.874,-0.931,0.689,0.124
1646.0,-10.513,-2.329,4.874,-0.947,0.689,0.124
1650.0,-10.513,-2.329,4.874,-0.947,0.689,0.124
1654.0,-10.382,-2.225,4.795,-0.975,0.612,0.05
1658.0,-10.382,-2.225,4.795,-0.975,0.612,0.05
1662.0,-10.351,-2.163,4.695,-1.007,0.557,-0.029
1666.0,-10.351,-2.163,4.695,-1.007,0.557,-0.029
1670.0,-10.351,-2.163,4.695,-1.007,0.557,-0.029
1674.0,-10.27,-2.112,4.697,-1.031,0.507,-0.101
1678.0,-10.27,-2.112,4.697,-1.031,0.507,-0.101
1682.0,-10.04,-2.074,4.796,-1.039,0.449,-0.167
1686.0,-10.04,-2.074,4.796,-1.039,0.449,-0.167
1690.0,-10.04,-2.074,4.818,-1.039,0.449,-0.167
1695.0,-9.702,-2.042,4.818,-1.023,0.378,-0.233
1699.0,-9.702,-2.042,4.818,-1.023,0.378,-0.233
1703.0,-9.483,-1.962,4.638,-0.985,0.307,-0.308
1707.0,-9.483,-1.962,4.638,-0.985,0.307,-0.308
1711.0,-9.783,-1.874,4.644,-0.985,0.307,-0.308
1715.0,-9.783,-1.874,4.644,-0.93,0.274,-0.392
1719.0,-9.783,-1.874,4.644,-0.93,0.274,-0.392
1723.0,-10.172,-1.845,4.705,-0.857,0.249,-0.465
1727.0,-10.172,-1.845,4.705,-0.857,0.249,-0.465
1731.0,-10.321,-1.782,4.774,-0.857,0.249,-0.526
1735.0,-10.321,-1.782,4.774,-0.769,0.196,-0.526
1739.0,-10.321,-1.782,4.774,-0.769,0.196,-0.526
1743.0,-10.32,-1.705,4.789,-0.669,0.125,-0.594
1747.0,-10.32,-1.705,4.789,-0.669,0.125,-0.594
1751.0,-10.213,-1.588,4.654,-0.559,0.047,-0.682
1755.0,-10.213,-1.588,4.654,-0.559,0.047,-0.682
1759.0,-10.213,-1.588,4.654,-0.559,0.047,-0.682
1763.0,-10.347,-1.347,4.597,-0.449,-0.011,-0.787
1767.0,-10.347,-1.347,4.597,-0.449,-0.011,-0.787
1772.0,-10.567,-1.068,4.604,-0.338,-0.063,-0.886
1776.0,-10.567,-1.068,4.604,-0.338,-0.063,-0.886
1780.0,-10.683,-0.72,4.562,-0.338,-0.063,-0.963
1784.0,-10.683,-0.72,4.562,-0.227,-0.127,-0.963
1788.0,-10.683,-0.72,4.562,-0.227,-0.127,-0.963
1792.0,-10.585,-0.377,4.41,-0.116,-0.2,-1.01
1797.0,-10.585,-0.377,4.41,-0.116,-0.2,-1.01
1801.0,-10.594,-0.041,3.928,-0.009,-0.257,-1.029
1805.0,-10.594,-0.041,3.928,-0.009,-0.257,-1.029
1809.0,-10.594,0.353,3.738,-0.009,-0.257,-1.029
1813.0,-11.261,0.353,3.738,0.094,-0.231,-1.022
1817.0,-11.261,0.353,3.738,0.094,-0.231,-1.022
1821.0,-11.959,0.653,3.947,0.204,-0.171,-0.96
1825.0,-11.959,0.653,3.947,0.204,-0.171,-0.96
1829.0,-11.83,0.877,4.216,0.204,-0.171,-0.96
1833.0,-11.83,0.877,4.216,0.311,-0.18,-0.828
1837.0,-11.83,0.877,4.216,0.311,-0.18,-0.828
1841.0,-11.247,0.899,4.034,0.406,-0.247,-0.68
1845.0,-11.247,0.899,4.034,0.406,-0.247,-0.68
1849.0,-11.544,1.116,3.901,0.406,-0.249,-0.6
1853.0,-11.544,1.116,3.901,0.487,-0.249,-0.6
1857.0,-11.544,1.116,3.901,0.487,-0.249,-0.6
1861.0,-12.02,1.32,4.205,0.562,-0.178,-0.572
1865.0,-12.02,1.32,4.205,0.562,-0.178,-0.572
1869.0,-11.478,1.542,4.449,0.622,-0.19,-0.519
1873.0,-11.478,1.542,4.449,0.622,-0.19,-0.519
1877.0,-11.478,1.542,4.449,0.622,-0.19,-0.519
1881.0,-10.661,1.749,4.468,0.67,-0.279,-0.456
1885.0,-10.661,1.749,4.468,0.67,-0.279,-0.456
1889.0,-10.126,2.039,4.169,0.723,-0.36,-0.44
1893.0,-10.126,2.039,4.169,0.723,-0.36,-0.44
1897.0,-10.126,2.039,4.169,0.723,-0.36,-0.44
1901.0,-9.903,2.276,3.584,0.774,-0.393,-0.457
1905.0,-9.903,2.276,3.584,0.774,-0.393,-0.457
1909.0,-10.051,2.565,3.118,0.804,-0.358,-0.48
1913.0,-10.051,2.565,3.118,0.804,-0.358,-0.48
1917.0,-10.051,2.565,3.118,0.804,-0.358,-0.48
1921.0,-10.414,2.656,2.968,0.816,-0.281,-0.479
1925.0,-10.414,2.656,2.968,0.816,-0.281,-0.479
1929.0,-11.007,2.703,2.912,0.819,-0.207,-0.463
1933.0,-11.007,2.703,2.912,0.819,-0.207,-0.463
1937.0,-11.007,2.703,2.912,0.819,-0.207,-0.463
1941.0,-11.543,2.756,3.024,0.826,-0.148,-0.439
1945.0,-11.543,2.756,3.024,0.826,-0.148,-0.439
1949.0,-11.713,2.801,3.123,0.833,-0.131,-0.402
1953.0,-11.713,2.801,3.123,0.833,-0.131,-0.402
1957.0,-11.713,2.801,3.123,0.833,-0.131,-0.402
1961.0,-11.656,2.902,3.283,0.837,-0.134,-0.367
1965.0,-11.656,2.902,3.283,0.837,-0.134,-0.367
1969.0,-11.26,2.97,3.357,0.841,-0.158,-0.334
1973.0,-11.26,2.97,3.357,0.841,-0.158,-0.334
1977.0,-11.26,2.97,3.359,0.841,-0.158,-0.334
1981.0,-10.721,2.965,3.359,0.845,-0.192,-0.31
1985.0,-10.721,2.965,3.359,0.845,-0.192,-0.31
1989.0,-10.168,2.915,3.167,0.842,-0.23,-0.302
1993.0,-10.168,2.915,3.167,0.842,-0.23,-0.302
1997.0,-10.168,2.882,2.895,0.842,-0.23,-0.302
2001.0,-9.772,2.882,2.895,0.824,-0.246,-0.317
2005.0,-9.772,2.882,2.895,0.824,-0.246,-0.317
2009.0,-9.52,2.932,2.798,0.789,-0.232,-0.343
2012.0,-9.52,2.932,2.798,0.789,-0.232,-0.343
2016.0,-9.52,2.932,2.795,0.789,-0.232,-0.343
2020.0,-9.287,2.9,2.795,0.736,-0.215,-0.348
2024.0,-9.287,2.9,2.795,0.736,-0.215,-0.348
2028.0,-9.389,2.815,2.736,0.673,-0.202,-0.329
2032.0,-9.389,2.815,2.736,0.673,-0.202,-0.329
2036.0,-9.389,2.815,2.736,0.673,-0.202,-0.329
2040.0,-9.726,2.712,2.662,0.599,-0.185,-0.296
2044.0,-9.726,2.712,2.662,0.599,-0.185,-0.296
2048.0,-9.766,2.513,2.579,0.509,-0.184,-0.255
2052.0,-9.766,2.513,2.579,0.509,-0.184,-0.255
2055.0,-9.766,2.513,2.579,0.509,-0.184,-0.255
2059.0,-9.67,2.338,2.465,0.399,-0.191,-0.224
2063.0,-9.67,2.338,2.465,0.399,-0.191,-0.224
2067.0,-9.478,2.131,2.456,0.277,-0.176,-0.221
2071.0,-9.478,2.131,2.456,0.277,-0.176,-0.221
2075.0,-9.478,2.131,2.456,0.277,-0.176,-0.221
2079.0,-9.227,1.989,2.596,0.155,-0.149,-0.238
2083.0,-9.227,1.989,2.596,0.155,-0.149,-0.238
2087.0,-8.961,1.787,2.764,0.041,-0.121,-0.259
2091.0,-8.961,1.787,2.764,0.041,-0.121,-0.259
2094.0,-8.961,1.787,2.764,0.041,-0.121,-0.259
2098.0,-8.707,1.552,2.84,-0.063,-0.101,-0.275
2102.0,-8.707,1.552,2.84,-0.063,-0.101,-0.275
2106.0,-8.603,1.372,2.86,-0.153,-0.072,-0.289
2110.0,-8.603,1.372,2.86,-0.153,-0.072,-0.289
2114.0,-8.603,1.372,2.86,-0.153,-0.072,-0.289
2118.0,-8.651,1.133,2.856,-0.23,-0.025,-0.292
2122.0,-8.651,1.133,2.856,-0.23,-0.025,-0.292
2126.0,-8.828,0.96,3.019,-0.289,0.035,-0.284
2130.0,-8.828,0.96,3.019,-0.289,0.035,-0.284
2134.0,-8.828,0.96,3.019,-0.289,0.035,-0.284
2138.0,-8.933,0.717,3.255,-0.327,0.073,-0.253
2142.0,-8.933,0.717,3.255,-0.327,0.073,-0.253
2146.0,-8.951,0.437,3.274,-0.34,0.071,-0.209
2150.0,-8.951,0.437,3.274,-0.34,0.071,-0.209
2154.0,-8.951,0.437,3.274,-0.34,0.071,-0.209
2158.0,-9.117,0.199,3.101,-0.334,0.061,-0.174
2161.0,-9.117,0.199,3.101,-0.334,0.061,-0.174
2165.0,-9.466,0.048,3.038,-0.32,0.062,-0.154
2169.0,-9.466,0.048,3.038,-0.32,0.062,-0.154
2173.0,-9.466,0.048,3.038,-0.32,0.062,-0.154
2177.0,-9.689,-0.032,3.151,-0.303,0.05,-0.139
2181.0,-9.689,-0.032,3.151,-0.303,0.05,-0.139
2185.0,-9.595,-0.172,2.986,-0.287,-0.01,-0.124
2189.0,-9.595,-0.172,2.986,-0.287,-0.01,-0.124
2193.0,-9.595,-0.172,2.986,-0.287,-0.01,-0.124
2197.0,-9.706,-0.337,2.91,-0.272,-0.075,-0.139
2201.0,-9.706,-0.337,2.91,-0.272,-0.075,-0.139
2205.0,-9.755,-0.204,2.797,-0.23,-0.12,-0.19
2210.0,-9.755,-0.204,2.797,-0.23,-0.12,-0.19
2214.0,-9.755,-0.204,2.788,-0.23,-0.12,-0.19
2218.0,-9.537,-0.112,2.788,-0.205,-0.184,-0.261
2222.0,-9.537,-0.112,2.788,-0.205,-0.184,-0.261
2226.0,-9.315,-0.081,2.42,-0.185,-0.258,-0.332
2230.0,-9.315,-0.081,2.42,-0.185,-0.258,-0.332
2234.0,-9.676,0.075,2.12,-0.185,-0.258,-0.432
2238.0,-9.676,0.075,2.12,-0.169,-0.28,-0.432
2242.0,-9.676,0.075,2.12,-0.169,-0.28,-0.432
2246.0,-10.29,0.269,2.18,-0.151,-0.272,-0.524
2250.0,-10.29,0.269,2.18,-0.151,-0.272,-0.524
2254.0,-10.633,0.374,2.268,-0.13,-0.286,-0.58
2258.0,-10.633,0.374,2.268,-0.13,-0.286,-0.58
2262.0,-10.633,0.374,2.268,-0.13,-0.286,-0.58
2266.0,-10.98,0.403,2.123,-0.108,-0.321,-0.618
2271.0,-10.98,0.403,2.123,-0.108,-0.321,-0.618
2275.0,-11.487,0.476,2.034,-0.089,-0.33,-0.663
2279.0,-11.487,0.476,2.034,-0.089,-0.33,-0.663
2283.0,-11.487,0.476,2.101,-0.089,-0.33,-0.663
2287.0,-11.827,0.587,2.101,-0.08,-0.325,-0.708
2291.0,-11.827,0.587,2.101,-0.08,-0.325,-0.708
2295.0,-11.751,0.659,2.233,-0.084,-0.335,-0.737
2299.0,-11.751,0.659,2.233,-0.084,-0.335,-0.737
2303.0,-11.422,0.687,2.237,-0.084,-0.335,-0.759
2307.0,-11.422,0.687,2.237,-0.094,-0.356,-0.759
2311.0,-11.422,0.687,2.237,-0.094,-0.356,-0.759
2315.0,-11.227,0.738,2.154,-0.108,-0.359,-0.79
2319.0,-11.227,0.738,2.154,-0.108,-0.359,-0.79
2324.0,-11.259,0.803,2.03,-0.128,-0.328,-0.826
2328.0,-11.259,0.803,2.03,-0.128,-0.328,-0.826
2332.0,-11.259,0.803,2.03,-0.128,-0.328,-0.826
2336.0,-11.381,0.954,2.102,-0.154,-0.271,-0.852
2340.0,-11.381,0.954,2.102,-0.154,-0.271,-0.852
2344.0,-11.126,1.042,2.331,-0.178,-0.222,-0.851
2348.0,-11.126,1.042,2.331,-0.178,-0.222,-0.851
2352.0,-11.126,1.05,2.466,-0.178,-0.222,-0.851
2356.0,-10.628,1.05,2.466,-0.192,-0.206,-0.834
2360.0,-10.628,1.05,2.466,-0.192,-0.206,-0.834
2364.0,-10.365,1.104,2.454,-0.192,-0.193,-0.829
2368.0,-10.365,1.104,2.454,-0.192,-0.193,-0.829
2373.0,-10.16,1.219,2.529,-0.178,-0.17,-0.832
2377.0,-10.16,1.219,2.529,-0.178,-0.17,-0.832
2381.0,-10.16,1.219,2.529,-0.178,-0.17,-0.832
2385.0,-9.642,1.344,2.76,-0.148,-0.166,-0.809
2389.0,-9.642,1.344,2.76,-0.148,-0.166,-0.809
2393.0,-9.063,1.274,2.667,-0.105,-0.195,-0.754
2397.0,-9.063,1.274,2.667,-0.105,-0.195,-0.754
2401.0,-9.063,1.274,2.667,-0.105,-0.195,-0.754
2405.0,-9.045,1.216,2.272,-0.054,-0.195,-0.707
2409.0,-9.045,1.216,2.272,-0.054,-0.195,-0.707
2413.0,-9.519,1.271,2.112,-0.005,-0.13,-0.668
2417.0,-9.519,1.271,2.112,-0.005,-0.13,-0.668
2421.0,-9.519,1.271,2.112,-0.005,-0.13,-0.668
2425.0,-9.889,1.251,2.235,0.029,-0.059,-0.599
2429.0,-9.889,1.251,2.235,0.029,-0.059,-0.599
2432.0,-10.198,1.086,2.286,0.048,-0.015,-0.499
2436.0,-10.198,1.086,2.286,0.048,-0.015,-0.499
2440.0,-10.198,1.086,2.286,0.048,-0.015,-0.499
2444.0,-10.7,0.891,2.336,0.056,0.028,-0.401
2448.0,-10.7,0.891,2.336,0.056,0.028,-0.401
2452.0,-11.264,0.776,2.529,0.059,0.072,-0.311
2456.0,-11.264,0.776,2.529,0.059,0.072,-0.311
2460.0,-11.264,0.776,2.529,0.059,0.072,-0.311
2464.0,-11.621,0.683,2.713,0.052,0.087,-0.217
2468.0,-11.621,0.683,2.713,0.052,0.087,-0.217
2472.0,-11.734,0.622,2.834,0.038,0.07,-0.129
2476.0,-11.734,0.622,2.834,0.038,0.07,-0.129
2480.0,-11.734,0.622,2.834,0.038,0.07,-0.129
2484.0,-11.652,0.572,2.759,0.022,0.041,-0.059
2487.0,-11.652,0.572,2.759,0.022,0.041,-0.059
2491.0,-11.587,0.544,2.59,0.007,0.027,-0.016
2495.0,-11.587,0.544,2.59,0.007,0.027,-0.016
2499.0,-11.587,0.544,2.59,0.007,0.027,-0.016
2503.0,-11.496,0.592,2.562,-0.012,0.037,0.004
2507.0,-11.496,0.592,2.562,-0.012,0.037,0.004
2511.0,-11.123,0.584,2.644,-0.032,0.041,0.022
2515.0,-11.123,0.584,2.644,-0.032,0.041,0.022
2519.0,-11.123,0.584,2.644,-0.032,0.041,0.022
2523.0,-10.692,0.559,2.688,-0.047,0.031,0.04
2526.0,-10.692,0.559,2.688,-0.047,0.031,0.04
2530.0,-10.403,0.554,2.661,-0.047,0.022,0.049
2534.0,-10.403,0.554,2.661,-0.053,0.022,0.049
2538.0,-10.403,0.554,2.661,-0.053,0.022,0.049
2542.0,-10.198,0.49,2.587,-0.05,0.021,0.05
2546.0,-10.198,0.49,2.587,-0.05,0.021,0.05
2550.0,-10.025,0.412,2.543,-0.05,0.021,0.048
2554.0,-10.025,0.412,2.543,-0.043,0.026,0.048
2558.0,-10.025,0.412,2.543,-0.043,0.026,0.048
2562.0,-9.806,0.284,2.538,-0.028,0.027,0.048
2565.0,-9.806,0.284,2.538,-0.028,0.027,0.048
2569.0,-9.56,0.142,2.514,-0.028,0.027,0.048
2573.0,-9.56,0.142,2.514,-0.009,0.023,0.051
2577.0,-9.56,0.142,2.514,-0.009,0.023,0.051
2581.0,-9.445,0.05,2.535,0.016,0.021,0.049
2584.0,-9.445,0.05,2.535,0.016,0.021,0.049
2588.0,-9.445,0.05,2.535,0.016,0.021,0.049
2592.0,-9.388,-0.065,2.517,0.042,0.019,0.046
2596.0,-9.388,-0.065,2.517,0.042,0.019,0.046
2600.0,-9.374,-0.15,2.505,0.065,0.014,0.046
2603.0,-9.374,-0.15,2.505,0.065,0.014,0.046
2607.0,-9.374,-0.15,2.505,0.065,0.014,0.046
2611.0,-9.368,-0.24,2.529,0.09,0.011,0.051
2615.0,-9.368,-0.24,2.529,0.09,0.011,0.051
2619.0,-9.253,-0.322,2.581,0.09,0.011,0.051
2623.0,-9.253,-0.322,2.581,0.118,-0.0,0.065
2626.0,-9.253,-0.322,2.581,0.118,-0.0,0.065
2630.0,-9.135,-0.436,2.575,0.15,-0.018,0.085
2634.0,-9.135,-0.436,2.575,0.15,-0.018,0.085
2638.0,-9.135,-0.436,2.49,0.15,-0.018,0.085
2642.0,-9.109,-0.505,2.49,0.186,-0.034,0.106
2646.0,-9.109,-0.505,2.49,0.186,-0.034,0.106
2650.0,-9.269,-0.562,2.382,0.221,-0.038,0.129
2654.0,-9.269,-0.562,2.382,0.221,-0.038,0.129
2658.0,-9.269,-0.562,2.382,0.221,-0.038,0.129
2662.0,-9.499,-0.603,2.342,0.25,-0.034,0.157
2665.0,-9.499,-0.603,2.342,0.25,-0.034,0.157
2669.0,-9.714,-0.663,2.329,0.275,-0.031,0.191
2673.0,-9.714,-0.663,2.329,0.275,-0.031,0.191
2677.0,-9.714,-0.663,2.329,0.275,-0.031,0.191
2681.0,-9.882,-0.713,2.338,0.298,-0.034,0.227
2685.0,-9.882,-0.713,2.338,0.298,-0.034,0.227
2689.0,-10.055,-0.781,2.318,0.318,-0.041,0.259
2693.0,-10.055,-0.781,2.318,0.318,-0.041,0.259
2697.0,-10.055,-0.781,2.318,0.318,-0.041,0.259
2701.0,-10.214,-0.818,2.339,0.336,-0.048,0.283
2705.0,-10.214,-0.818,2.339,0.336,-0.048,0.283
2709.0,-10.295,-0.843,2.434,0.355,-0.062,0.293
2713.0,-10.295,-0.843,2.434,0.355,-0.062,0.293
2717.0,-10.295,-0.843,2.434,0.355,-0.062,0.293
2721.0,-10.231,-0.808,2.481,0.381,-0.094,0.287
2725.0,-10.231,-0.808,2.481,0.381,-0.094,0.287
2729.0,-10.065,-0.753,2.436,0.411,-0.139,0.263
2733.0,-10.065,-0.753,2.436,0.411,-0.139,0.263
2737.0,-10.065,-0.753,2.35,0.411,-0.139,0.263
2741.0,-9.862,-0.672,2.35,0.443,-0.186,0.221
2745.0,-9.862,-0.672,2.35,0.443,-0.186,0.221
2749.0,-9.564,-0.574,2.286,0.475,-0.227,0.169
2753.0,-9.564,-0.574,2.286,0.475,-0.227,0.169
2756.0,-9.564,-0.574,2.286,0.475,-0.227,0.169
2760.0,-9.211,-0.492,2.216,0.509,-0.267,0.113
2764.0,-9.211,-0.492,2.216,0.509,-0.267,0.113
2768.0,-8.895,-0.414,2.156,0.546,-0.305,0.061
2772.0,-8.895,-0.414,2.156,0.546,-0.305,0.061
2776.0,-8.895,-0.414,2.156,0.546,-0.305,0.061
2780.0,-8.612,-0.343,2.04,0.585,-0.34,0.015
2784.0,-8.612,-0.343,2.04,0.585,-0.34,0.015
2788.0,-8.54,-0.261,1.857,0.616,-0.362,-0.023
2792.0,-8.54,-0.261,1.857,0.616,-0.362,-0.023
2796.0,-8.54,-0.261,1.857,0.616,-0.362,-0.023
2800.0,-8.798,-0.162,1.76,0.632,-0.358,-0.048
2804.0,-8.798,-0.162,1.76,0.632,-0.358,-0.048
2808.0,-9.288,-0.103,1.814,0.632,-0.334,-0.049
2812.0,-9.288,-0.103,1.814,0.632,-0.334,-0.049
2816.0,-9.288,-0.103,1.814,0.632,-0.334,-0.049
2820.0,-9.669,-0.072,2.048,0.621,-0.313,-0.024
2824.0,-9.669,-0.072,2.048,0.621,-0.313,-0.024
2828.0,-9.733,-0.07,2.298,0.607,-0.326,0.018
2832.0,-9.733,-0.07,2.298,0.607,-0.326,0.018
2835.0,-9.733,-0.07,2.298,0.607,-0.326,0.018
2839.0,-9.596,-0.069,2.41,0.593,-0.374,0.051
2843.0,-9.596,-0.069,2.41,0.593,-0.374,0.051
2847.0,-9.438,-0.055,2.305,0.579,-0.434,0.056
2851.0,-9.438,-0.055,2.305,0.579,-0.434,0.056
2855.0,-9.438,-0.055,2.305,0.579,-0.434,0.056
2859.0,-9.4,0.044,2.073,0.557,-0.479,0.039
2863.0,-9.4,0.044,2.073,0.557,-0.479,0.039
2867.0,-9.508,0.175,1.855,0.526,-0.497,0.01
2870.0,-9.508,0.175,1.855,0.526,-0.497,0.01
2874.0,-9.508,0.175,1.855,0.526,-0.497,0.01
2878.0,-9.744,0.326,1.72,0.489,-0.489,-0.012
2882.0,-9.744,0.326,1.72,0.489,-0.489,-0.012
2886.0,-10.073,0.455,1.667,0.453,-0.473,-0.022
2890.0,-10.073,0.455,1.667,0.453,-0.473,-0.022
2894.0,-10.073,0.455,1.667,0.453,-0.473,-0.022
2898.0,-10.341,0.533,1.693,0.421,-0.462,-0.023
2902.0,-10.341,0.533,1.693,0.421,-0.462,-0.023
2906.0,-10.477,0.589,1.767,0.392,-0.466,-0.02
2910.0,-10.477,0.589,1.767,0.392,-0.466,-0.02
2914.0,-10.477,0.589,1.767,0.392,-0.466,-0.02
2918.0,-10.42,0.597,1.835,0.367,-0.484,-0.021
2922.0,-10.42,0.597,1.835,0.367,-0.484,-0.021
2926.0,-10.186,0.59,1.855,0.349,-0.509,-0.029
2930.0,-10.186,0.59,1.855,0.349,-0.509,-0.029
2934.0,-10.186,0.59,1.855,0.349,-0.509,-0.029
2938.0,-9.908,0.623,1.84,0.331,-0.534,-0.045
2942.0,-9.908,0.623,1.84,0.331,-0.534,-0.045
2946.0,-9.712,0.684,1.784,0.314,-0.546,-0.064
2949.0,-9.712,0.684,1.784,0.314,-0.546,-0.064
2953.0,-9.712,0.684,1.784,0.314,-0.546,-0.064
2957.0,-9.63,0.724,1.698,0.293,-0.546,-0.084
2961.0,-9.63,0.724,1.698,0.293,-0.546,-0.084
2965.0,-9.666,0.808,1.637,0.263,-0.536,-0.098
2969.0,-9.666,0.808,1.637,0.263,-0.536,-0.098
2973.0,-9.666,0.808,1.637,0.263,-0.536,-0.098
2977.0,-9.669,0.858,1.603,0.226,-0.525,-0.103
2981.0,-9.669,0.858,1.603,0.226,-0.525,-0.103
2985.0,-9.59,0.875,1.585,0.184,-0.519,-0.096
2988.0,-9.59,0.875,1.585,0.184,-0.519,-0.096
2992.0,-9.59,0.875,1.585,0.184,-0.519,-0.096
2996.0,-9.405,0.846,1.552,0.14,-0.513,-0.082
3000.0,-9.405,0.846,1.552,0.14,-0.513,-0.082
