deltaTime,Acc_X,Acc_Y,Acc_Z,Gyro_X,Gyro_Y,Gyro_Z
0.0,-3.278,-6.38,2.451,1.029,0.721,-0.611
3.0,-3.278,-6.38,2.451,1.029,0.721,-0.611
6.0,-2.862,-6.33,2.614,1.105,0.821,-0.667
9.0,-2.862,-6.33,2.614,1.105,0.821,-0.667
12.0,-2.862,-6.33,2.614,1.105,0.821,-0.667
15.0,-2.405,-6.269,2.752,1.167,0.911,-0.755
18.0,-2.405,-6.269,2.752,1.167,0.911,-0.755
21.0,-2.405,-6.269,2.752,1.167,0.911,-0.755
24.0,-2.182,-5.912,2.821,1.167,0.911,-0.859
27.0,-2.182,-5.912,2.821,1.203,0.988,-0.859
30.0,-2.182,-5.912,2.821,1.203,0.988,-0.859
33.0,-2.182,-5.912,2.821,1.203,0.988,-0.859
36.0,-2.268,-5.329,2.91,1.189,1.04,-0.95
40.0,-2.268,-5.329,2.91,1.189,1.04,-0.95
43.0,-2.461,-4.839,2.943,1.189,1.04,-0.95
47.0,-2.461,-4.839,2.943,1.12,1.068,-1.001
51.0,-2.461,-4.839,2.943,1.12,1.068,-1.001
55.0,-2.582,-4.692,2.881,1.032,1.078,-1.009
58.0,-2.582,-4.692,2.881,1.032,1.078,-1.009
62.0,-2.582,-4.692,2.881,1.032,1.078,-1.009
66.0,-2.383,-4.662,2.701,0.972,1.077,-0.988
70.0,-2.383,-4.662,2.701,0.972,1.077,-0.988
73.0,-2.056,-4.588,2.493,0.972,1.077,-0.969
77.0,-2.056,-4.588,2.493,0.95,1.075,-0.969
81.0,-2.056,-4.588,2.493,0.95,1.075,-0.969
85.0,-1.594,-4.551,2.375,0.959,1.076,-0.969
88.0,-1.594,-4.551,2.375,0.959,1.076,-0.969
92.0,-1.594,-4.551,2.375,0.959,1.076,-0.969
96.0,-1.371,-4.626,2.369,0.987,1.09,-0.992
99.0,-1.371,-4.626,2.369,0.987,1.09,-0.992
103.0,-1.423,-4.695,2.416,0.987,1.107,-1.034
107.0,-1.423,-4.695,2.416,1.022,1.107,-1.034
111.0,-1.423,-4.695,2.416,1.022,1.107,-1.034
115.0,-1.475,-4.255,2.597,1.032,1.123,-1.099
118.0,-1.475,-4.255,2.597,1.032,1.123,-1.099
122.0,-1.475,-4.232,2.948,1.032,1.123,-1.099
126.0,-1.65,-4.232,2.948,0.946,1.12,-1.205
130.0,-1.65,-4.232,2.948,0.946,1.12,-1.205
134.0,-1.451,-5.104,3.453,0.85,1.095,-1.27
138.0,-1.451,-5.104,3.453,0.85,1.095,-1.27
141.0,-1.451,-5.104,3.453,0.85,1.095,-1.27
145.0,-1.302,-6.379,3.812,0.874,1.066,-1.286
149.0,-1.302,-6.379,3.812,0.874,1.066,-1.286
153.0,-1.211,-7.251,4.047,1.041,1.033,-1.308
157.0,-1.211,-7.251,4.047,1.041,1.033,-1.308
160.0,-1.211,-7.251,4.047,1.041,1.033,-1.308
164.0,-1.301,-7.421,4.239,1.272,0.989,-1.372
168.0,-1.301,-7.421,4.239,1.272,0.989,-1.372
172.0,-1.181,-7.23,4.32,1.272,0.989,-1.372
176.0,-1.181,-7.23,4.32,1.464,0.927,-1.479
180.0,-1.181,-7.23,4.32,1.464,0.927,-1.479
183.0,-0.936,-7.117,4.496,1.566,0.871,-1.619
187.0,-0.936,-7.117,4.496,1.566,0.871,-1.619
191.0,-0.936,-7.117,4.496,1.566,0.871,-1.619
195.0,-0.589,-7.186,4.74,1.592,0.827,-1.781
199.0,-0.589,-7.186,4.74,1.592,0.827,-1.781
202.0,-0.585,-7.252,5.058,1.569,0.787,-1.956
206.0,-0.585,-7.252,5.058,1.569,0.787,-1.956
210.0,-0.585,-7.252,5.058,1.569,0.787,-1.956
214.0,-1.425,-7.199,5.644,1.525,0.74,-2.124
218.0,-1.425,-7.199,5.644,1.525,0.74,-2.124
222.0,-2.401,-7.683,6.708,1.525,0.679,-2.256
225.0,-2.401,-7.683,6.708,1.496,0.679,-2.256
229.0,-2.401,-7.683,6.708,1.496,0.679,-2.256
233.0,-3.307,-8.138,7.932,1.551,0.607,-2.329
237.0,-3.307,-8.138,7.932,1.551,0.607,-2.329
241.0,-3.307,-8.077,8.785,1.551,0.607,-2.329
245.0,-4.22,-8.077,8.785,1.706,0.483,-2.363
248.0,-4.22,-8.077,8.785,1.706,0.483,-2.363
252.0,-4.582,-7.018,9.153,1.792,0.263,-2.422
256.0,-4.582,-7.018,9.153,1.792,0.263,-2.422
260.0,-4.582,-7.018,9.153,1.792,0.263,-2.422
264.0,-4.543,-5.552,8.88,1.6,0.049,-2.508
267.0,-4.543,-5.552,8.88,1.6,0.049,-2.508
271.0,-4.914,-5.76,8.663,1.137,-0.109,-2.548
275.0,-4.914,-5.76,8.663,1.137,-0.109,-2.548
279.0,-4.914,-5.76,8.663,1.137,-0.109,-2.548
283.0,-5.328,-6.439,8.687,0.642,-0.164,-2.444
287.0,-5.328,-6.439,8.687,0.642,-0.164,-2.444
291.0,-5.81,-7.257,8.881,0.642,-0.13,-2.249
295.0,-5.81,-7.257,8.881,0.199,-0.13,-2.249
299.0,-5.81,-7.257,8.881,0.199,-0.13,-2.249
302.0,-6.412,-8.145,9.081,-0.18,-0.061,-2.009
306.0,-6.412,-8.145,9.081,-0.18,-0.061,-2.009
310.0,-7.172,-8.922,9.21,-0.18,0.021,-1.746
314.0,-7.172,-8.922,9.21,-0.496,0.021,-1.746
318.0,-7.172,-8.922,9.21,-0.496,0.021,-1.746
322.0,-8.375,-9.555,9.314,-0.76,0.127,-1.454
326.0,-8.375,-9.555,9.314,-0.76,0.127,-1.454
330.0,-10.566,-10.09,9.484,-0.76,0.127,-1.133
334.0,-10.566,-10.09,9.484,-0.983,0.253,-1.133
338.0,-10.566,-10.09,9.484,-0.983,0.253,-1.133
342.0,-13.347,-10.377,9.39,-1.165,0.37,-0.818
346.0,-13.347,-10.377,9.39,-1.165,0.37,-0.818
350.0,-16.089,-10.234,9.051,-1.327,0.437,-0.534
354.0,-16.089,-10.234,9.051,-1.327,0.437,-0.534
359.0,-16.089,-10.234,9.051,-1.327,0.437,-0.534
363.0,-18.132,-9.718,8.448,-1.5,0.415,-0.286
367.0,-18.132,-9.718,8.448,-1.5,0.415,-0.286
371.0,-18.696,-9.085,7.564,-1.7,0.308,-0.068
375.0,-18.696,-9.085,7.564,-1.7,0.308,-0.068
379.0,-18.696,-9.085,7.564,-1.7,0.308,-0.068
383.0,-17.439,-8.621,6.61,-1.908,0.161,0.12
387.0,-17.439,-8.621,6.61,-1.908,0.161,0.12
390.0,-15.051,-8.399,5.817,-2.079,0.034,0.261
394.0,-15.051,-8.399,5.817,-2.079,0.034,0.261
398.0,-15.051,-8.399,5.817,-2.079,0.034,0.261
402.0,-12.729,-7.93,5.183,-2.154,-0.032,0.347
406.0,-12.729,-7.93,5.183,-2.154,-0.032,0.347
410.0,-10.887,-7.263,4.737,-2.108,-0.048,0.405
414.0,-10.887,-7.263,4.737,-2.108,-0.048,0.405
418.0,-10.887,-7.263,4.737,-2.108,-0.048,0.405
422.0,-9.418,-6.558,4.4,-1.946,-0.059,0.457
426.0,-9.418,-6.558,4.4,-1.946,-0.059,0.457
430.0,-8.273,-5.895,4.035,-1.7,-0.082,0.511
434.0,-8.273,-5.895,4.035,-1.7,-0.082,0.511
438.0,-8.273,-5.895,4.035,-1.7,-0.082,0.511
442.0,-7.452,-5.319,3.656,-1.406,-0.102,0.578
446.0,-7.452,-5.319,3.656,-1.406,-0.102,0.578
449.0,-6.946,-4.882,3.236,-1.1,-0.104,0.676
453.0,-6.946,-4.882,3.236,-1.1,-0.104,0.676
457.0,-6.946,-4.882,3.236,-1.1,-0.104,0.676
461.0,-6.704,-4.603,2.821,-0.816,-0.083,0.809
465.0,-6.704,-4.603,2.821,-0.816,-0.083,0.809
469.0,-6.709,-4.473,2.424,-0.575,-0.047,0.962
473.0,-6.709,-4.473,2.424,-0.575,-0.047,0.962
477.0,-6.709,-4.473,2.424,-0.575,-0.047,0.962
481.0,-7.076,-4.341,2.09,-0.388,0.005,1.126
485.0,-7.076,-4.341,2.09,-0.388,0.005,1.126
488.0,-7.742,-4.167,1.809,-0.258,0.069,1.308
492.0,-7.742,-4.167,1.809,-0.258,0.069,1.308
496.0,-7.742,-4.167,1.809,-0.258,0.069,1.308
500.0,-8.483,-4.012,1.573,-0.183,0.138,1.522
504.0,-8.483,-4.012,1.573,-0.183,0.138,1.522
507.0,-9.317,-3.919,1.453,-0.183,0.138,1.522
511.0,-9.317,-3.919,1.453,-0.16,0.217,1.779
515.0,-9.317,-3.919,1.453,-0.16,0.217,1.779
519.0,-10.195,-3.895,1.485,-0.182,0.297,2.068
523.0,-10.195,-3.895,1.485,-0.182,0.297,2.068
527.0,-10.195,-3.895,1.485,-0.182,0.297,2.068
531.0,-11.099,-4.012,1.645,-0.243,0.352,2.363
535.0,-11.099,-4.012,1.645,-0.243,0.352,2.363
538.0,-11.858,-4.096,1.754,-0.333,0.363,2.63
542.0,-11.858,-4.096,1.754,-0.333,0.363,2.63
546.0,-11.858,-4.096,1.754,-0.333,0.363,2.63
550.0,-12.282,-3.951,1.782,-0.438,0.338,2.849
554.0,-12.282,-3.951,1.782,-0.438,0.338,2.849
558.0,-12.344,-3.659,1.772,-0.549,0.296,3.015
562.0,-12.344,-3.659,1.772,-0.549,0.296,3.015
566.0,-12.344,-3.659,1.772,-0.549,0.296,3.015
570.0,-12.224,-3.31,1.668,-0.653,0.249,3.134
574.0,-12.224,-3.31,1.668,-0.653,0.249,3.134
577.0,-12.006,-2.95,1.445,-0.74,0.212,3.218
581.0,-12.006,-2.95,1.445,-0.74,0.212,3.218
585.0,-12.006,-2.95,1.445,-0.74,0.212,3.218
589.0,-11.621,-2.573,1.187,-0.806,0.195,3.272
593.0,-11.621,-2.573,1.187,-0.806,0.195,3.272
597.0,-11.199,-2.273,0.968,-0.858,0.194,3.299
601.0,-11.199,-2.273,0.968,-0.858,0.194,3.299
605.0,-11.199,-2.273,0.968,-0.858,0.194,3.299
609.0,-10.868,-2.037,0.821,-0.902,0.212,3.294
613.0,-10.868,-2.037,0.821,-0.902,0.212,3.294
617.0,-10.561,-1.895,0.778,-0.902,0.241,3.257
620.0,-10.561,-1.895,0.778,-0.948,0.241,3.257
624.0,-10.561,-1.895,0.778,-0.948,0.241,3.257
628.0,-10.161,-1.775,0.773,-1.0,0.273,3.195
632.0,-10.161,-1.775,0.773,-1.0,0.273,3.195
636.0,-9.647,-1.717,0.836,-1.0,0.273,3.119
640.0,-9.647,-1.717,0.836,-1.057,0.308,3.119
644.0,-9.647,-1.717,0.836,-1.057,0.308,3.119
648.0,-9.117,-1.674,0.911,-1.119,0.339,3.042
651.0,-9.117,-1.674,0.911,-1.119,0.339,3.042
655.0,-9.117,-1.674,1.013,-1.119,0.339,3.042
659.0,-8.576,-1.659,1.013,-1.18,0.362,2.977
663.0,-8.576,-1.659,1.013,-1.18,0.362,2.977
667.0,-8.075,-1.722,1.177,-1.237,0.372,2.923
670.0,-8.075,-1.722,1.177,-1.237,0.372,2.923
674.0,-8.075,-1.722,1.177,-1.237,0.372,2.923
678.0,-7.653,-1.743,1.358,-1.29,0.359,2.878
682.0,-7.653,-1.743,1.358,-1.29,0.359,2.878
686.0,-7.35,-2.485,1.816,-1.315,0.316,2.832
690.0,-7.35,-2.485,1.816,-1.315,0.316,2.832
693.0,-7.35,-2.485,1.816,-1.315,0.316,2.832
697.0,-7.077,-1.691,1.755,-1.287,0.24,2.802
701.0,-7.077,-1.691,1.755,-1.287,0.24,2.802
705.0,-6.675,-1.5,1.748,-1.287,0.24,2.802
709.0,-6.675,-1.5,1.748,-1.321,0.126,2.801
712.0,-6.675,-1.5,1.748,-1.321,0.126,2.801
716.0,-6.453,-1.361,1.352,-1.384,0.005,2.819
720.0,-6.453,-1.361,1.352,-1.384,0.005,2.819
724.0,-6.453,-1.361,1.352,-1.384,0.005,2.819
728.0,-6.012,-1.275,0.954,-1.467,-0.088,2.865
732.0,-6.012,-1.275,0.954,-1.467,-0.088,2.865
736.0,-5.646,-1.378,0.744,-1.571,-0.17,2.917
739.0,-5.646,-1.378,0.744,-1.571,-0.17,2.917
743.0,-5.646,-1.378,0.744,-1.571,-0.17,2.917
747.0,-5.347,-1.391,0.469,-1.679,-0.242,2.961
751.0,-5.347,-1.391,0.469,-1.679,-0.242,2.961
755.0,-5.104,-1.411,0.333,-1.8,-0.293,3.0
759.0,-5.104,-1.411,0.333,-1.8,-0.293,3.0
763.0,-5.104,-1.411,0.333,-1.8,-0.293,3.0
767.0,-4.841,-1.472,0.319,-1.933,-0.337,3.022
771.0,-4.841,-1.472,0.319,-1.933,-0.337,3.022
775.0,-4.698,-1.508,0.41,-2.066,-0.381,3.026
779.0,-4.698,-1.508,0.41,-2.066,-0.381,3.026
782.0,-4.698,-1.508,0.41,-2.066,-0.381,3.026
786.0,-4.633,-1.573,0.571,-2.188,-0.431,3.016
790.0,-4.633,-1.573,0.571,-2.188,-0.431,3.016
794.0,-4.451,-1.844,0.667,-2.188,-0.489,2.98
798.0,-4.451,-1.844,0.667,-2.286,-0.489,2.98
802.0,-4.451,-1.844,0.667,-2.286,-0.489,2.98
806.0,-4.178,-2.21,0.675,-2.349,-0.532,2.903
810.0,-4.178,-2.21,0.675,-2.349,-0.532,2.903
814.0,-4.0,-2.501,0.543,-2.349,-0.532,2.779
818.0,-4.0,-2.501,0.543,-2.378,-0.54,2.779
821.0,-4.0,-2.501,0.543,-2.378,-0.54,2.779
825.0,-3.896,-2.654,0.375,-2.382,-0.501,2.622
829.0,-3.896,-2.654,0.375,-2.382,-0.501,2.622
833.0,-3.893,-2.614,0.29,-2.382,-0.501,2.622
837.0,-3.893,-2.614,0.29,-2.367,-0.43,2.449
841.0,-3.893,-2.614,0.29,-2.367,-0.43,2.449
845.0,-3.967,-2.495,0.279,-2.334,-0.343,2.283
849.0,-3.967,-2.495,0.279,-2.334,-0.343,2.283
853.0,-3.967,-2.374,0.296,-2.334,-0.343,2.283
857.0,-4.256,-2.374,0.296,-2.282,-0.232,2.135
861.0,-4.256,-2.374,0.296,-2.282,-0.232,2.135
864.0,-4.826,-2.238,0.388,-2.207,-0.078,2.016
868.0,-4.826,-2.238,0.388,-2.207,-0.078,2.016
872.0,-4.826,-2.238,0.726,-2.207,-0.078,2.016
876.0,-5.806,-2.21,0.726,-2.109,0.124,1.938
880.0,-5.806,-2.21,0.726,-2.109,0.124,1.938
884.0,-7.223,-2.284,1.301,-1.987,0.354,1.9
888.0,-7.223,-2.284,1.301,-1.987,0.354,1.9
891.0,-7.223,-2.284,1.301,-1.987,0.354,1.9
895.0,-8.879,-2.448,2.0,-1.837,0.571,1.905
899.0,-8.879,-2.448,2.0,-1.837,0.571,1.905
903.0,-10.417,-2.72,2.745,-1.653,0.75,1.95
907.0,-10.417,-2.72,2.745,-1.653,0.75,1.95
911.0,-10.417,-2.72,2.745,-1.653,0.75,1.95
915.0,-11.627,-2.868,3.61,-1.447,0.887,2.022
919.0,-11.627,-2.868,3.61,-1.447,0.887,2.022
922.0,-12.199,-2.961,4.621,-1.447,0.984,2.113
926.0,-12.199,-2.961,4.621,-1.215,0.984,2.113
930.0,-12.199,-2.961,4.621,-1.215,0.984,2.113
934.0,-12.357,-2.952,5.527,-0.961,1.053,2.204
938.0,-12.357,-2.952,5.527,-0.961,1.053,2.204
942.0,-12.724,-2.841,6.285,-0.961,1.053,2.276
946.0,-12.724,-2.841,6.285,-0.695,1.125,2.276
950.0,-12.724,-2.841,6.285,-0.695,1.125,2.276
954.0,-13.507,-2.672,6.943,-0.423,1.222,2.326
958.0,-13.507,-2.672,6.943,-0.423,1.222,2.326
962.0,-14.599,-2.56,7.484,-0.423,1.222,2.326
965.0,-14.599,-2.56,7.484,-0.145,1.333,2.371
969.0,-14.599,-2.56,7.484,-0.145,1.333,2.371
973.0,-15.72,-2.343,7.889,0.132,1.442,2.408
977.0,-15.72,-2.343,7.889,0.132,1.442,2.408
981.0,-15.72,-2.343,8.395,0.132,1.442,2.408
985.0,-16.713,-2.036,8.395,0.394,1.53,2.429
989.0,-16.713,-2.036,8.395,0.394,1.53,2.429
992.0,-17.249,-1.524,8.865,0.629,1.57,2.44
996.0,-17.249,-1.524,8.865,0.629,1.57,2.44
1000.0,-17.249,-1.524,8.865,0.629,1.57,2.44
1004.0,-17.206,-1.086,9.035,0.811,1.558,2.442
1008.0,-17.206,-1.086,9.035,0.811,1.558,2.442
1012.0,-16.586,-0.711,8.937,0.931,1.523,2.421
1016.0,-16.586,-0.711,8.937,0.931,1.523,2.421
1019.0,-16.586,-0.711,8.937,0.931,1.523,2.421
1023.0,-15.848,-0.239,8.512,0.992,1.511,2.377
1027.0,-15.848,-0.239,8.512,0.992,1.511,2.377
1031.0,-15.438,0.05,7.968,0.984,1.551,2.298
1035.0,-15.438,0.05,7.968,0.984,1.551,2.298
1039.0,-15.438,0.05,7.968,0.984,1.551,2.298
1043.0,-15.266,0.303,7.377,0.913,1.644,2.197
1046.0,-15.266,0.303,7.377,0.913,1.644,2.197
1050.0,-15.128,0.503,6.971,0.913,1.644,2.197
1054.0,-15.128,0.503,6.971,0.785,1.76,2.093
1058.0,-15.128,0.503,6.971,0.785,1.76,2.093
1062.0,-14.988,0.68,6.977,0.621,1.849,1.995
1066.0,-14.988,0.68,6.977,0.621,1.849,1.995
1069.0,-14.988,0.68,6.977,0.621,1.849,1.995
1073.0,-14.782,0.67,7.365,0.452,1.857,1.883
1077.0,-14.782,0.67,7.365,0.452,1.857,1.883
1081.0,-14.609,0.505,7.829,0.315,1.747,1.716
1085.0,-14.609,0.505,7.829,0.315,1.747,1.716
1089.0,-14.609,0.505,7.829,0.315,1.747,1.716
1092.0,-14.307,0.1,7.7,0.231,1.514,1.477
1096.0,-14.307,0.1,7.7,0.231,1.514,1.477
1100.0,-13.85,-0.239,6.871,0.231,1.514,1.158
1104.0,-13.85,-0.239,6.871,0.202,1.222,1.158
1108.0,-13.85,-0.239,6.871,0.202,1.222,1.158
1112.0,-13.179,-0.356,5.855,0.213,0.953,0.784
1116.0,-13.179,-0.356,5.855,0.213,0.953,0.784
1119.0,-12.028,-0.322,5.134,0.213,0.953,0.784
1123.0,-12.028,-0.322,5.134,0.246,0.738,0.399
1127.0,-12.028,-0.322,5.134,0.246,0.738,0.399
1131.0,-10.403,-0.274,4.834,0.287,0.563,0.022
1135.0,-10.403,-0.274,4.834,0.287,0.563,0.022
1139.0,-10.403,-0.333,4.659,0.287,0.563,0.022
1143.0,-8.67,-0.333,4.659,0.323,0.401,-0.358
1147.0,-8.67,-0.333,4.659,0.323,0.401,-0.358
1151.0,-7.458,-0.341,4.373,0.339,0.247,-0.755
1155.0,-7.458,-0.341,4.373,0.339,0.247,-0.755
1159.0,-7.458,-0.341,3.957,0.339,0.247,-0.755
1162.0,-7.299,-0.258,3.957,0.317,0.112,-1.149
1166.0,-7.299,-0.258,3.957,0.317,0.112,-1.149
1170.0,-7.802,-0.158,3.561,0.237,0.013,-1.491
1174.0,-7.802,-0.158,3.561,0.237,0.013,-1.491
1178.0,-7.802,-0.158,3.561,0.237,0.013,-1.491
1182.0,-8.408,-0.094,3.556,0.102,-0.054,-1.754
1186.0,-8.408,-0.094,3.556,0.102,-0.054,-1.754
1190.0,-8.812,-0.218,3.832,-0.059,-0.127,-1.93
1194.0,-8.812,-0.218,3.832,-0.059,-0.127,-1.93
1198.0,-8.812,-0.218,4.109,-0.059,-0.127,-1.93
1202.0,-9.026,-0.47,4.109,-0.214,-0.234,-2.039
1206.0,-9.026,-0.47,4.109,-0.214,-0.234,-2.039
1210.0,-9.225,-0.775,4.167,-0.344,-0.378,-2.101
1214.0,-9.225,-0.775,4.167,-0.344,-0.378,-2.101
1219.0,-9.402,-1.114,3.976,-0.344,-0.545,-2.143
1223.0,-9.402,-1.114,3.976,-0.448,-0.545,-2.143
1227.0,-9.402,-1.114,3.976,-0.448,-0.545,-2.143
1231.0,-9.421,-1.422,3.62,-0.52,-0.721,-2.185
1235.0,-9.421,-1.422,3.62,-0.52,-0.721,-2.185
1239.0,-9.235,-1.701,3.208,-0.558,-0.882,-2.24
1243.0,-9.235,-1.701,3.208,-0.558,-0.882,-2.24
1247.0,-9.235,-1.701,3.208,-0.558,-0.882,-2.24
1251.0,-8.993,-1.998,2.842,-0.566,-1.012,-2.307
1255.0,-8.993,-1.998,2.842,-0.566,-1.012,-2.307
1259.0,-8.847,-2.237,2.487,-0.557,-1.104,-2.385
1263.0,-8.847,-2.237,2.487,-0.557,-1.104,-2.385
1267.0,-8.799,-2.52,2.146,-0.557,-1.104,-2.385
1272.0,-8.799,-2.52,2.146,-0.542,-1.155,-2.459
1276.0,-8.799,-2.52,2.146,-0.542,-1.155,-2.459
1280.0,-8.815,-2.774,1.887,-0.529,-1.174,-2.532
1284.0,-8.815,-2.774,1.887,-0.529,-1.174,-2.532
1288.0,-8.891,-2.939,1.746,-0.518,-1.17,-2.609
1292.0,-8.891,-2.939,1.746,-0.518,-1.17,-2.609
1296.0,-8.891,-2.939,1.746,-0.518,-1.17,-2.609
1300.0,-9.14,-3.035,1.772,-0.512,-1.165,-2.692
1304.0,-9.14,-3.035,1.772,-0.512,-1.165,-2.692
1308.0,-9.549,-3.064,1.918,-0.5,-1.174,-2.779
1312.0,-9.549,-3.064,1.918,-0.5,-1.174,-2.779
1316.0,-9.549,-3.064,1.918,-0.5,-1.174,-2.779
1321.0,-9.792,-3.174,2.048,-0.461,-1.205,-2.86
1325.0,-9.792,-3.174,2.048,-0.461,-1.205,-2.86
1329.0,-9.709,-3.381,2.069,-0.373,-1.243,-2.925
1333.0,-9.709,-3.381,2.069,-0.373,-1.243,-2.925
1337.0,-9.405,-3.583,1.966,-0.373,-1.243,-2.962
1341.0,-9.405,-3.583,1.966,-0.235,-1.261,-2.962
1345.0,-9.405,-3.583,1.966,-0.235,-1.261,-2.962
1349.0,-9.017,-3.722,1.768,-0.057,-1.245,-2.966
1353.0,-9.017,-3.722,1.768,-0.057,-1.245,-2.966
1357.0,-8.587,-3.836,1.5,0.139,-1.205,-2.94
1361.0,-8.587,-3.836,1.5,0.139,-1.205,-2.94
1365.0,-8.587,-3.836,1.5,0.139,-1.205,-2.94
1369.0,-8.184,-3.882,1.169,0.34,-1.155,-2.894
1373.0,-8.184,-3.882,1.169,0.34,-1.155,-2.894
1377.0,-7.795,-3.945,0.841,0.536,-1.105,-2.835
1381.0,-7.795,-3.945,0.841,0.536,-1.105,-2.835
1385.0,-7.795,-3.945,0.841,0.536,-1.105,-2.835
1389.0,-7.504,-3.992,0.622,0.726,-1.062,-2.776
1393.0,-7.504,-3.992,0.622,0.726,-1.062,-2.776
1397.0,-7.205,-4.083,0.421,0.915,-1.033,-2.723
1401.0,-7.205,-4.083,0.421,0.915,-1.033,-2.723
1405.0,-7.205,-4.083,0.421,0.915,-1.033,-2.723
1409.0,-6.93,-4.233,0.203,1.109,-1.008,-2.671
1413.0,-6.93,-4.233,0.203,1.109,-1.008,-2.671
1417.0,-6.681,-4.375,-0.021,1.305,-0.981,-2.621
1421.0,-6.681,-4.375,-0.021,1.305,-0.981,-2.621
1425.0,-6.681,-4.485,-0.225,1.305,-0.981,-2.621
1429.0,-6.522,-4.485,-0.225,1.502,-0.954,-2.574
1433.0,-6.522,-4.485,-0.225,1.502,-0.954,-2.574
1438.0,-6.417,-4.561,-0.419,1.696,-0.928,-2.538
1442.0,-6.417,-4.561,-0.419,1.696,-0.928,-2.538
1446.0,-6.341,-4.549,-0.587,1.696,-0.905,-2.518
1450.0,-6.341,-4.549,-0.587,1.884,-0.905,-2.518
1454.0,-6.341,-4.549,-0.587,1.884,-0.905,-2.518
1458.0,-6.313,-4.467,-0.712,2.056,-0.885,-2.508
1462.0,-6.313,-4.467,-0.712,2.056,-0.885,-2.508
1466.0,-6.308,-4.418,-0.77,2.205,-0.864,-2.505
1470.0,-6.308,-4.418,-0.77,2.205,-0.864,-2.505
1474.0,-6.308,-4.418,-0.77,2.205,-0.864,-2.505
1478.0,-6.392,-4.44,-0.779,2.318,-0.843,-2.52
1482.0,-6.392,-4.44,-0.779,2.318,-0.843,-2.52
1487.0,-6.671,-4.512,-0.732,2.385,-0.824,-2.557
1491.0,-6.671,-4.512,-0.732,2.385,-0.824,-2.557
1495.0,-7.161,-4.519,-0.678,2.385,-0.824,-2.557
1499.0,-7.161,-4.519,-0.678,2.396,-0.815,-2.616
1503.0,-7.161,-4.519,-0.678,2.396,-0.815,-2.616
1507.0,-7.847,-4.486,-0.597,2.352,-0.817,-2.679
1511.0,-7.847,-4.486,-0.597,2.352,-0.817,-2.679
1515.0,-8.782,-4.618,-0.348,2.257,-0.817,-2.714
1519.0,-8.782,-4.618,-0.348,2.257,-0.817,-2.714
1523.0,-8.782,-4.618,-0.348,2.257,-0.817,-2.714
1527.0,-10.065,-4.896,-0.069,2.11,-0.807,-2.696
1531.0,-10.065,-4.896,-0.069,2.11,-0.807,-2.696
1536.0,-11.532,-5.328,0.13,1.921,-0.792,-2.609
1540.0,-11.532,-5.328,0.13,1.921,-0.792,-2.609
1544.0,-11.532,-5.87,0.291,1.921,-0.792,-2.609
1548.0,-12.991,-5.87,0.291,1.705,-0.783,-2.476
1552.0,-12.991,-5.87,0.291,1.705,-0.783,-2.476
1556.0,-14.331,-6.435,0.489,1.482,-0.769,-2.326
1560.0,-14.331,-6.435,0.489,1.482,-0.769,-2.326
1564.0,-15.505,-6.847,0.724,1.482,-0.72,-2.183
1568.0,-15.505,-6.847,0.724,1.275,-0.72,-2.183
1572.0,-15.505,-6.847,0.724,1.275,-0.72,-2.183
1576.0,-16.42,-7.088,0.973,1.1,-0.635,-2.047
1581.0,-16.42,-7.088,0.973,1.1,-0.635,-2.047
1585.0,-17.171,-7.005,1.137,0.961,-0.52,-1.898
1589.0,-17.171,-7.005,1.137,0.961,-0.52,-1.898
1593.0,-17.171,-7.005,1.137,0.961,-0.52,-1.898
1597.0,-17.832,-6.858,1.395,0.83,-0.387,-1.735
1601.0,-17.832,-6.858,1.395,0.83,-0.387,-1.735
1605.0,-18.415,-6.884,1.83,0.718,-0.251,-1.536
1609.0,-18.415,-6.884,1.83,0.718,-0.251,-1.536
1613.0,-18.894,-7.082,2.333,0.718,-0.251,-1.536
1617.0,-18.894,-7.082,2.333,0.659,-0.148,-1.292
1621.0,-18.894,-7.082,2.333,0.659,-0.148,-1.292
1625.0,-19.059,-7.195,2.663,0.665,-0.105,-1.021
1629.0,-19.059,-7.195,2.663,0.665,-0.105,-1.021
1634.0,-18.64,-7.175,2.767,0.711,-0.117,-0.756
1638.0,-18.64,-7.175,2.767,0.711,-0.117,-0.756
1642.0,-18.64,-7.175,2.767,0.711,-0.117,-0.756
1646.0,-17.619,-6.956,2.666,0.781,-0.154,-0.516
1650.0,-17.619,-6.956,2.666,0.781,-0.154,-0.516
1654.0,-16.341,-6.534,2.422,0.85,-0.187,-0.308
1658.0,-16.341,-6.534,2.422,0.85,-0.187,-0.308
1662.0,-16.341,-6.534,2.16,0.85,-0.187,-0.308
1666.0,-14.989,-5.94,2.16,0.894,-0.206,-0.139
1670.0,-14.989,-5.94,2.16,0.894,-0.206,-0.139
1674.0,-13.586,-5.265,1.944,0.899,-0.211,-0.003
1678.0,-13.586,-5.265,1.944,0.899,-0.211,-0.003
1683.0,-12.182,-4.59,1.761,0.899,-0.204,0.1
1687.0,-12.182,-4.59,1.761,0.861,-0.204,0.1
1690.0,-12.182,-4.59,1.761,0.861,-0.204,0.1
1694.0,-10.805,-4.004,1.645,0.787,-0.18,0.174
1698.0,-10.805,-4.004,1.645,0.787,-0.18,0.174
1702.0,-9.596,-3.553,1.615,0.686,-0.131,0.207
1706.0,-9.596,-3.553,1.615,0.686,-0.131,0.207
1710.0,-9.596,-3.553,1.615,0.686,-0.131,0.207
1714.0,-8.771,-3.123,1.713,0.569,-0.052,0.198
1718.0,-8.771,-3.123,1.713,0.569,-0.052,0.198
1722.0,-8.42,-2.737,1.918,0.569,0.046,0.161
1726.0,-8.42,-2.737,1.918,0.446,0.046,0.161
1730.0,-8.42,-2.737,1.918,0.446,0.046,0.161
1733.0,-8.526,-2.336,2.182,0.325,0.138,0.11
1737.0,-8.526,-2.336,2.182,0.325,0.138,0.11
1741.0,-8.526,-2.336,2.38,0.325,0.138,0.11
1745.0,-8.846,-2.011,2.38,0.211,0.19,0.072
1749.0,-8.846,-2.011,2.38,0.211,0.19,0.072
1753.0,-8.992,-1.799,2.445,0.107,0.193,0.06
1756.0,-8.992,-1.799,2.445,0.107,0.193,0.06
1760.0,-8.992,-1.799,2.445,0.107,0.193,0.06
1764.0,-8.78,-1.735,2.376,0.017,0.167,0.073
1768.0,-8.78,-1.735,2.376,0.017,0.167,0.073
1772.0,-8.417,-1.71,2.273,-0.049,0.148,0.096
1776.0,-8.417,-1.71,2.273,-0.049,0.148,0.096
1779.0,-8.417,-1.71,2.273,-0.049,0.148,0.096
1783.0,-8.249,-1.625,2.088,-0.097,0.157,0.117
1787.0,-8.249,-1.625,2.088,-0.097,0.157,0.117
1791.0,-8.302,-1.508,1.841,-0.097,0.197,0.139
1795.0,-8.302,-1.508,1.841,-0.127,0.197,0.139
1799.0,-8.302,-1.508,1.841,-0.127,0.197,0.139
1803.0,-8.581,-1.364,1.657,-0.15,0.265,0.177
1807.0,-8.581,-1.364,1.657,-0.15,0.265,0.177
1811.0,-8.874,-1.229,1.587,-0.15,0.265,0.244
1815.0,-8.874,-1.229,1.587,-0.176,0.356,0.244
1819.0,-8.874,-1.229,1.587,-0.176,0.356,0.244
1822.0,-9.002,-1.113,1.728,-0.204,0.456,0.359
1826.0,-9.002,-1.113,1.728,-0.204,0.456,0.359
1830.0,-8.968,-1.07,2.015,-0.204,0.456,0.359
1834.0,-8.968,-1.07,2.015,-0.225,0.553,0.518
1838.0,-8.968,-1.07,2.015,-0.225,0.553,0.518
1842.0,-8.86,-1.04,2.35,-0.233,0.64,0.695
1846.0,-8.86,-1.04,2.35,-0.233,0.64,0.695
1850.0,-8.86,-0.976,2.668,-0.233,0.64,0.695
1854.0,-8.718,-0.976,2.668,-0.226,0.714,0.861
1858.0,-8.718,-0.976,2.668,-0.226,0.714,0.861
1862.0,-8.505,-0.852,2.886,-0.207,0.773,1.0
1865.0,-8.505,-0.852,2.886,-0.207,0.773,1.0
1869.0,-8.505,-0.852,2.979,-0.207,0.773,1.0
1873.0,-8.241,-0.662,2.979,-0.183,0.821,1.107
1877.0,-8.241,-0.662,2.979,-0.183,0.821,1.107
1881.0,-7.951,-0.494,2.971,-0.155,0.861,1.186
1885.0,-7.951,-0.494,2.971,-0.155,0.861,1.186
1889.0,-7.951,-0.494,2.971,-0.155,0.861,1.186
1893.0,-7.67,-0.31,2.879,-0.129,0.898,1.244
1897.0,-7.67,-0.31,2.879,-0.129,0.898,1.244
1901.0,-7.373,-0.166,2.768,-0.105,0.936,1.288
1904.0,-7.373,-0.166,2.768,-0.105,0.936,1.288
1908.0,-7.373,-0.166,2.768,-0.105,0.936,1.288
1912.0,-7.055,-0.048,2.634,-0.082,0.979,1.329
1916.0,-7.055,-0.048,2.634,-0.082,0.979,1.329
1920.0,-6.736,0.027,2.553,-0.06,1.033,1.37
1924.0,-6.736,0.027,2.553,-0.06,1.033,1.37
1928.0,-6.736,0.027,2.553,-0.06,1.033,1.37
1932.0,-6.501,0.088,2.623,-0.036,1.083,1.414
1935.0,-6.501,0.088,2.623,-0.036,1.083,1.414
1939.0,-6.35,0.11,2.685,-0.036,1.111,1.467
1943.0,-6.35,0.11,2.685,-0.009,1.111,1.467
1947.0,-6.35,0.11,2.685,-0.009,1.111,1.467
1951.0,-6.212,0.103,2.687,0.014,1.111,1.523
1954.0,-6.212,0.103,2.687,0.014,1.111,1.523
1958.0,-6.212,0.103,2.632,0.014,1.111,1.523
1962.0,-6.038,0.172,2.632,0.026,1.085,1.579
1966.0,-6.038,0.172,2.632,0.026,1.085,1.579
1969.0,-5.782,0.238,2.538,0.015,1.039,1.628
1973.0,-5.782,0.238,2.538,0.015,1.039,1.628
1977.0,-5.782,0.238,2.538,0.015,1.039,1.628
1981.0,-5.521,0.289,2.405,-0.022,0.981,1.665
1984.0,-5.521,0.289,2.405,-0.022,0.981,1.665
1988.0,-5.259,0.324,2.229,-0.022,0.981,1.665
1992.0,-5.259,0.324,2.229,-0.087,0.914,1.691
1996.0,-5.259,0.324,2.229,-0.087,0.914,1.691
2000.0,-4.939,0.349,2.002,-0.179,0.845,1.71
2003.0,-4.939,0.349,2.002,-0.179,0.845,1.71
2007.0,-4.939,0.349,2.002,-0.179,0.845,1.71
2011.0,-4.644,0.386,1.86,-0.295,0.784,1.723
2015.0,-4.644,0.386,1.86,-0.295,0.784,1.723
2019.0,-4.355,0.349,1.856,-0.43,0.727,1.726
2023.0,-4.355,0.349,1.856,-0.43,0.727,1.726
2026.0,-4.355,0.349,1.856,-0.43,0.727,1.726
2030.0,-4.286,0.519,1.832,-0.595,0.667,1.716
2034.0,-4.286,0.519,1.832,-0.595,0.667,1.716
2038.0,-4.149,-0.112,1.874,-0.595,0.667,1.7
2042.0,-4.149,-0.112,1.874,-0.754,0.618,1.7
2046.0,-4.149,-0.112,1.874,-0.754,0.618,1.7
2050.0,-4.512,0.051,1.828,-0.851,0.581,1.633
2053.0,-4.512,0.051,1.828,-0.851,0.581,1.633
2057.0,-4.512,0.473,1.614,-0.851,0.581,1.633
2061.0,-4.795,0.473,1.614,-0.944,0.55,1.634
2065.0,-4.795,0.473,1.614,-0.944,0.55,1.634
2069.0,-4.579,0.479,1.728,-1.086,0.529,1.64
2072.0,-4.579,0.479,1.728,-1.086,0.529,1.64
2076.0,-4.579,0.479,1.728,-1.086,0.529,1.64
2080.0,-4.706,0.539,1.927,-1.232,0.507,1.6
2084.0,-4.706,0.539,1.927,-1.232,0.507,1.6
2088.0,-4.918,0.532,1.995,-1.379,0.465,1.552
2092.0,-4.918,0.532,1.995,-1.379,0.465,1.552
2095.0,-4.918,0.532,1.995,-1.379,0.465,1.552
2099.0,-5.036,0.514,1.96,-1.528,0.429,1.502
2103.0,-5.036,0.514,1.96,-1.528,0.429,1.502
2107.0,-5.297,0.43,2.013,-1.528,0.429,1.451
2111.0,-5.297,0.43,2.013,-1.678,0.434,1.451
2114.0,-5.297,0.43,2.013,-1.678,0.434,1.451
2118.0,-5.819,0.237,2.058,-1.808,0.479,1.415
2122.0,-5.819,0.237,2.058,-1.808,0.479,1.415
2126.0,-5.819,0.237,2.058,-1.808,0.479,1.415
2130.0,-6.756,-0.041,2.532,-1.883,0.561,1.411
2134.0,-6.756,-0.041,2.532,-1.883,0.561,1.411
2138.0,-8.014,-0.136,2.957,-1.915,0.668,1.429
2141.0,-8.014,-0.136,2.957,-1.915,0.668,1.429
2145.0,-8.014,-0.136,2.957,-1.915,0.668,1.429
2149.0,-9.333,-0.282,3.619,-1.901,0.78,1.474
2153.0,-9.333,-0.282,3.619,-1.901,0.78,1.474
2157.0,-10.637,-0.24,4.325,-1.85,0.877,1.536
2161.0,-10.637,-0.24,4.325,-1.85,0.877,1.536
2165.0,-10.637,-0.24,4.325,-1.85,0.877,1.536
2169.0,-12.103,-0.222,4.869,-1.79,0.949,1.614
2173.0,-12.103,-0.222,4.869,-1.79,0.949,1.614
2177.0,-12.89,-0.556,5.508,-1.718,0.984,1.706
2181.0,-12.89,-0.556,5.508,-1.718,0.984,1.706
2185.0,-12.89,-0.556,5.508,-1.718,0.984,1.706
2189.0,-13.328,-0.815,5.967,-1.601,1.005,1.796
2193.0,-13.328,-0.815,5.967,-1.601,1.005,1.796
2197.0,-13.665,-1.031,6.297,-1.45,1.034,1.888
2201.0,-13.665,-1.031,6.297,-1.45,1.034,1.888
2205.0,-13.665,-1.031,6.361,-1.45,1.034,1.888
2209.0,-14.173,-1.165,6.361,-1.292,1.079,1.987
2213.0,-14.173,-1.165,6.361,-1.292,1.079,1.987
2217.0,-14.856,-1.17,6.363,-1.153,1.153,2.092
2221.0,-14.856,-1.17,6.363,-1.153,1.153,2.092
2225.0,-14.856,-1.208,6.401,-1.153,1.153,2.092
2229.0,-15.63,-1.208,6.401,-1.047,1.262,2.214
2233.0,-15.63,-1.208,6.401,-1.047,1.262,2.214
2237.0,-16.397,-1.266,6.569,-0.971,1.405,2.355
2241.0,-16.397,-1.266,6.569,-0.971,1.405,2.355
2245.0,-17.094,-1.36,6.891,-0.971,1.405,2.355
2249.0,-17.094,-1.36,6.891,-0.909,1.564,2.511
2253.0,-17.094,-1.36,6.891,-0.909,1.564,2.511
2257.0,-17.789,-1.457,7.333,-0.845,1.714,2.669
2261.0,-17.789,-1.457,7.333,-0.845,1.714,2.669
2265.0,-18.286,-1.571,7.731,-0.845,1.714,2.811
2269.0,-18.286,-1.571,7.731,-0.766,1.832,2.811
2273.0,-18.286,-1.571,7.731,-0.766,1.832,2.811
2277.0,-18.133,-1.624,7.847,-0.667,1.898,2.92
2281.0,-18.133,-1.624,7.847,-0.667,1.898,2.92
2285.0,-17.271,-1.527,7.771,-0.551,1.936,2.972
2289.0,-17.271,-1.527,7.771,-0.551,1.936,2.972
2293.0,-17.271,-1.527,7.771,-0.551,1.936,2.972
2297.0,-16.249,-1.168,7.606,-0.416,1.975,2.956
2301.0,-16.249,-1.168,7.606,-0.416,1.975,2.956
2305.0,-15.721,-1.013,7.695,-0.25,2.019,2.884
2309.0,-15.721,-1.013,7.695,-0.25,2.019,2.884
2313.0,-15.721,-1.013,7.695,-0.25,2.019,2.884
2317.0,-15.632,-0.881,8.018,-0.032,2.027,2.773
2321.0,-15.632,-0.881,8.018,-0.032,2.027,2.773
2325.0,-15.975,-0.784,8.392,0.224,1.94,2.641
2329.0,-15.975,-0.784,8.392,0.224,1.94,2.641
2333.0,-15.975,-0.784,8.392,0.224,1.94,2.641
2336.0,-16.23,-0.698,8.473,0.496,1.735,2.514
2340.0,-16.23,-0.698,8.473,0.496,1.735,2.514
2344.0,-15.742,-0.596,8.09,0.761,1.453,2.388
2348.0,-15.742,-0.596,8.09,0.761,1.453,2.388
2352.0,-15.742,-0.596,8.09,0.761,1.453,2.388
2356.0,-14.776,-0.4,7.455,0.986,1.17,2.228
2360.0,-14.776,-0.4,7.455,0.986,1.17,2.228
2364.0,-13.707,-0.058,6.609,1.137,0.941,2.017
2368.0,-13.707,-0.058,6.609,1.137,0.941,2.017
2372.0,-13.707,-0.058,6.609,1.137,0.941,2.017
2376.0,-12.61,0.378,6.053,1.202,0.781,1.761
2379.0,-12.61,0.378,6.053,1.202,0.781,1.761
2383.0,-11.508,0.915,6.076,1.202,0.781,1.475
2387.0,-11.508,0.915,6.076,1.188,0.647,1.475
2391.0,-11.508,0.915,6.076,1.188,0.647,1.475
2395.0,-10.308,1.4,6.364,1.119,0.458,1.175
2398.0,-10.308,1.4,6.364,1.119,0.458,1.175
2402.0,-10.308,1.4,6.364,1.119,0.458,1.175
2406.0,-9.032,1.705,6.239,1.013,0.196,0.867
2410.0,-9.032,1.705,6.239,1.013,0.196,0.867
2414.0,-7.99,1.939,5.587,0.873,-0.066,0.545
2417.0,-7.99,1.939,5.587,0.873,-0.066,0.545
2421.0,-7.99,1.939,5.587,0.873,-0.066,0.545
2425.0,-7.425,2.061,4.819,0.705,-0.252,0.231
2429.0,-7.425,2.061,4.819,0.705,-0.252,0.231
2433.0,-7.309,2.005,4.36,0.705,-0.252,-0.028
2437.0,-7.309,2.005,4.36,0.506,-0.36,-0.028
2440.0,-7.309,2.005,4.36,0.506,-0.36,-0.028
2444.0,-7.634,1.732,4.321,0.287,-0.439,-0.207
2448.0,-7.634,1.732,4.321,0.287,-0.439,-0.207
2452.0,-8.415,1.3,4.382,0.287,-0.439,-0.207
2456.0,-8.415,1.3,4.382,0.073,-0.537,-0.319
2460.0,-8.415,1.3,4.382,0.073,-0.537,-0.319
2464.0,-9.564,0.753,4.251,-0.113,-0.676,-0.392
2468.0,-9.564,0.753,4.251,-0.113,-0.676,-0.392
2472.0,-10.749,0.233,3.833,-0.113,-0.676,-0.392
2476.0,-10.749,0.233,3.833,-0.274,-0.857,-0.449
2480.0,-10.749,0.233,3.833,-0.274,-0.857,-0.449
2484.0,-11.466,-0.209,3.249,-0.417,-1.069,-0.506
2488.0,-11.466,-0.209,3.249,-0.417,-1.069,-0.506
2492.0,-11.544,-0.505,2.731,-0.544,-1.291,-0.571
2497.0,-11.544,-0.505,2.731,-0.544,-1.291,-0.571
2501.0,-11.544,-0.505,2.731,-0.544,-1.291,-0.571
2505.0,-11.069,-0.737,2.243,-0.647,-1.502,-0.659
2509.0,-11.069,-0.737,2.243,-0.647,-1.502,-0.659
2513.0,-10.319,-0.967,1.821,-0.717,-1.676,-0.774
2517.0,-10.319,-0.967,1.821,-0.717,-1.676,-0.774
2522.0,-9.619,-1.169,1.47,-0.717,-1.798,-0.911
2526.0,-9.619,-1.169,1.47,-0.745,-1.798,-0.911
2530.0,-9.619,-1.169,1.47,-0.745,-1.798,-0.911
2534.0,-9.022,-1.366,1.154,-0.74,-1.875,-1.057
2538.0,-9.022,-1.366,1.154,-0.74,-1.875,-1.057
2542.0,-8.549,-1.539,0.84,-0.71,-1.911,-1.203
2546.0,-8.549,-1.539,0.84,-0.71,-1.911,-1.203
2550.0,-8.549,-1.539,0.84,-0.71,-1.911,-1.203
2554.0,-8.161,-1.635,0.611,-0.665,-1.909,-1.35
2558.0,-8.161,-1.635,0.611,-0.665,-1.909,-1.35
2562.0,-7.905,-1.707,0.541,-0.612,-1.878,-1.496
2567.0,-7.905,-1.707,0.541,-0.612,-1.878,-1.496
2571.0,-7.777,-1.767,0.594,-0.612,-1.878,-1.496
2575.0,-7.777,-1.767,0.594,-0.556,-1.838,-1.642
2579.0,-7.777,-1.767,0.594,-0.556,-1.838,-1.642
2583.0,-7.752,-1.893,0.705,-0.498,-1.802,-1.784
2587.0,-7.752,-1.893,0.705,-0.498,-1.802,-1.784
2591.0,-7.772,-2.112,0.797,-0.431,-1.774,-1.924
2595.0,-7.772,-2.112,0.797,-0.431,-1.774,-1.924
2599.0,-7.772,-2.112,0.797,-0.431,-1.774,-1.924
2603.0,-7.749,-2.447,0.769,-0.351,-1.754,-2.055
2607.0,-7.749,-2.447,0.769,-0.351,-1.754,-2.055
2611.0,-7.718,-2.751,0.538,-0.258,-1.734,-2.172
2615.0,-7.718,-2.751,0.538,-0.258,-1.734,-2.172
2620.0,-7.718,-2.751,0.199,-0.258,-1.734,-2.172
2624.0,-7.697,-3.004,0.199,-0.154,-1.706,-2.257
2628.0,-7.697,-3.004,0.199,-0.154,-1.706,-2.257
2632.0,-7.603,-3.331,-0.248,-0.04,-1.673,-2.293
2636.0,-7.603,-3.331,-0.248,-0.04,-1.673,-2.293
2640.0,-7.446,-3.669,-0.711,-0.04,-1.639,-2.283
2644.0,-7.446,-3.669,-0.711,0.083,-1.639,-2.283
2648.0,-7.446,-3.669,-0.711,0.083,-1.639,-2.283
2652.0,-7.234,-4.032,-1.106,0.209,-1.604,-2.233
2657.0,-7.234,-4.032,-1.106,0.209,-1.604,-2.233
2661.0,-7.001,-4.461,-1.447,0.333,-1.566,-2.17
2665.0,-7.001,-4.461,-1.447,0.333,-1.566,-2.17
2669.0,-7.001,-4.461,-1.447,0.333,-1.566,-2.17
2673.0,-6.737,-4.889,-1.699,0.452,-1.529,-2.135
2677.0,-6.737,-4.889,-1.699,0.452,-1.529,-2.135
2681.0,-6.463,-5.14,-1.896,0.572,-1.497,-2.158
2685.0,-6.463,-5.14,-1.896,0.572,-1.497,-2.158
2689.0,-6.288,-5.218,-2.075,0.572,-1.497,-2.158
2693.0,-6.288,-5.218,-2.075,0.695,-1.463,-2.236
2697.0,-6.288,-5.218,-2.075,0.695,-1.463,-2.236
2701.0,-6.176,-5.235,-2.197,0.821,-1.421,-2.348
2706.0,-6.176,-5.235,-2.197,0.821,-1.421,-2.348
2710.0,-6.176,-5.271,-2.274,0.945,-1.369,-2.479
2714.0,-6.176,-5.271,-2.274,0.945,-1.369,-2.479
2718.0,-6.176,-5.271,-2.274,0.945,-1.369,-2.479
2722.0,-6.261,-5.313,-2.323,1.06,-1.308,-2.625
2726.0,-6.261,-5.313,-2.323,1.06,-1.308,-2.625
2730.0,-6.471,-5.436,-2.272,1.157,-1.238,-2.788
2734.0,-6.471,-5.436,-2.272,1.157,-1.238,-2.788
2738.0,-6.471,-5.436,-2.177,1.157,-1.238,-2.788
2742.0,-6.834,-5.646,-2.177,1.234,-1.17,-2.975
2746.0,-6.834,-5.646,-2.177,1.234,-1.17,-2.975
2750.0,-7.32,-5.955,-2.058,1.286,-1.12,-3.182
2754.0,-7.32,-5.955,-2.058,1.286,-1.12,-3.182
2759.0,-7.936,-6.344,-1.914,1.286,-1.092,-3.413
2763.0,-7.936,-6.344,-1.914,1.301,-1.092,-3.413
2767.0,-7.936,-6.344,-1.914,1.301,-1.092,-3.413
2771.0,-8.644,-6.724,-1.774,1.275,-1.077,-3.662
2775.0,-8.644,-6.724,-1.774,1.275,-1.077,-3.662
2779.0,-9.47,-7.073,-1.654,1.206,-1.064,-3.913
2783.0,-9.47,-7.073,-1.654,1.206,-1.064,-3.913
2787.0,-9.47,-7.073,-1.654,1.206,-1.064,-3.913
2791.0,-10.359,-7.506,-1.539,1.095,-1.045,-4.149
2795.0,-10.359,-7.506,-1.539,1.095,-1.045,-4.149
2800.0,-11.431,-8.003,-1.376,0.944,-1.01,-4.356
2804.0,-11.431,-8.003,-1.376,0.944,-1.01,-4.356
2808.0,-12.762,-8.642,-1.112,0.944,-1.01,-4.51
2812.0,-12.762,-8.642,-1.112,0.757,-0.946,-4.51
2816.0,-12.762,-8.642,-1.112,0.757,-0.946,-4.51
2820.0,-14.458,-9.468,-0.564,0.535,-0.856,-4.59
2825.0,-14.458,-9.468,-0.564,0.535,-0.856,-4.59
2829.0,-16.372,-10.357,0.161,0.284,-0.773,-4.6
2833.0,-16.372,-10.357,0.161,0.284,-0.773,-4.6
2837.0,-16.372,-11.215,0.899,0.284,-0.773,-4.6
2841.0,-17.993,-11.215,0.899,0.031,-0.751,-4.546
2845.0,-17.993,-11.215,0.899,0.031,-0.751,-4.546
2850.0,-18.714,-11.943,1.537,-0.187,-0.802,-4.454
2854.0,-18.714,-11.943,1.537,-0.187,-0.802,-4.454
2858.0,-18.593,-12.393,1.845,-0.342,-0.887,-4.356
2862.0,-18.593,-12.393,1.845,-0.342,-0.887,-4.356
2867.0,-18.593,-12.488,1.883,-0.342,-0.887,-4.356
2871.0,-18.229,-12.488,1.883,-0.439,-0.95,-4.261
2875.0,-18.229,-12.488,1.883,-0.439,-0.95,-4.261
2879.0,-18.086,-12.456,1.882,-0.511,-0.959,-4.154
2884.0,-18.086,-12.456,1.882,-0.511,-0.959,-4.154
2888.0,-17.974,-12.264,1.969,-0.579,-0.912,-4.031
2892.0,-17.974,-12.264,1.969,-0.579,-0.912,-4.031
2896.0,-17.595,-12.022,2.143,-0.579,-0.912,-4.031
2901.0,-17.595,-12.022,2.143,-0.665,-0.824,-3.887
2905.0,-17.595,-12.022,2.143,-0.665,-0.824,-3.887
2909.0,-16.786,-11.715,2.431,-0.762,-0.689,-3.738
2913.0,-16.786,-11.715,2.431,-0.762,-0.689,-3.738
2918.0,-15.633,-11.171,2.933,-0.841,-0.5,-3.606
2922.0,-15.633,-11.171,2.933,-0.841,-0.5,-3.606
2926.0,-14.437,-10.363,3.509,-0.841,-0.5,-3.606
2930.0,-14.437,-10.363,3.509,-0.868,-0.292,-3.501
2935.0,-14.437,-10.363,3.509,-0.868,-0.292,-3.501
2939.0,-13.309,-9.349,4.026,-0.822,-0.109,-3.404
2943.0,-13.309,-9.349,4.026,-0.822,-0.109,-3.404
2947.0,-12.333,-8.159,4.482,-0.693,0.031,-3.278
2951.0,-12.333,-8.159,4.482,-0.693,0.031,-3.278
2955.0,-12.333,-8.159,4.644,-0.693,0.031,-3.278
2959.0,-11.372,-6.956,4.644,-0.492,0.118,-3.09
2963.0,-11.372,-6.956,4.644,-0.492,0.118,-3.09
2968.0,-10.347,-5.854,4.539,-0.241,0.164,-2.841
2972.0,-10.347,-5.854,4.539,-0.241,0.164,-2.841
2976.0,-9.299,-4.85,4.286,-0.241,0.188,-2.549
2980.0,-9.299,-4.85,4.286,0.032,0.188,-2.549
2984.0,-9.299,-4.85,4.286,0.032,0.188,-2.549
2988.0,-8.286,-3.961,4.006,0.301,0.21,-2.237
2991.0,-8.286,-3.961,4.006,0.301,0.21,-2.237
2995.0,-7.446,-3.23,3.825,0.301,0.21,-1.919
2999.0,-7.446,-3.23,3.825,0.542,0.246,-1.919
