deltaTime,Acc_X,Acc_Y,Acc_Z,Gyro_X,Gyro_Y,Gyro_Z
0.0,-8.669,-2.192,3.954,-1.34,-0.045,-0.168
3.0,-8.669,-2.192,3.954,-1.34,-0.045,-0.168
6.0,-8.669,-2.192,3.954,-1.34,-0.045,-0.168
9.0,-8.905,-2.119,4.254,-1.178,-0.059,-0.165
12.0,-8.905,-2.119,4.254,-1.178,-0.059,-0.165
15.0,-8.905,-2.119,4.254,-1.178,-0.059,-0.165
18.0,-8.815,-1.939,4.501,-1.024,-0.08,-0.154
21.0,-8.815,-1.939,4.501,-1.024,-0.08,-0.154
24.0,-8.815,-1.939,4.501,-1.024,-0.08,-0.154
27.0,-8.643,-1.932,4.689,-1.024,-0.08,-0.154
30.0,-8.643,-1.932,4.689,-0.887,-0.095,-0.148
34.0,-8.643,-1.932,4.689,-0.887,-0.095,-0.148
38.0,-8.576,-1.901,4.771,-0.743,-0.107,-0.141
41.0,-8.576,-1.901,4.771,-0.743,-0.107,-0.141
45.0,-8.576,-1.901,4.771,-0.743,-0.107,-0.141
49.0,-8.697,-1.746,4.718,-0.605,-0.116,-0.134
53.0,-8.697,-1.746,4.718,-0.605,-0.116,-0.134
57.0,-8.987,-1.537,4.728,-0.503,-0.122,-0.132
61.0,-8.987,-1.537,4.728,-0.503,-0.122,-0.132
65.0,-8.987,-1.537,4.728,-0.503,-0.122,-0.132
69.0,-9.236,-1.409,4.81,-0.439,-0.142,-0.122
73.0,-9.236,-1.409,4.81,-0.439,-0.142,-0.122
77.0,-9.319,-1.439,4.796,-0.396,-0.19,-0.101
81.0,-9.319,-1.439,4.796,-0.396,-0.19,-0.101
84.0,-9.319,-1.439,4.796,-0.396,-0.19,-0.101
88.0,-9.371,-1.481,4.623,-0.358,-0.253,-0.087
92.0,-9.371,-1.481,4.623,-0.358,-0.253,-0.087
96.0,-9.564,-1.475,4.353,-0.358,-0.308,-0.092
100.0,-9.564,-1.475,4.353,-0.335,-0.308,-0.092
104.0,-9.564,-1.475,4.353,-0.335,-0.308,-0.092
108.0,-9.866,-1.379,4.071,-0.345,-0.34,-0.117
112.0,-9.866,-1.379,4.071,-0.345,-0.34,-0.117
116.0,-10.263,-1.17,4.019,-0.393,-0.356,-0.141
120.0,-10.263,-1.17,4.019,-0.393,-0.356,-0.141
124.0,-10.263,-1.17,4.019,-0.393,-0.356,-0.141
128.0,-10.91,-1.563,4.169,-0.464,-0.376,-0.171
132.0,-10.91,-1.563,4.169,-0.464,-0.376,-0.171
136.0,-11.707,-2.024,4.423,-0.509,-0.397,-0.23
141.0,-11.707,-2.024,4.423,-0.509,-0.397,-0.23
145.0,-11.707,-2.024,4.425,-0.509,-0.397,-0.23
149.0,-12.265,-2.2,4.425,-0.511,-0.413,-0.308
153.0,-12.265,-2.2,4.425,-0.511,-0.413,-0.308
157.0,-12.54,-2.173,4.299,-0.485,-0.416,-0.389
161.0,-12.54,-2.173,4.299,-0.485,-0.416,-0.389
165.0,-12.662,-2.063,4.172,-0.485,-0.416,-0.458
169.0,-12.662,-2.063,4.172,-0.437,-0.419,-0.458
173.0,-12.662,-2.063,4.172,-0.437,-0.419,-0.458
177.0,-12.667,-1.722,3.996,-0.39,-0.438,-0.518
181.0,-12.667,-1.722,3.996,-0.39,-0.438,-0.518
185.0,-12.727,-1.576,3.836,-0.365,-0.464,-0.569
189.0,-12.727,-1.576,3.836,-0.365,-0.464,-0.569
194.0,-12.727,-1.576,3.836,-0.365,-0.464,-0.569
198.0,-12.782,-1.318,3.328,-0.344,-0.493,-0.603
202.0,-12.782,-1.318,3.328,-0.344,-0.493,-0.603
206.0,-12.671,-0.872,2.62,-0.371,-0.535,-0.653
210.0,-12.671,-0.872,2.62,-0.371,-0.535,-0.653
214.0,-12.671,-0.902,1.743,-0.371,-0.535,-0.653
218.0,-12.924,-0.902,1.743,-0.489,-0.574,-0.673
222.0,-12.924,-0.902,1.743,-0.489,-0.574,-0.673
226.0,-13.413,-1.081,1.162,-0.635,-0.679,-0.605
230.0,-13.413,-1.081,1.162,-0.635,-0.679,-0.605
234.0,-13.667,-1.248,0.906,-0.635,-0.779,-0.481
238.0,-13.667,-1.248,0.906,-0.815,-0.779,-0.481
243.0,-13.667,-1.248,0.906,-0.815,-0.779,-0.481
247.0,-13.436,-1.511,0.735,-0.997,-0.854,-0.362
251.0,-13.436,-1.511,0.735,-0.997,-0.854,-0.362
255.0,-12.776,-1.947,0.632,-1.157,-0.924,-0.243
259.0,-12.776,-1.947,0.632,-1.157,-0.924,-0.243
263.0,-12.776,-1.947,0.632,-1.157,-0.924,-0.243
267.0,-11.7,-2.326,0.584,-1.266,-0.959,-0.126
271.0,-11.7,-2.326,0.584,-1.266,-0.959,-0.126
275.0,-10.701,-2.648,0.623,-1.331,-0.931,-0.022
279.0,-10.701,-2.648,0.623,-1.331,-0.931,-0.022
283.0,-10.201,-2.979,0.884,-1.331,-0.931,-0.022
287.0,-10.201,-2.979,0.884,-1.346,-0.84,0.075
291.0,-10.201,-2.979,0.884,-1.346,-0.84,0.075
295.0,-10.266,-3.321,1.325,-1.296,-0.729,0.184
299.0,-10.266,-3.321,1.325,-1.296,-0.729,0.184
303.0,-10.726,-3.633,1.769,-1.296,-0.648,0.313
307.0,-10.726,-3.633,1.769,-1.176,-0.648,0.313
311.0,-10.726,-3.633,1.769,-1.176,-0.648,0.313
315.0,-11.17,-3.866,2.177,-0.995,-0.625,0.451
319.0,-11.17,-3.866,2.177,-0.995,-0.625,0.451
323.0,-11.39,-3.958,2.429,-0.774,-0.662,0.58
327.0,-11.39,-3.958,2.429,-0.774,-0.662,0.58
331.0,-11.39,-3.958,2.429,-0.774,-0.662,0.58
335.0,-11.206,-3.896,2.389,-0.54,-0.734,0.684
339.0,-11.206,-3.896,2.389,-0.54,-0.734,0.684
343.0,-10.57,-3.681,2.107,-0.32,-0.795,0.757
347.0,-10.57,-3.681,2.107,-0.32,-0.795,0.757
351.0,-10.57,-3.681,2.107,-0.32,-0.795,0.757
355.0,-9.745,-3.377,1.804,-0.131,-0.818,0.796
359.0,-9.745,-3.377,1.804,-0.131,-0.818,0.796
363.0,-8.986,-3.038,1.548,0.018,-0.802,0.803
367.0,-8.986,-3.038,1.548,0.018,-0.802,0.803
371.0,-8.986,-3.038,1.548,0.018,-0.802,0.803
375.0,-8.344,-2.715,1.372,0.129,-0.763,0.787
378.0,-8.344,-2.715,1.372,0.129,-0.763,0.787
382.0,-7.789,-2.419,1.247,0.129,-0.763,0.755
386.0,-7.789,-2.419,1.247,0.209,-0.714,0.755
390.0,-7.789,-2.419,1.247,0.209,-0.714,0.755
394.0,-7.32,-2.154,1.159,0.258,-0.664,0.713
397.0,-7.32,-2.154,1.159,0.258,-0.664,0.713
401.0,-7.32,-2.154,1.092,0.258,-0.664,0.713
405.0,-6.934,-1.95,1.092,0.278,-0.62,0.668
409.0,-6.934,-1.95,1.092,0.278,-0.62,0.668
413.0,-6.665,-1.774,1.006,0.275,-0.582,0.617
417.0,-6.665,-1.774,1.006,0.275,-0.582,0.617
420.0,-6.665,-1.774,1.006,0.275,-0.582,0.617
424.0,-6.489,-1.644,0.927,0.25,-0.546,0.56
428.0,-6.489,-1.644,0.927,0.25,-0.546,0.56
432.0,-6.421,-1.497,0.826,0.205,-0.513,0.492
436.0,-6.421,-1.497,0.826,0.205,-0.513,0.492
439.0,-6.421,-1.497,0.826,0.205,-0.513,0.492
443.0,-6.412,-1.353,0.748,0.142,-0.482,0.416
447.0,-6.412,-1.353,0.748,0.142,-0.482,0.416
451.0,-6.412,-1.235,0.721,0.142,-0.482,0.416
455.0,-6.462,-1.235,0.721,0.059,-0.456,0.333
459.0,-6.462,-1.235,0.721,0.059,-0.456,0.333
462.0,-6.527,-1.122,0.686,-0.039,-0.435,0.241
466.0,-6.527,-1.122,0.686,-0.039,-0.435,0.241
470.0,-6.527,-1.122,0.686,-0.039,-0.435,0.241
474.0,-6.621,-1.035,0.632,-0.151,-0.415,0.144
478.0,-6.621,-1.035,0.632,-0.151,-0.415,0.144
482.0,-6.741,-0.966,0.576,-0.272,-0.395,0.042
486.0,-6.741,-0.966,0.576,-0.272,-0.395,0.042
490.0,-6.741,-0.966,0.576,-0.272,-0.395,0.042
494.0,-6.934,-0.892,0.52,-0.401,-0.369,-0.059
498.0,-6.934,-0.892,0.52,-0.401,-0.369,-0.059
502.0,-7.221,-0.881,0.467,-0.533,-0.33,-0.152
506.0,-7.221,-0.881,0.467,-0.533,-0.33,-0.152
510.0,-7.221,-0.881,0.467,-0.533,-0.33,-0.152
514.0,-7.582,-0.893,0.443,-0.665,-0.279,-0.228
518.0,-7.582,-0.893,0.443,-0.665,-0.279,-0.228
522.0,-8.014,-0.932,0.446,-0.79,-0.22,-0.282
526.0,-8.014,-0.932,0.446,-0.79,-0.22,-0.282
530.0,-8.014,-0.932,0.483,-0.79,-0.22,-0.282
534.0,-8.45,-1.025,0.483,-0.907,-0.157,-0.314
538.0,-8.45,-1.025,0.483,-0.907,-0.157,-0.314
542.0,-8.891,-1.146,0.542,-1.011,-0.096,-0.322
546.0,-8.891,-1.146,0.542,-1.011,-0.096,-0.322
550.0,-8.891,-1.293,0.639,-1.011,-0.096,-0.322
554.0,-9.259,-1.293,0.639,-1.1,-0.043,-0.305
558.0,-9.259,-1.293,0.639,-1.1,-0.043,-0.305
562.0,-9.54,-1.46,0.74,-1.17,0.003,-0.264
565.0,-9.54,-1.46,0.74,-1.17,0.003,-0.264
569.0,-9.54,-1.637,0.82,-1.17,0.003,-0.264
573.0,-9.736,-1.637,0.82,-1.222,0.036,-0.2
577.0,-9.736,-1.637,0.82,-1.222,0.036,-0.2
581.0,-9.852,-1.83,0.861,-1.249,0.06,-0.117
585.0,-9.852,-1.83,0.861,-1.249,0.06,-0.117
589.0,-9.852,-1.83,0.89,-1.249,0.06,-0.117
593.0,-9.936,-2.008,0.89,-1.251,0.082,-0.018
597.0,-9.936,-2.008,0.89,-1.251,0.082,-0.018
601.0,-10.08,-2.141,0.922,-1.23,0.102,0.096
604.0,-10.08,-2.141,0.922,-1.23,0.102,0.096
608.0,-10.08,-2.141,0.922,-1.23,0.102,0.096
612.0,-10.242,-2.264,0.867,-1.19,0.115,0.222
616.0,-10.242,-2.264,0.867,-1.19,0.115,0.222
620.0,-10.393,-2.349,0.757,-1.138,0.127,0.357
624.0,-10.393,-2.349,0.757,-1.138,0.127,0.357
628.0,-10.393,-2.349,0.757,-1.138,0.127,0.357
632.0,-10.443,-2.416,0.638,-1.081,0.146,0.497
636.0,-10.443,-2.416,0.638,-1.081,0.146,0.497
640.0,-10.432,-2.463,0.571,-1.022,0.171,0.637
644.0,-10.432,-2.463,0.571,-1.022,0.171,0.637
647.0,-10.432,-2.463,0.571,-1.022,0.171,0.637
651.0,-10.42,-2.502,0.549,-0.96,0.206,0.773
655.0,-10.42,-2.502,0.549,-0.96,0.206,0.773
659.0,-10.49,-2.54,0.586,-0.893,0.25,0.902
663.0,-10.49,-2.54,0.586,-0.893,0.25,0.902
667.0,-10.49,-2.54,0.586,-0.893,0.25,0.902
671.0,-10.664,-2.563,0.678,-0.817,0.299,1.025
675.0,-10.664,-2.563,0.678,-0.817,0.299,1.025
679.0,-10.915,-2.584,0.78,-0.731,0.347,1.141
683.0,-10.915,-2.584,0.78,-0.731,0.347,1.141
687.0,-10.915,-2.584,0.78,-0.731,0.347,1.141
690.0,-11.155,-2.612,0.909,-0.639,0.389,1.249
694.0,-11.155,-2.612,0.909,-0.639,0.389,1.249
698.0,-11.339,-2.637,1.03,-0.639,0.423,1.346
702.0,-11.339,-2.637,1.03,-0.542,0.423,1.346
706.0,-11.339,-2.637,1.03,-0.542,0.423,1.346
710.0,-11.441,-2.646,1.133,-0.445,0.446,1.423
714.0,-11.441,-2.646,1.133,-0.445,0.446,1.423
718.0,-11.402,-2.643,1.201,-0.445,0.446,1.477
722.0,-11.402,-2.643,1.201,-0.352,0.458,1.477
726.0,-11.402,-2.643,1.201,-0.352,0.458,1.477
729.0,-11.334,-2.605,1.216,-0.265,0.464,1.501
733.0,-11.334,-2.605,1.216,-0.265,0.464,1.501
737.0,-11.236,-2.559,1.23,-0.265,0.464,1.501
741.0,-11.236,-2.559,1.23,-0.185,0.466,1.496
745.0,-11.236,-2.559,1.23,-0.185,0.466,1.496
749.0,-11.052,-2.484,1.272,-0.112,0.458,1.463
753.0,-11.052,-2.484,1.272,-0.112,0.458,1.463
757.0,-11.052,-2.403,1.312,-0.112,0.458,1.463
761.0,-10.853,-2.403,1.312,-0.045,0.436,1.404
765.0,-10.853,-2.403,1.312,-0.045,0.436,1.404
769.0,-10.674,-2.296,1.351,0.016,0.4,1.32
772.0,-10.674,-2.296,1.351,0.016,0.4,1.32
776.0,-10.674,-2.296,1.351,0.016,0.4,1.32
780.0,-10.609,-2.177,1.361,0.071,0.356,1.215
784.0,-10.609,-2.177,1.361,0.071,0.356,1.215
788.0,-10.664,-2.037,1.311,0.118,0.307,1.089
791.0,-10.664,-2.037,1.311,0.118,0.307,1.089
795.0,-10.664,-2.037,1.311,0.118,0.307,1.089
799.0,-10.859,-1.882,1.256,0.153,0.26,0.952
803.0,-10.859,-1.882,1.256,0.153,0.26,0.952
807.0,-11.093,-1.698,1.213,0.153,0.26,0.815
811.0,-11.093,-1.698,1.213,0.174,0.212,0.815
814.0,-11.093,-1.698,1.213,0.174,0.212,0.815
818.0,-11.276,-1.518,1.245,0.179,0.159,0.68
822.0,-11.276,-1.518,1.245,0.179,0.159,0.68
826.0,-11.276,-1.518,1.223,0.179,0.159,0.68
830.0,-11.378,-1.336,1.223,0.172,0.095,0.552
833.0,-11.378,-1.336,1.223,0.172,0.095,0.552
837.0,-11.346,-1.196,1.171,0.149,0.025,0.431
841.0,-11.346,-1.196,1.171,0.149,0.025,0.431
845.0,-11.346,-1.196,1.171,0.149,0.025,0.431
849.0,-11.194,-1.059,1.134,0.112,-0.044,0.314
853.0,-11.194,-1.059,1.134,0.112,-0.044,0.314
857.0,-10.97,-0.976,1.158,0.056,-0.11,0.2
860.0,-10.97,-0.976,1.158,0.056,-0.11,0.2
864.0,-10.97,-0.976,1.158,0.056,-0.11,0.2
868.0,-10.732,-0.886,1.166,-0.017,-0.174,0.089
872.0,-10.732,-0.886,1.166,-0.017,-0.174,0.089
876.0,-10.486,-0.792,1.195,-0.108,-0.233,-0.02
880.0,-10.486,-0.792,1.195,-0.108,-0.233,-0.02
884.0,-10.486,-0.792,1.195,-0.108,-0.233,-0.02
889.0,-10.256,-0.703,1.222,-0.213,-0.285,-0.124
893.0,-10.256,-0.703,1.222,-0.213,-0.285,-0.124
897.0,-10.056,-0.614,1.275,-0.331,-0.33,-0.221
901.0,-10.056,-0.614,1.275,-0.331,-0.33,-0.221
905.0,-10.056,-0.614,1.315,-0.331,-0.33,-0.221
909.0,-9.842,-0.534,1.315,-0.458,-0.372,-0.308
913.0,-9.842,-0.534,1.315,-0.458,-0.372,-0.308
917.0,-9.591,-0.49,1.37,-0.59,-0.411,-0.385
921.0,-9.591,-0.49,1.37,-0.59,-0.411,-0.385
925.0,-9.276,-0.459,1.411,-0.59,-0.411,-0.385
929.0,-9.276,-0.459,1.411,-0.723,-0.447,-0.45
933.0,-9.276,-0.459,1.411,-0.723,-0.447,-0.45
937.0,-8.998,-0.453,1.425,-0.854,-0.477,-0.499
941.0,-8.998,-0.453,1.425,-0.854,-0.477,-0.499
945.0,-8.755,-0.458,1.42,-0.854,-0.477,-0.532
949.0,-8.755,-0.458,1.42,-0.98,-0.495,-0.532
953.0,-8.755,-0.458,1.42,-0.98,-0.495,-0.532
957.0,-8.575,-0.509,1.387,-1.101,-0.498,-0.545
961.0,-8.575,-0.509,1.387,-1.101,-0.498,-0.545
965.0,-8.468,-0.593,1.412,-1.101,-0.486,-0.537
969.0,-8.468,-0.593,1.412,-1.214,-0.486,-0.537
973.0,-8.468,-0.593,1.412,-1.214,-0.486,-0.537
977.0,-8.43,-0.689,1.444,-1.314,-0.465,-0.508
981.0,-8.43,-0.689,1.444,-1.314,-0.465,-0.508
985.0,-8.438,-0.846,1.516,-1.395,-0.439,-0.455
989.0,-8.438,-0.846,1.516,-1.395,-0.439,-0.455
993.0,-8.438,-0.846,1.516,-1.395,-0.439,-0.455
997.0,-8.448,-1.028,1.607,-1.449,-0.415,-0.385
1001.0,-8.448,-1.028,1.607,-1.449,-0.415,-0.385
1005.0,-8.431,-1.215,1.694,-1.475,-0.396,-0.302
1009.0,-8.431,-1.215,1.694,-1.475,-0.396,-0.302
1013.0,-8.431,-1.215,1.694,-1.475,-0.396,-0.302
1017.0,-8.439,-1.353,1.792,-1.476,-0.38,-0.212
1021.0,-8.439,-1.353,1.792,-1.476,-0.38,-0.212
1025.0,-8.425,-1.429,1.904,-1.457,-0.367,-0.116
1029.0,-8.425,-1.429,1.904,-1.457,-0.367,-0.116
1033.0,-8.376,-1.445,2.028,-1.457,-0.367,-0.116
1037.0,-8.376,-1.445,2.028,-1.423,-0.363,-0.015
1042.0,-8.376,-1.445,2.028,-1.423,-0.363,-0.015
1046.0,-8.295,-1.439,2.106,-1.383,-0.364,0.091
1050.0,-8.295,-1.439,2.106,-1.383,-0.364,0.091
1054.0,-8.208,-1.404,2.137,-1.383,-0.36,0.199
1058.0,-8.208,-1.404,2.137,-1.346,-0.36,0.199
1062.0,-8.208,-1.404,2.137,-1.346,-0.36,0.199
1066.0,-8.11,-1.333,2.135,-1.316,-0.344,0.306
1070.0,-8.11,-1.333,2.135,-1.316,-0.344,0.306
1074.0,-8.04,-1.275,2.157,-1.296,-0.306,0.412
1078.0,-8.04,-1.275,2.157,-1.296,-0.306,0.412
1082.0,-8.04,-1.275,2.157,-1.296,-0.306,0.412
1086.0,-8.055,-1.245,2.22,-1.283,-0.253,0.515
1090.0,-8.055,-1.245,2.22,-1.283,-0.253,0.515
1094.0,-8.207,-1.227,2.307,-1.271,-0.188,0.615
1098.0,-8.207,-1.227,2.307,-1.271,-0.188,0.615
1102.0,-8.207,-1.227,2.307,-1.271,-0.188,0.615
1106.0,-8.493,-1.224,2.398,-1.259,-0.117,0.718
1110.0,-8.493,-1.224,2.398,-1.259,-0.117,0.718
1114.0,-8.808,-1.253,2.551,-1.244,-0.05,0.826
1117.0,-8.808,-1.253,2.551,-1.244,-0.05,0.826
1121.0,-8.808,-1.253,2.551,-1.244,-0.05,0.826
1125.0,-9.078,-1.287,2.737,-1.226,0.007,0.938
1129.0,-9.078,-1.287,2.737,-1.226,0.007,0.938
1133.0,-9.24,-1.343,2.868,-1.204,0.047,1.048
1137.0,-9.24,-1.343,2.868,-1.204,0.047,1.048
1141.0,-9.24,-1.343,2.868,-1.204,0.047,1.048
1145.0,-9.274,-1.409,2.94,-1.178,0.074,1.147
1149.0,-9.274,-1.409,2.94,-1.178,0.074,1.147
1153.0,-9.229,-1.436,2.992,-1.149,0.094,1.227
1157.0,-9.229,-1.436,2.992,-1.149,0.094,1.227
1161.0,-9.229,-1.436,2.992,-1.149,0.094,1.227
1165.0,-9.166,-1.443,3.023,-1.118,0.111,1.282
1168.0,-9.166,-1.443,3.023,-1.118,0.111,1.282
1172.0,-9.136,-1.426,3.087,-1.086,0.121,1.313
1176.0,-9.136,-1.426,3.087,-1.086,0.121,1.313
1180.0,-9.136,-1.426,3.087,-1.086,0.121,1.313
1184.0,-9.149,-1.378,3.135,-1.053,0.123,1.321
1188.0,-9.149,-1.378,3.135,-1.053,0.123,1.321
1192.0,-9.212,-1.336,3.182,-1.053,0.116,1.309
1196.0,-9.212,-1.336,3.182,-1.022,0.116,1.309
1200.0,-9.212,-1.336,3.182,-1.022,0.116,1.309
1204.0,-9.391,-1.28,3.205,-0.996,0.103,1.278
1208.0,-9.391,-1.28,3.205,-0.996,0.103,1.278
1211.0,-9.658,-1.231,3.257,-0.996,0.103,1.232
1215.0,-9.658,-1.231,3.257,-0.971,0.087,1.232
1219.0,-9.658,-1.231,3.257,-0.971,0.087,1.232
1223.0,-9.964,-1.198,3.33,-0.948,0.066,1.173
1227.0,-9.964,-1.198,3.33,-0.948,0.066,1.173
1231.0,-10.219,-1.149,3.378,-0.948,0.066,1.173
1235.0,-10.219,-1.149,3.378,-0.928,0.032,1.105
1239.0,-10.219,-1.149,3.378,-0.928,0.032,1.105
1243.0,-10.36,-1.107,3.408,-0.914,-0.012,1.025
1247.0,-10.36,-1.107,3.408,-0.914,-0.012,1.025
1251.0,-10.446,-1.058,3.424,-0.914,-0.066,0.927
1255.0,-10.446,-1.058,3.424,-0.905,-0.066,0.927
1259.0,-10.446,-1.058,3.424,-0.905,-0.066,0.927
1263.0,-10.465,-0.998,3.383,-0.904,-0.123,0.809
1267.0,-10.465,-0.998,3.383,-0.904,-0.123,0.809
1271.0,-10.455,-0.908,3.327,-0.913,-0.177,0.674
1276.0,-10.455,-0.908,3.327,-0.913,-0.177,0.674
1280.0,-10.455,-0.908,3.327,-0.913,-0.177,0.674
1284.0,-10.365,-0.809,3.275,-0.938,-0.226,0.527
1288.0,-10.365,-0.809,3.275,-0.938,-0.226,0.527
1292.0,-10.162,-0.706,3.23,-0.975,-0.271,0.373
1296.0,-10.162,-0.706,3.23,-0.975,-0.271,0.373
1300.0,-9.898,-0.625,3.208,-0.975,-0.271,0.373
1304.0,-9.898,-0.625,3.208,-1.022,-0.316,0.216
1308.0,-9.898,-0.625,3.208,-1.022,-0.316,0.216
1312.0,-9.568,-0.545,3.16,-1.077,-0.357,0.056
1316.0,-9.568,-0.545,3.16,-1.077,-0.357,0.056
1320.0,-9.31,-0.492,3.095,-1.077,-0.357,-0.101
1324.0,-9.31,-0.492,3.095,-1.135,-0.386,-0.101
1328.0,-9.31,-0.492,3.095,-1.135,-0.386,-0.101
1332.0,-9.158,-0.482,3.064,-1.193,-0.4,-0.249
1336.0,-9.158,-0.482,3.064,-1.193,-0.4,-0.249
1340.0,-9.067,-0.544,3.065,-1.25,-0.402,-0.38
1344.0,-9.067,-0.544,3.065,-1.25,-0.402,-0.38
1349.0,-9.067,-0.544,3.065,-1.25,-0.402,-0.38
1353.0,-8.958,-0.638,3.087,-1.298,-0.403,-0.493
1357.0,-8.958,-0.638,3.087,-1.298,-0.403,-0.493
1361.0,-8.803,-0.739,3.068,-1.337,-0.406,-0.588
1365.0,-8.803,-0.739,3.068,-1.337,-0.406,-0.588
1369.0,-8.803,-0.857,3.021,-1.337,-0.406,-0.588
1373.0,-8.624,-0.857,3.021,-1.365,-0.405,-0.667
1377.0,-8.624,-0.857,3.021,-1.365,-0.405,-0.667
1381.0,-8.478,-1.002,2.963,-1.38,-0.393,-0.735
1385.0,-8.478,-1.002,2.963,-1.38,-0.393,-0.735
1389.0,-8.365,-1.136,2.93,-1.382,-0.37,-0.789
1393.0,-8.365,-1.136,2.93,-1.382,-0.37,-0.789
1398.0,-8.365,-1.136,2.93,-1.382,-0.37,-0.789
1402.0,-8.323,-1.262,2.929,-1.369,-0.34,-0.827
1406.0,-8.323,-1.262,2.929,-1.369,-0.34,-0.827
1410.0,-8.36,-1.392,2.954,-1.338,-0.309,-0.851
1414.0,-8.36,-1.392,2.954,-1.338,-0.309,-0.851
1418.0,-8.36,-1.392,2.954,-1.338,-0.309,-0.851
1422.0,-8.404,-1.503,2.991,-1.288,-0.284,-0.86
1426.0,-8.404,-1.503,2.991,-1.288,-0.284,-0.86
1430.0,-8.407,-1.58,2.98,-1.218,-0.266,-0.854
1434.0,-8.407,-1.58,2.98,-1.218,-0.266,-0.854
1438.0,-8.344,-1.664,2.971,-1.218,-0.266,-0.854
1442.0,-8.344,-1.664,2.971,-1.131,-0.248,-0.841
1446.0,-8.344,-1.664,2.971,-1.131,-0.248,-0.841
1451.0,-8.294,-1.767,3.01,-1.015,-0.223,-0.832
1455.0,-8.294,-1.767,3.01,-1.015,-0.223,-0.832
1459.0,-8.347,-1.845,3.102,-0.841,-0.183,-0.834
1463.0,-8.347,-1.845,3.102,-0.841,-0.183,-0.834
1467.0,-8.347,-1.845,3.102,-0.841,-0.183,-0.834
1471.0,-8.569,-1.854,3.22,-0.595,-0.133,-0.837
1475.0,-8.569,-1.854,3.22,-0.595,-0.133,-0.837
1479.0,-8.944,-1.795,3.31,-0.294,-0.083,-0.816
1483.0,-8.944,-1.795,3.31,-0.294,-0.083,-0.816
1487.0,-8.944,-1.795,3.363,-0.294,-0.083,-0.816
1491.0,-9.288,-1.61,3.363,0.039,-0.037,-0.76
1495.0,-9.288,-1.61,3.363,0.039,-0.037,-0.76
1499.0,-9.598,-1.479,3.349,0.361,-0.003,-0.664
1503.0,-9.598,-1.479,3.349,0.361,-0.003,-0.664
1507.0,-9.739,-1.373,3.281,0.361,-0.003,-0.664
1511.0,-9.739,-1.373,3.281,0.649,0.018,-0.546
1515.0,-9.739,-1.373,3.281,0.649,0.018,-0.546
1519.0,-9.684,-1.294,3.137,0.883,0.031,-0.429
1523.0,-9.684,-1.294,3.137,0.883,0.031,-0.429
1527.0,-9.454,-1.158,2.985,0.883,0.031,-0.429
1531.0,-9.454,-1.158,2.985,1.051,0.042,-0.329
1535.0,-9.454,-1.158,2.985,1.051,0.042,-0.329
1539.0,-9.22,-1.005,2.811,1.145,0.057,-0.25
1543.0,-9.22,-1.005,2.811,1.145,0.057,-0.25
1546.0,-9.22,-1.005,2.687,1.145,0.057,-0.25
1550.0,-9.021,-0.81,2.687,1.175,0.08,-0.19
1554.0,-9.021,-0.81,2.687,1.175,0.08,-0.19
1558.0,-8.94,-0.556,2.574,1.153,0.114,-0.14
1562.0,-8.94,-0.556,2.574,1.153,0.114,-0.14
1566.0,-8.94,-0.556,2.574,1.153,0.114,-0.14
1570.0,-8.946,-0.307,2.519,1.09,0.155,-0.087
1574.0,-8.946,-0.307,2.519,1.09,0.155,-0.087
1578.0,-8.968,-0.115,2.482,0.999,0.202,-0.026
1582.0,-8.968,-0.115,2.482,0.999,0.202,-0.026
1586.0,-8.968,-0.115,2.482,0.999,0.202,-0.026
1589.0,-8.951,-0.011,2.456,0.891,0.249,0.044
1593.0,-8.951,-0.011,2.456,0.891,0.249,0.044
1597.0,-8.901,0.001,2.425,0.773,0.296,0.116
1601.0,-8.901,0.001,2.425,0.773,0.296,0.116
1605.0,-8.901,0.001,2.425,0.773,0.296,0.116
1608.0,-8.855,-0.034,2.411,0.654,0.347,0.181
1612.0,-8.855,-0.034,2.411,0.654,0.347,0.181
1616.0,-8.864,-0.118,2.375,0.654,0.347,0.181
1620.0,-8.864,-0.118,2.375,0.538,0.399,0.236
1624.0,-8.864,-0.118,2.375,0.538,0.399,0.236
1627.0,-8.96,-0.221,2.322,0.421,0.452,0.283
1631.0,-8.96,-0.221,2.322,0.421,0.452,0.283
1635.0,-8.96,-0.221,2.322,0.421,0.452,0.283
1639.0,-9.168,-0.363,2.268,0.302,0.503,0.326
1643.0,-9.168,-0.363,2.268,0.302,0.503,0.326
1646.0,-9.406,-0.495,2.239,0.183,0.548,0.368
1650.0,-9.406,-0.495,2.239,0.183,0.548,0.368
1654.0,-9.406,-0.495,2.239,0.183,0.548,0.368
1658.0,-9.619,-0.63,2.273,0.066,0.582,0.409
1662.0,-9.619,-0.63,2.273,0.066,0.582,0.409
1666.0,-9.77,-0.782,2.273,0.066,0.582,0.443
1669.0,-9.77,-0.782,2.273,-0.043,0.603,0.443
1673.0,-9.77,-0.782,2.273,-0.043,0.603,0.443
1677.0,-9.875,-0.938,2.249,-0.139,0.611,0.464
1681.0,-9.875,-0.938,2.249,-0.139,0.611,0.464
1685.0,-9.971,-1.08,2.212,-0.139,0.611,0.464
1689.0,-9.971,-1.08,2.212,-0.219,0.606,0.473
1693.0,-9.971,-1.08,2.212,-0.219,0.606,0.473
1697.0,-10.034,-1.197,2.195,-0.277,0.592,0.47
1701.0,-10.034,-1.197,2.195,-0.277,0.592,0.47
1705.0,-10.113,-1.305,2.21,-0.277,0.592,0.47
1709.0,-10.113,-1.305,2.21,-0.311,0.57,0.455
1713.0,-10.113,-1.305,2.21,-0.311,0.57,0.455
1717.0,-10.202,-1.347,2.198,-0.319,0.539,0.432
1721.0,-10.202,-1.347,2.198,-0.319,0.539,0.432
1725.0,-10.329,-1.405,2.161,-0.319,0.539,0.41
1729.0,-10.329,-1.405,2.161,-0.314,0.5,0.41
1733.0,-10.329,-1.405,2.161,-0.314,0.5,0.41
1737.0,-10.365,-1.458,2.091,-0.295,0.458,0.39
1741.0,-10.365,-1.458,2.091,-0.295,0.458,0.39
1745.0,-10.293,-1.513,2.03,-0.295,0.418,0.368
1749.0,-10.293,-1.513,2.03,-0.267,0.418,0.368
1753.0,-10.293,-1.513,2.03,-0.267,0.418,0.368
1757.0,-10.207,-1.552,2.006,-0.233,0.383,0.336
1761.0,-10.207,-1.552,2.006,-0.233,0.383,0.336
1765.0,-10.152,-1.598,1.994,-0.195,0.351,0.292
1769.0,-10.152,-1.598,1.994,-0.195,0.351,0.292
1773.0,-10.152,-1.598,1.994,-0.195,0.351,0.292
1777.0,-10.114,-1.616,1.993,-0.154,0.314,0.242
1781.0,-10.114,-1.616,1.993,-0.154,0.314,0.242
1785.0,-10.082,-1.626,1.993,-0.112,0.272,0.185
1789.0,-10.082,-1.626,1.993,-0.112,0.272,0.185
1793.0,-10.082,-1.626,1.993,-0.112,0.272,0.185
1797.0,-10.073,-1.632,1.971,-0.071,0.228,0.127
1801.0,-10.073,-1.632,1.971,-0.071,0.228,0.127
1805.0,-10.044,-1.634,1.943,-0.034,0.183,0.068
1809.0,-10.044,-1.634,1.943,-0.034,0.183,0.068
1813.0,-10.044,-1.634,1.943,-0.034,0.183,0.068
1817.0,-10.064,-1.628,1.894,-0.003,0.141,0.012
1821.0,-10.064,-1.628,1.894,-0.003,0.141,0.012
1825.0,-10.138,-1.616,1.839,0.02,0.106,-0.039
1829.0,-10.138,-1.616,1.839,0.02,0.106,-0.039
1833.0,-10.138,-1.616,1.839,0.02,0.106,-0.039
1836.0,-10.27,-1.598,1.798,0.031,0.077,-0.083
1840.0,-10.27,-1.598,1.798,0.031,0.077,-0.083
1844.0,-10.397,-1.588,1.811,0.033,0.049,-0.119
1848.0,-10.397,-1.588,1.811,0.033,0.049,-0.119
1852.0,-10.397,-1.588,1.822,0.033,0.049,-0.119
1856.0,-10.47,-1.57,1.822,0.025,0.018,-0.145
1860.0,-10.47,-1.57,1.822,0.025,0.018,-0.145
1864.0,-10.487,-1.552,1.814,0.009,-0.016,-0.165
1869.0,-10.487,-1.552,1.814,0.009,-0.016,-0.165
1873.0,-10.474,-1.506,1.794,0.009,-0.016,-0.165
1877.0,-10.474,-1.506,1.794,-0.016,-0.052,-0.186
1881.0,-10.474,-1.506,1.794,-0.016,-0.052,-0.186
1885.0,-10.424,-1.47,1.737,-0.047,-0.086,-0.208
1889.0,-10.424,-1.47,1.737,-0.047,-0.086,-0.208
1893.0,-10.366,-1.401,1.671,-0.086,-0.115,-0.232
1898.0,-10.366,-1.401,1.671,-0.086,-0.115,-0.232
1902.0,-10.366,-1.401,1.671,-0.086,-0.115,-0.232
1906.0,-10.317,-1.353,1.621,-0.131,-0.139,-0.26
1910.0,-10.317,-1.353,1.621,-0.131,-0.139,-0.26
1914.0,-10.282,-1.287,1.564,-0.179,-0.157,-0.289
1918.0,-10.282,-1.287,1.564,-0.179,-0.157,-0.289
1923.0,-10.278,-1.25,1.521,-0.228,-0.169,-0.318
1927.0,-10.278,-1.25,1.521,-0.228,-0.169,-0.318
1931.0,-10.278,-1.25,1.521,-0.228,-0.169,-0.318
1935.0,-10.317,-1.261,1.478,-0.277,-0.171,-0.348
1939.0,-10.317,-1.261,1.478,-0.277,-0.171,-0.348
1943.0,-10.375,-1.292,1.47,-0.321,-0.165,-0.376
1948.0,-10.375,-1.292,1.47,-0.321,-0.165,-0.376
1952.0,-10.392,-1.334,1.491,-0.321,-0.165,-0.376
1956.0,-10.392,-1.334,1.491,-0.356,-0.156,-0.401
1960.0,-10.392,-1.334,1.491,-0.356,-0.156,-0.401
1964.0,-10.33,-1.371,1.534,-0.381,-0.144,-0.423
1968.0,-10.33,-1.371,1.534,-0.381,-0.144,-0.423
1973.0,-10.156,-1.412,1.601,-0.392,-0.134,-0.442
1977.0,-10.156,-1.412,1.601,-0.392,-0.134,-0.442
1981.0,-10.156,-1.412,1.649,-0.392,-0.134,-0.442
1985.0,-9.87,-1.458,1.649,-0.39,-0.125,-0.46
1989.0,-9.87,-1.458,1.649,-0.39,-0.125,-0.46
1993.0,-9.544,-1.499,1.673,-0.375,-0.114,-0.478
1997.0,-9.544,-1.499,1.673,-0.375,-0.114,-0.478
2001.0,-9.239,-1.521,1.677,-0.375,-0.098,-0.495
2005.0,-9.239,-1.521,1.677,-0.35,-0.098,-0.495
2010.0,-9.239,-1.521,1.677,-0.35,-0.098,-0.495
2014.0,-9.023,-1.564,1.659,-0.314,-0.074,-0.509
2018.0,-9.023,-1.564,1.659,-0.314,-0.074,-0.509
2022.0,-8.879,-1.603,1.676,-0.268,-0.041,-0.516
2026.0,-8.879,-1.603,1.676,-0.268,-0.041,-0.516
2030.0,-8.879,-1.603,1.676,-0.268,-0.041,-0.516
2034.0,-8.752,-1.653,1.694,-0.212,-0.005,-0.514
2038.0,-8.752,-1.653,1.694,-0.212,-0.005,-0.514
2042.0,-8.641,-1.716,1.747,-0.143,0.027,-0.501
2046.0,-8.641,-1.716,1.747,-0.143,0.027,-0.501
2050.0,-8.641,-1.791,1.784,-0.143,0.027,-0.501
2054.0,-8.562,-1.791,1.784,-0.062,0.057,-0.479
2058.0,-8.562,-1.791,1.784,-0.062,0.057,-0.479
2062.0,-8.557,-1.873,1.767,0.031,0.087,-0.447
2066.0,-8.557,-1.873,1.767,0.031,0.087,-0.447
2070.0,-8.704,-1.947,1.745,0.031,0.087,-0.447
2074.0,-8.704,-1.947,1.745,0.133,0.123,-0.407
2078.0,-8.704,-1.947,1.745,0.133,0.123,-0.407
2082.0,-8.996,-2.011,1.729,0.24,0.168,-0.354
2086.0,-8.996,-2.011,1.729,0.24,0.168,-0.354
2089.0,-8.996,-2.011,1.778,0.24,0.168,-0.354
2093.0,-9.353,-2.088,1.778,0.353,0.214,-0.288
2097.0,-9.353,-2.088,1.778,0.353,0.214,-0.288
2101.0,-9.734,-2.174,1.875,0.47,0.253,-0.209
2105.0,-9.734,-2.174,1.875,0.47,0.253,-0.209
2109.0,-9.734,-2.174,1.875,0.47,0.253,-0.209
2113.0,-10.029,-2.235,1.963,0.593,0.278,-0.125
2117.0,-10.029,-2.235,1.963,0.593,0.278,-0.125
2121.0,-10.055,-2.268,2.033,0.717,0.278,-0.042
2125.0,-10.055,-2.268,2.033,0.717,0.278,-0.042
2129.0,-10.055,-2.268,2.047,0.717,0.278,-0.042
2133.0,-9.833,-2.251,2.047,0.842,0.261,0.026
2137.0,-9.833,-2.251,2.047,0.842,0.261,0.026
2140.0,-9.482,-2.153,1.988,0.963,0.24,0.072
2144.0,-9.482,-2.153,1.988,0.963,0.24,0.072
2148.0,-9.482,-2.153,1.988,0.963,0.24,0.072
2152.0,-9.131,-2.02,1.852,1.076,0.225,0.099
2156.0,-9.131,-2.02,1.852,1.076,0.225,0.099
2160.0,-8.941,-1.875,1.717,1.174,0.223,0.111
2163.0,-8.941,-1.875,1.717,1.174,0.223,0.111
2167.0,-8.941,-1.875,1.717,1.174,0.223,0.111
2171.0,-8.917,-1.744,1.612,1.257,0.234,0.116
2175.0,-8.917,-1.744,1.612,1.257,0.234,0.116
2179.0,-9.068,-1.633,1.563,1.257,0.234,0.116
2183.0,-9.068,-1.633,1.563,1.324,0.247,0.121
2186.0,-9.068,-1.633,1.563,1.324,0.247,0.121
2190.0,-9.28,-1.556,1.576,1.377,0.258,0.131
2194.0,-9.28,-1.556,1.576,1.377,0.258,0.131
2198.0,-9.28,-1.556,1.576,1.377,0.258,0.131
2202.0,-9.511,-1.519,1.603,1.417,0.261,0.149
2205.0,-9.511,-1.519,1.603,1.417,0.261,0.149
2209.0,-9.751,-1.536,1.656,1.45,0.253,0.17
2213.0,-9.751,-1.536,1.656,1.45,0.253,0.17
2217.0,-9.751,-1.536,1.656,1.45,0.253,0.17
2221.0,-10.016,-1.564,1.692,1.471,0.238,0.189
2225.0,-10.016,-1.564,1.692,1.471,0.238,0.189
2229.0,-10.378,-1.534,1.707,1.48,0.215,0.201
2232.0,-10.378,-1.534,1.707,1.48,0.215,0.201
2236.0,-10.378,-1.534,1.707,1.48,0.215,0.201
2240.0,-10.702,-1.525,1.733,1.482,0.188,0.213
2244.0,-10.702,-1.525,1.733,1.482,0.188,0.213
2248.0,-10.805,-1.453,1.721,1.482,0.15,0.223
2252.0,-10.805,-1.453,1.721,1.477,0.15,0.223
2256.0,-10.805,-1.453,1.721,1.477,0.15,0.223
2260.0,-10.779,-1.365,1.694,1.458,0.102,0.219
2264.0,-10.779,-1.365,1.694,1.458,0.102,0.219
2268.0,-10.716,-1.25,1.64,1.458,0.102,0.219
2271.0,-10.716,-1.25,1.64,1.426,0.053,0.204
2275.0,-10.716,-1.25,1.64,1.426,0.053,0.204
2279.0,-10.623,-1.138,1.586,1.381,0.005,0.18
2283.0,-10.623,-1.138,1.586,1.381,0.005,0.18
2287.0,-10.505,-1.024,1.554,1.381,0.005,0.18
2291.0,-10.505,-1.024,1.554,1.324,-0.039,0.151
2295.0,-10.505,-1.024,1.554,1.324,-0.039,0.151
2299.0,-10.39,-0.909,1.518,1.258,-0.081,0.118
2303.0,-10.39,-0.909,1.518,1.258,-0.081,0.118
2307.0,-10.305,-0.79,1.5,1.258,-0.081,0.118
2311.0,-10.305,-0.79,1.5,1.183,-0.122,0.082
2315.0,-10.305,-0.79,1.5,1.183,-0.122,0.082
2319.0,-10.234,-0.681,1.483,1.098,-0.162,0.041
2323.0,-10.234,-0.681,1.483,1.098,-0.162,0.041
2327.0,-10.157,-0.615,1.468,1.098,-0.162,-0.002
2331.0,-10.157,-0.615,1.468,1.003,-0.203,-0.002
2335.0,-10.157,-0.615,1.468,1.003,-0.203,-0.002
2339.0,-10.11,-0.551,1.457,0.9,-0.242,-0.045
2343.0,-10.11,-0.551,1.457,0.9,-0.242,-0.045
2347.0,-10.039,-0.511,1.44,0.789,-0.278,-0.086
2351.0,-10.039,-0.511,1.44,0.789,-0.278,-0.086
2356.0,-10.039,-0.511,1.44,0.789,-0.278,-0.086
2360.0,-9.967,-0.491,1.463,0.67,-0.311,-0.122
2364.0,-9.967,-0.491,1.463,0.67,-0.311,-0.122
2368.0,-9.884,-0.498,1.455,0.545,-0.34,-0.154
2372.0,-9.884,-0.498,1.455,0.545,-0.34,-0.154
2376.0,-9.884,-0.498,1.455,0.545,-0.34,-0.154
2380.0,-9.843,-0.525,1.442,0.417,-0.361,-0.179
2384.0,-9.843,-0.525,1.442,0.417,-0.361,-0.179
2388.0,-9.878,-0.569,1.437,0.289,-0.374,-0.195
2392.0,-9.878,-0.569,1.437,0.289,-0.374,-0.195
2396.0,-9.878,-0.569,1.466,0.289,-0.374,-0.195
2400.0,-9.943,-0.613,1.466,0.166,-0.38,-0.2
2404.0,-9.943,-0.613,1.466,0.166,-0.38,-0.2
2407.0,-10.027,-0.679,1.487,0.051,-0.384,-0.194
2412.0,-10.027,-0.679,1.487,0.051,-0.384,-0.194
2416.0,-10.024,-0.761,1.548,0.051,-0.384,-0.194
2420.0,-10.024,-0.761,1.548,-0.053,-0.389,-0.177
2424.0,-10.024,-0.761,1.548,-0.053,-0.389,-0.177
2428.0,-9.9,-0.844,1.581,-0.144,-0.398,-0.154
2432.0,-9.9,-0.844,1.581,-0.144,-0.398,-0.154
2436.0,-9.69,-0.913,1.603,-0.223,-0.409,-0.131
2440.0,-9.69,-0.913,1.603,-0.223,-0.409,-0.131
2444.0,-9.69,-0.913,1.603,-0.223,-0.409,-0.131
2448.0,-9.467,-0.98,1.595,-0.289,-0.417,-0.111
2453.0,-9.467,-0.98,1.595,-0.289,-0.417,-0.111
2457.0,-9.304,-1.028,1.551,-0.342,-0.417,-0.094
2461.0,-9.304,-1.028,1.551,-0.342,-0.417,-0.094
2465.0,-9.213,-1.061,1.5,-0.342,-0.417,-0.094
2469.0,-9.213,-1.061,1.5,-0.386,-0.406,-0.078
2473.0,-9.213,-1.061,1.5,-0.386,-0.406,-0.078
2477.0,-9.144,-1.098,1.489,-0.42,-0.387,-0.059
2481.0,-9.144,-1.098,1.489,-0.42,-0.387,-0.059
2485.0,-9.161,-1.142,1.51,-0.445,-0.366,-0.036
2489.0,-9.161,-1.142,1.51,-0.445,-0.366,-0.036
2493.0,-9.161,-1.142,1.51,-0.445,-0.366,-0.036
2497.0,-9.251,-1.196,1.543,-0.46,-0.344,-0.008
2502.0,-9.251,-1.196,1.543,-0.46,-0.344,-0.008
2506.0,-9.345,-1.244,1.596,-0.466,-0.321,0.022
2510.0,-9.345,-1.244,1.596,-0.466,-0.321,0.022
2514.0,-9.345,-1.244,1.596,-0.466,-0.321,0.022
2518.0,-9.395,-1.296,1.624,-0.467,-0.302,0.053
2522.0,-9.395,-1.296,1.624,-0.467,-0.302,0.053
2526.0,-9.327,-1.339,1.665,-0.462,-0.285,0.085
2530.0,-9.327,-1.339,1.665,-0.462,-0.285,0.085
2534.0,-9.327,-1.339,1.714,-0.462,-0.285,0.085
2538.0,-9.206,-1.379,1.714,-0.454,-0.268,0.113
2542.0,-9.206,-1.379,1.714,-0.454,-0.268,0.113
2546.0,-9.109,-1.403,1.733,-0.439,-0.248,0.134
2550.0,-9.109,-1.403,1.733,-0.439,-0.248,0.134
2554.0,-9.109,-1.414,1.717,-0.439,-0.248,0.134
2557.0,-9.054,-1.414,1.717,-0.42,-0.225,0.15
2561.0,-9.054,-1.414,1.717,-0.42,-0.225,0.15
2565.0,-9.039,-1.418,1.712,-0.395,-0.202,0.16
2569.0,-9.039,-1.418,1.712,-0.395,-0.202,0.16
2573.0,-9.044,-1.436,1.698,-0.395,-0.202,0.16
2577.0,-9.044,-1.436,1.698,-0.367,-0.177,0.166
2581.0,-9.044,-1.436,1.698,-0.367,-0.177,0.166
2585.0,-9.093,-1.423,1.681,-0.334,-0.152,0.172
2589.0,-9.093,-1.423,1.681,-0.334,-0.152,0.172
2593.0,-9.164,-1.434,1.685,-0.334,-0.152,0.178
2597.0,-9.164,-1.434,1.685,-0.301,-0.127,0.178
2601.0,-9.164,-1.434,1.685,-0.301,-0.127,0.178
2605.0,-9.217,-1.451,1.71,-0.266,-0.102,0.188
2609.0,-9.217,-1.451,1.71,-0.266,-0.102,0.188
2613.0,-9.237,-1.473,1.752,-0.266,-0.082,0.199
2617.0,-9.237,-1.473,1.752,-0.23,-0.082,0.199
2621.0,-9.237,-1.473,1.752,-0.23,-0.082,0.199
2625.0,-9.185,-1.488,1.765,-0.193,-0.067,0.208
2629.0,-9.185,-1.488,1.765,-0.193,-0.067,0.208
2633.0,-9.2,-1.481,1.77,-0.156,-0.05,0.216
2637.0,-9.2,-1.481,1.77,-0.156,-0.05,0.216
2641.0,-9.2,-1.481,1.77,-0.156,-0.05,0.216
2645.0,-9.242,-1.449,1.769,-0.121,-0.031,0.221
2649.0,-9.242,-1.449,1.769,-0.121,-0.031,0.221
2653.0,-9.351,-1.439,1.762,-0.093,-0.008,0.23
2657.0,-9.351,-1.439,1.762,-0.093,-0.008,0.23
2661.0,-9.351,-1.439,1.762,-0.093,-0.008,0.23
2665.0,-9.449,-1.423,1.787,-0.07,0.013,0.243
2669.0,-9.449,-1.423,1.787,-0.07,0.013,0.243
2673.0,-9.502,-1.408,1.805,-0.052,0.029,0.256
2677.0,-9.502,-1.408,1.805,-0.052,0.029,0.256
2681.0,-9.502,-1.408,1.805,-0.052,0.029,0.256
2685.0,-9.573,-1.394,1.791,-0.04,0.043,0.268
2689.0,-9.573,-1.394,1.791,-0.04,0.043,0.268
2693.0,-9.624,-1.351,1.793,-0.033,0.058,0.277
2697.0,-9.624,-1.351,1.793,-0.033,0.058,0.277
2700.0,-9.624,-1.351,1.793,-0.033,0.058,0.277
2704.0,-9.608,-1.308,1.812,-0.033,0.071,0.285
2708.0,-9.608,-1.308,1.812,-0.033,0.071,0.285
2712.0,-9.483,-1.274,1.819,-0.033,0.079,0.29
2716.0,-9.483,-1.274,1.819,-0.039,0.079,0.29
2720.0,-9.483,-1.274,1.819,-0.039,0.079,0.29
2724.0,-9.302,-1.228,1.807,-0.052,0.084,0.289
2728.0,-9.302,-1.228,1.807,-0.052,0.084,0.289
2732.0,-9.187,-1.192,1.765,-0.052,0.084,0.278
2736.0,-9.187,-1.192,1.765,-0.069,0.093,0.278
2740.0,-9.187,-1.192,1.765,-0.069,0.093,0.278
2743.0,-9.166,-1.152,1.709,-0.09,0.109,0.261
2747.0,-9.166,-1.152,1.709,-0.09,0.109,0.261
2751.0,-9.254,-1.12,1.69,-0.09,0.109,0.261
2755.0,-9.254,-1.12,1.69,-0.117,0.132,0.24
2759.0,-9.254,-1.12,1.69,-0.117,0.132,0.24
2763.0,-9.435,-1.101,1.717,-0.147,0.16,0.222
2767.0,-9.435,-1.101,1.717,-0.147,0.16,0.222
2771.0,-9.435,-1.122,1.768,-0.147,0.16,0.222
2775.0,-9.651,-1.122,1.768,-0.179,0.187,0.21
2779.0,-9.651,-1.122,1.768,-0.179,0.187,0.21
2782.0,-9.808,-1.168,1.853,-0.212,0.213,0.205
2786.0,-9.808,-1.168,1.853,-0.212,0.213,0.205
2790.0,-9.808,-1.168,1.953,-0.212,0.213,0.205
2794.0,-9.87,-1.224,1.953,-0.243,0.233,0.208
2798.0,-9.87,-1.224,1.953,-0.243,0.233,0.208
2802.0,-9.783,-1.301,2.033,-0.268,0.248,0.213
2806.0,-9.783,-1.301,2.033,-0.268,0.248,0.213
2810.0,-9.783,-1.301,2.033,-0.268,0.248,0.213
2814.0,-9.606,-1.367,2.057,-0.283,0.261,0.222
2818.0,-9.606,-1.367,2.057,-0.283,0.261,0.222
2822.0,-9.364,-1.401,2.069,-0.287,0.273,0.23
2825.0,-9.364,-1.401,2.069,-0.287,0.273,0.23
2829.0,-9.364,-1.401,2.069,-0.287,0.273,0.23
2833.0,-9.151,-1.429,2.086,-0.282,0.286,0.237
2837.0,-9.151,-1.429,2.086,-0.282,0.286,0.237
2841.0,-8.949,-1.449,2.091,-0.267,0.298,0.248
2845.0,-8.949,-1.449,2.091,-0.267,0.298,0.248
2849.0,-8.949,-1.449,2.091,-0.267,0.298,0.248
2853.0,-8.831,-1.457,2.056,-0.247,0.312,0.261
2857.0,-8.831,-1.457,2.056,-0.247,0.312,0.261
2861.0,-8.831,-1.488,2.045,-0.229,0.332,0.277
2865.0,-8.831,-1.488,2.045,-0.229,0.332,0.277
2868.0,-8.831,-1.488,2.045,-0.229,0.332,0.277
2872.0,-8.954,-1.51,2.075,-0.214,0.359,0.299
2876.0,-8.954,-1.51,2.075,-0.214,0.359,0.299
2880.0,-9.083,-1.572,2.174,-0.199,0.386,0.33
2884.0,-9.083,-1.572,2.174,-0.199,0.386,0.33
2888.0,-9.083,-1.572,2.174,-0.199,0.386,0.33
2892.0,-9.205,-1.634,2.274,-0.183,0.406,0.367
2896.0,-9.205,-1.634,2.274,-0.183,0.406,0.367
2900.0,-9.275,-1.704,2.355,-0.183,0.42,0.407
2904.0,-9.275,-1.704,2.355,-0.165,0.42,0.407
2907.0,-9.275,-1.704,2.355,-0.165,0.42,0.407
2911.0,-9.313,-1.741,2.413,-0.143,0.432,0.446
2915.0,-9.313,-1.741,2.413,-0.143,0.432,0.446
2919.0,-9.343,-1.774,2.453,-0.143,0.432,0.482
2923.0,-9.343,-1.774,2.453,-0.118,0.444,0.482
2927.0,-9.343,-1.774,2.453,-0.118,0.444,0.482
2931.0,-9.4,-1.813,2.446,-0.088,0.455,0.517
2935.0,-9.4,-1.813,2.446,-0.088,0.455,0.517
2939.0,-9.468,-1.852,2.472,-0.088,0.455,0.517
2943.0,-9.468,-1.852,2.472,-0.052,0.465,0.547
2947.0,-9.468,-1.852,2.472,-0.052,0.465,0.547
2950.0,-9.559,-1.9,2.497,-0.01,0.47,0.573
2954.0,-9.559,-1.9,2.497,-0.01,0.47,0.573
2958.0,-9.559,-1.933,2.533,-0.01,0.47,0.573
2962.0,-9.611,-1.933,2.533,0.036,0.465,0.592
2966.0,-9.611,-1.933,2.533,0.036,0.465,0.592
2970.0,-9.642,-1.964,2.568,0.086,0.452,0.602
2974.0,-9.642,-1.964,2.568,0.086,0.452,0.602
2977.0,-9.642,-1.964,2.568,0.086,0.452,0.602
2981.0,-9.737,-1.997,2.576,0.137,0.435,0.599
2985.0,-9.737,-1.997,2.576,0.137,0.435,0.599
2989.0,-9.89,-2.021,2.593,0.187,0.417,0.582
2993.0,-9.89,-2.021,2.593,0.187,0.417,0.582
2997.0,-9.89,-2.021,2.593,0.187,0.417,0.582
3000.0,-10.056,-2.026,2.628,0.236,0.392,0.553
