deltaTime,Acc_X,Acc_Y,Acc_Z,Gyro_X,Gyro_Y,Gyro_Z
0.0,-10.29,-2.35,7.317,0.767,-0.009,-0.138
3.0,-10.29,-2.35,7.317,0.767,-0.009,-0.138
6.0,-10.29,-2.35,7.317,0.767,-0.009,-0.138
9.0,-10.376,-2.5,7.091,0.89,-0.064,-0.14
12.0,-10.376,-2.5,7.091,0.89,-0.064,-0.14
15.0,-10.376,-2.5,7.091,0.89,-0.064,-0.14
18.0,-10.338,-2.529,6.845,1.012,-0.087,-0.148
21.0,-10.338,-2.529,6.845,1.012,-0.087,-0.148
24.0,-10.338,-2.529,6.845,1.012,-0.087,-0.148
27.0,-10.044,-2.486,6.629,1.012,-0.131,-0.159
30.0,-10.044,-2.486,6.629,1.134,-0.131,-0.159
34.0,-10.044,-2.486,6.629,1.134,-0.131,-0.159
38.0,-9.881,-2.197,6.423,1.236,-0.165,-0.178
42.0,-9.881,-2.197,6.423,1.236,-0.165,-0.178
46.0,-9.881,-2.197,6.423,1.236,-0.165,-0.178
50.0,-10.33,-1.895,6.25,1.28,-0.123,-0.193
54.0,-10.33,-1.895,6.25,1.28,-0.123,-0.193
58.0,-10.454,-1.561,6.24,1.279,-0.123,-0.211
61.0,-10.454,-1.561,6.24,1.279,-0.123,-0.211
65.0,-10.454,-1.561,6.24,1.279,-0.123,-0.211
69.0,-10.389,-1.497,6.238,1.228,-0.129,-0.23
73.0,-10.389,-1.497,6.238,1.228,-0.129,-0.23
77.0,-10.126,-1.63,6.246,1.16,-0.137,-0.255
81.0,-10.126,-1.63,6.246,1.16,-0.137,-0.255
85.0,-10.126,-1.63,6.246,1.16,-0.137,-0.255
89.0,-9.806,-1.63,6.168,1.105,-0.131,-0.291
93.0,-9.806,-1.63,6.168,1.105,-0.131,-0.291
96.0,-9.714,-1.365,6.127,1.054,-0.109,-0.338
100.0,-9.714,-1.365,6.127,1.054,-0.109,-0.338
104.0,-9.714,-1.365,6.127,1.054,-0.109,-0.338
108.0,-9.745,-1.083,6.027,0.979,-0.082,-0.378
112.0,-9.745,-1.083,6.027,0.979,-0.082,-0.378
116.0,-9.664,-0.742,5.874,0.979,-0.082,-0.402
120.0,-9.664,-0.742,5.874,0.875,-0.061,-0.402
124.0,-9.664,-0.742,5.874,0.875,-0.061,-0.402
128.0,-9.68,-0.672,5.785,0.745,-0.044,-0.414
131.0,-9.68,-0.672,5.785,0.745,-0.044,-0.414
135.0,-9.799,-0.858,5.826,0.745,-0.044,-0.414
139.0,-9.799,-0.858,5.826,0.63,-0.033,-0.415
143.0,-9.799,-0.858,5.826,0.63,-0.033,-0.415
147.0,-9.942,-1.233,5.969,0.571,-0.043,-0.411
151.0,-9.942,-1.233,5.969,0.571,-0.043,-0.411
155.0,-10.05,-1.543,5.957,0.571,-0.043,-0.411
159.0,-10.05,-1.543,5.957,0.595,-0.075,-0.407
163.0,-10.05,-1.543,5.957,0.595,-0.075,-0.407
167.0,-10.003,-1.496,5.776,0.672,-0.116,-0.432
171.0,-10.003,-1.496,5.776,0.672,-0.116,-0.432
175.0,-10.115,-1.214,5.626,0.672,-0.116,-0.432
179.0,-10.115,-1.214,5.626,0.746,-0.164,-0.493
183.0,-10.115,-1.214,5.626,0.746,-0.164,-0.493
187.0,-10.321,-0.929,5.503,0.797,-0.219,-0.556
191.0,-10.321,-0.929,5.503,0.797,-0.219,-0.556
195.0,-10.301,-0.472,5.341,0.797,-0.282,-0.604
199.0,-10.301,-0.472,5.341,0.813,-0.282,-0.604
203.0,-10.301,-0.472,5.341,0.813,-0.282,-0.604
207.0,-10.286,-0.346,5.316,0.776,-0.329,-0.641
211.0,-10.286,-0.346,5.316,0.776,-0.329,-0.641
215.0,-10.291,-0.263,5.27,0.729,-0.353,-0.655
219.0,-10.291,-0.263,5.27,0.729,-0.353,-0.655
223.0,-10.291,-0.263,5.27,0.729,-0.353,-0.655
227.0,-10.18,0.06,5.215,0.666,-0.369,-0.663
231.0,-10.18,0.06,5.215,0.666,-0.369,-0.663
235.0,-9.949,0.449,5.114,0.547,-0.388,-0.678
238.0,-9.949,0.449,5.114,0.547,-0.388,-0.678
242.0,-9.949,0.449,5.114,0.547,-0.388,-0.678
246.0,-9.555,0.776,4.912,0.377,-0.425,-0.691
250.0,-9.555,0.776,4.912,0.377,-0.425,-0.691
254.0,-9.52,1.011,4.703,0.377,-0.425,-0.691
258.0,-9.52,1.011,4.703,0.166,-0.473,-0.694
261.0,-9.52,1.011,4.703,0.166,-0.473,-0.694
265.0,-9.712,1.17,4.461,-0.063,-0.526,-0.694
269.0,-9.712,1.17,4.461,-0.063,-0.526,-0.694
273.0,-9.712,1.17,4.461,-0.063,-0.526,-0.694
277.0,-9.725,1.254,4.183,-0.301,-0.597,-0.691
281.0,-9.725,1.254,4.183,-0.301,-0.597,-0.691
285.0,-9.156,0.961,3.924,-0.53,-0.662,-0.68
289.0,-9.156,0.961,3.924,-0.53,-0.662,-0.68
293.0,-9.156,0.961,3.924,-0.53,-0.662,-0.68
296.0,-8.678,0.62,3.662,-0.708,-0.696,-0.653
300.0,-8.678,0.62,3.662,-0.708,-0.696,-0.653
304.0,-8.463,0.31,3.418,-0.824,-0.704,-0.623
308.0,-8.463,0.31,3.418,-0.824,-0.704,-0.623
312.0,-8.463,0.31,3.418,-0.824,-0.704,-0.623
316.0,-8.384,0.031,3.267,-0.886,-0.694,-0.6
320.0,-8.384,0.031,3.267,-0.886,-0.694,-0.6
324.0,-8.309,-0.151,3.193,-0.901,-0.671,-0.582
328.0,-8.309,-0.151,3.193,-0.901,-0.671,-0.582
332.0,-8.309,-0.151,3.193,-0.901,-0.671,-0.582
336.0,-8.195,-0.254,3.115,-0.878,-0.639,-0.562
340.0,-8.195,-0.254,3.115,-0.878,-0.639,-0.562
344.0,-8.144,-0.243,3.115,-0.83,-0.599,-0.533
348.0,-8.144,-0.243,3.115,-0.83,-0.599,-0.533
352.0,-8.144,-0.243,3.115,-0.83,-0.599,-0.533
356.0,-8.18,-0.173,3.145,-0.766,-0.561,-0.493
360.0,-8.18,-0.173,3.145,-0.766,-0.561,-0.493
364.0,-8.225,-0.11,3.108,-0.699,-0.532,-0.439
368.0,-8.225,-0.11,3.108,-0.699,-0.532,-0.439
372.0,-8.225,-0.11,3.108,-0.699,-0.532,-0.439
376.0,-8.257,-0.03,3.018,-0.64,-0.512,-0.377
380.0,-8.257,-0.03,3.018,-0.64,-0.512,-0.377
384.0,-8.309,0.056,2.885,-0.602,-0.492,-0.31
388.0,-8.309,0.056,2.885,-0.602,-0.492,-0.31
391.0,-8.309,0.056,2.731,-0.602,-0.492,-0.31
395.0,-8.317,0.105,2.731,-0.592,-0.462,-0.244
399.0,-8.317,0.105,2.731,-0.592,-0.462,-0.244
403.0,-8.212,0.164,2.552,-0.609,-0.43,-0.182
407.0,-8.212,0.164,2.552,-0.609,-0.43,-0.182
411.0,-8.212,0.164,2.552,-0.609,-0.43,-0.182
415.0,-7.932,0.239,2.414,-0.651,-0.399,-0.127
419.0,-7.932,0.239,2.414,-0.651,-0.399,-0.127
423.0,-7.737,0.361,2.365,-0.716,-0.366,-0.08
427.0,-7.737,0.361,2.365,-0.716,-0.366,-0.08
431.0,-7.737,0.361,2.365,-0.716,-0.366,-0.08
434.0,-7.758,0.444,2.333,-0.801,-0.337,-0.034
438.0,-7.758,0.444,2.333,-0.801,-0.337,-0.034
442.0,-7.948,0.509,2.295,-0.903,-0.313,0.021
446.0,-7.948,0.509,2.295,-0.903,-0.313,0.021
450.0,-7.948,0.509,2.295,-0.903,-0.313,0.021
454.0,-8.206,0.546,2.296,-1.017,-0.298,0.083
458.0,-8.206,0.546,2.296,-1.017,-0.298,0.083
461.0,-8.481,0.553,2.338,-1.017,-0.297,0.152
465.0,-8.481,0.553,2.338,-1.142,-0.297,0.152
469.0,-8.481,0.553,2.338,-1.142,-0.297,0.152
473.0,-8.713,0.477,2.333,-1.267,-0.315,0.22
477.0,-8.713,0.477,2.333,-1.267,-0.315,0.22
480.0,-8.713,0.477,2.261,-1.267,-0.315,0.22
484.0,-8.855,0.355,2.261,-1.38,-0.344,0.279
488.0,-8.855,0.355,2.261,-1.38,-0.344,0.279
492.0,-8.905,0.345,2.152,-1.482,-0.388,0.327
496.0,-8.905,0.345,2.152,-1.482,-0.388,0.327
500.0,-8.905,0.345,2.152,-1.482,-0.388,0.327
503.0,-9.066,0.465,1.962,-1.591,-0.438,0.365
507.0,-9.066,0.465,1.962,-1.591,-0.438,0.365
511.0,-9.181,0.6,1.689,-1.723,-0.484,0.398
515.0,-9.181,0.6,1.689,-1.723,-0.484,0.398
519.0,-9.181,0.6,1.689,-1.723,-0.484,0.398
522.0,-9.003,0.672,1.463,-1.891,-0.526,0.424
526.0,-9.003,0.672,1.463,-1.891,-0.526,0.424
530.0,-8.673,0.767,1.293,-1.891,-0.526,0.424
534.0,-8.673,0.767,1.293,-2.093,-0.567,0.427
538.0,-8.673,0.767,1.293,-2.093,-0.567,0.427
542.0,-8.512,0.861,1.133,-2.325,-0.6,0.406
545.0,-8.512,0.861,1.133,-2.325,-0.6,0.406
549.0,-8.512,0.861,1.133,-2.325,-0.6,0.406
553.0,-8.434,0.888,0.987,-2.583,-0.612,0.37
557.0,-8.434,0.888,0.987,-2.583,-0.612,0.37
561.0,-8.32,0.828,0.899,-2.855,-0.603,0.331
564.0,-8.32,0.828,0.899,-2.855,-0.603,0.331
568.0,-8.32,0.828,0.899,-2.855,-0.603,0.331
572.0,-8.171,0.698,0.886,-3.125,-0.575,0.296
576.0,-8.171,0.698,0.886,-3.125,-0.575,0.296
580.0,-8.153,0.542,0.9,-3.125,-0.575,0.274
584.0,-8.153,0.542,0.9,-3.377,-0.538,0.274
587.0,-8.153,0.542,0.9,-3.377,-0.538,0.274
591.0,-8.294,0.286,0.877,-3.606,-0.497,0.268
595.0,-8.294,0.286,0.877,-3.606,-0.497,0.268
599.0,-8.294,0.286,0.828,-3.606,-0.497,0.268
603.0,-8.457,-0.028,0.828,-3.798,-0.457,0.278
607.0,-8.457,-0.028,0.828,-3.798,-0.457,0.278
610.0,-8.733,-0.288,0.773,-3.946,-0.42,0.308
614.0,-8.733,-0.288,0.773,-3.946,-0.42,0.308
618.0,-8.733,-0.288,0.773,-3.946,-0.42,0.308
622.0,-9.075,-0.512,0.73,-4.053,-0.389,0.366
626.0,-9.075,-0.512,0.73,-4.053,-0.389,0.366
630.0,-9.373,-0.744,0.659,-4.127,-0.374,0.454
634.0,-9.373,-0.744,0.659,-4.127,-0.374,0.454
638.0,-9.373,-0.744,0.659,-4.127,-0.374,0.454
642.0,-9.515,-1.042,0.61,-4.173,-0.381,0.563
646.0,-9.515,-1.042,0.61,-4.173,-0.381,0.563
650.0,-9.52,-1.334,0.589,-4.191,-0.4,0.679
653.0,-9.52,-1.334,0.589,-4.191,-0.4,0.679
657.0,-9.52,-1.334,0.589,-4.191,-0.4,0.679
661.0,-9.441,-1.594,0.633,-4.179,-0.418,0.791
665.0,-9.441,-1.594,0.633,-4.179,-0.418,0.791
669.0,-9.439,-1.795,0.732,-4.141,-0.435,0.896
673.0,-9.439,-1.795,0.732,-4.141,-0.435,0.896
677.0,-9.439,-1.795,0.732,-4.141,-0.435,0.896
681.0,-9.575,-1.936,0.808,-4.087,-0.452,0.998
685.0,-9.575,-1.936,0.808,-4.087,-0.452,0.998
689.0,-9.715,-2.028,0.855,-4.022,-0.462,1.1
692.0,-9.715,-2.028,0.855,-4.022,-0.462,1.1
696.0,-9.715,-2.028,0.855,-4.022,-0.462,1.1
700.0,-9.817,-2.126,0.976,-3.957,-0.46,1.206
704.0,-9.817,-2.126,0.976,-3.957,-0.46,1.206
708.0,-9.953,-2.227,1.034,-3.957,-0.456,1.315
712.0,-9.953,-2.227,1.034,-3.897,-0.456,1.315
716.0,-9.953,-2.227,1.034,-3.897,-0.456,1.315
720.0,-10.086,-2.313,1.057,-3.845,-0.452,1.423
724.0,-10.086,-2.313,1.057,-3.845,-0.452,1.423
728.0,-10.088,-2.451,1.159,-3.845,-0.452,1.525
732.0,-10.088,-2.451,1.159,-3.799,-0.45,1.525
736.0,-10.088,-2.451,1.159,-3.799,-0.45,1.525
740.0,-9.959,-2.583,1.223,-3.753,-0.462,1.616
744.0,-9.959,-2.583,1.223,-3.753,-0.462,1.616
748.0,-9.79,-2.67,1.234,-3.753,-0.486,1.692
752.0,-9.79,-2.67,1.234,-3.707,-0.486,1.692
755.0,-9.79,-2.67,1.234,-3.707,-0.486,1.692
759.0,-9.694,-2.709,1.183,-3.663,-0.499,1.748
763.0,-9.694,-2.709,1.183,-3.663,-0.499,1.748
767.0,-9.553,-2.745,1.167,-3.663,-0.499,1.789
771.0,-9.553,-2.745,1.167,-3.624,-0.493,1.789
775.0,-9.553,-2.745,1.167,-3.624,-0.493,1.789
779.0,-9.296,-2.766,1.348,-3.59,-0.479,1.816
783.0,-9.296,-2.766,1.348,-3.59,-0.479,1.816
787.0,-9.057,-2.757,1.591,-3.59,-0.479,1.816
791.0,-9.057,-2.757,1.591,-3.56,-0.464,1.83
794.0,-9.057,-2.757,1.591,-3.56,-0.464,1.83
798.0,-8.801,-2.828,1.872,-3.526,-0.444,1.834
802.0,-8.801,-2.828,1.872,-3.526,-0.444,1.834
806.0,-8.801,-2.828,2.288,-3.526,-0.444,1.834
810.0,-8.457,-2.9,2.288,-3.48,-0.414,1.835
814.0,-8.457,-2.9,2.288,-3.48,-0.414,1.835
818.0,-8.071,-2.98,2.706,-3.411,-0.375,1.848
822.0,-8.071,-2.98,2.706,-3.411,-0.375,1.848
826.0,-8.071,-2.98,2.706,-3.411,-0.375,1.848
830.0,-7.713,-3.062,3.165,-3.313,-0.325,1.874
834.0,-7.713,-3.062,3.165,-3.313,-0.325,1.874
837.0,-7.485,-3.112,3.575,-3.184,-0.271,1.915
841.0,-7.485,-3.112,3.575,-3.184,-0.271,1.915
845.0,-7.485,-3.112,3.575,-3.184,-0.271,1.915
849.0,-7.363,-3.086,3.973,-3.034,-0.207,1.965
853.0,-7.363,-3.086,3.973,-3.034,-0.207,1.965
857.0,-7.306,-2.983,4.34,-2.876,-0.129,2.021
861.0,-7.306,-2.983,4.34,-2.876,-0.129,2.021
865.0,-7.306,-2.983,4.34,-2.876,-0.129,2.021
869.0,-7.273,-2.879,4.728,-2.722,-0.038,2.075
873.0,-7.273,-2.879,4.728,-2.722,-0.038,2.075
877.0,-7.311,-2.719,5.258,-2.575,0.067,2.12
880.0,-7.311,-2.719,5.258,-2.575,0.067,2.12
884.0,-7.311,-2.719,5.258,-2.575,0.067,2.12
888.0,-7.453,-2.611,5.816,-2.423,0.161,2.16
892.0,-7.453,-2.611,5.816,-2.423,0.161,2.16
896.0,-7.649,-2.581,6.402,-2.423,0.161,2.203
899.0,-7.649,-2.581,6.402,-2.253,0.225,2.203
903.0,-7.649,-2.581,6.402,-2.253,0.225,2.203
907.0,-7.851,-2.522,6.928,-2.053,0.257,2.236
911.0,-7.851,-2.522,6.928,-2.053,0.257,2.236
915.0,-7.851,-2.522,7.397,-2.053,0.257,2.236
919.0,-7.95,-2.375,7.397,-1.823,0.255,2.255
922.0,-7.95,-2.375,7.397,-1.823,0.255,2.255
926.0,-8.067,-2.174,7.668,-1.581,0.211,2.267
930.0,-8.067,-2.174,7.668,-1.581,0.211,2.267
934.0,-8.067,-2.174,7.668,-1.581,0.211,2.267
938.0,-8.225,-1.972,7.735,-1.345,0.141,2.281
941.0,-8.225,-1.972,7.735,-1.345,0.141,2.281
945.0,-8.428,-1.769,7.667,-1.138,0.056,2.294
949.0,-8.428,-1.769,7.667,-1.138,0.056,2.294
953.0,-8.428,-1.769,7.667,-1.138,0.056,2.294
957.0,-8.7,-1.592,7.51,-0.98,-0.037,2.297
961.0,-8.7,-1.592,7.51,-0.98,-0.037,2.297
965.0,-8.936,-1.427,7.295,-0.98,-0.037,2.297
968.0,-8.936,-1.427,7.295,-0.886,-0.134,2.28
972.0,-8.936,-1.427,7.295,-0.886,-0.134,2.28
976.0,-9.09,-1.22,7.094,-0.855,-0.226,2.248
980.0,-9.09,-1.22,7.094,-0.855,-0.226,2.248
984.0,-9.109,-1.019,6.852,-0.855,-0.226,2.248
988.0,-9.109,-1.019,6.852,-0.885,-0.31,2.21
992.0,-9.109,-1.019,6.852,-0.885,-0.31,2.21
996.0,-9.042,-0.833,6.511,-0.968,-0.379,2.171
1000.0,-9.042,-0.833,6.511,-0.968,-0.379,2.171
1004.0,-9.042,-0.643,6.258,-0.968,-0.379,2.171
1008.0,-8.865,-0.643,6.258,-1.093,-0.424,2.125
1012.0,-8.865,-0.643,6.258,-1.093,-0.424,2.125
1016.0,-8.664,-0.426,6.115,-1.242,-0.455,2.071
1020.0,-8.664,-0.426,6.115,-1.242,-0.455,2.071
1024.0,-8.59,-0.196,5.859,-1.242,-0.455,2.071
1028.0,-8.59,-0.196,5.859,-1.399,-0.475,2.007
1032.0,-8.59,-0.196,5.859,-1.399,-0.475,2.007
1036.0,-8.514,-0.029,5.617,-1.557,-0.482,1.936
1040.0,-8.514,-0.029,5.617,-1.557,-0.482,1.936
1044.0,-8.458,0.074,5.469,-1.557,-0.482,1.865
1048.0,-8.458,0.074,5.469,-1.709,-0.479,1.865
1051.0,-8.458,0.074,5.469,-1.709,-0.479,1.865
1055.0,-8.436,0.042,5.412,-1.844,-0.473,1.795
1059.0,-8.436,0.042,5.412,-1.844,-0.473,1.795
1063.0,-8.419,-0.042,5.527,-1.844,-0.473,1.795
1067.0,-8.419,-0.042,5.527,-1.952,-0.466,1.718
1071.0,-8.419,-0.042,5.527,-1.952,-0.466,1.718
1075.0,-8.341,-0.138,5.749,-2.027,-0.464,1.641
1079.0,-8.341,-0.138,5.749,-2.027,-0.464,1.641
1083.0,-8.316,-0.188,6.011,-2.027,-0.464,1.562
1087.0,-8.316,-0.188,6.011,-2.068,-0.463,1.562
1091.0,-8.316,-0.188,6.011,-2.068,-0.463,1.562
1095.0,-8.365,-0.102,6.316,-2.084,-0.46,1.483
1099.0,-8.365,-0.102,6.316,-2.084,-0.46,1.483
1103.0,-8.379,0.103,6.523,-2.084,-0.47,1.411
1107.0,-8.379,0.103,6.523,-2.085,-0.47,1.411
1111.0,-8.379,0.103,6.523,-2.085,-0.47,1.411
1115.0,-8.348,0.298,6.546,-2.083,-0.491,1.353
1119.0,-8.348,0.298,6.546,-2.083,-0.491,1.353
1123.0,-8.14,0.386,6.554,-2.083,-0.491,1.309
1127.0,-8.14,0.386,6.554,-2.081,-0.518,1.309
1130.0,-8.14,0.386,6.554,-2.081,-0.518,1.309
1134.0,-7.952,0.48,6.558,-2.077,-0.554,1.268
1138.0,-7.952,0.48,6.558,-2.077,-0.554,1.268
1142.0,-7.936,0.586,6.544,-2.077,-0.554,1.268
1146.0,-7.936,0.586,6.544,-2.072,-0.586,1.228
1150.0,-7.936,0.586,6.544,-2.072,-0.586,1.228
1154.0,-7.846,0.688,6.519,-2.071,-0.609,1.188
1158.0,-7.846,0.688,6.519,-2.071,-0.609,1.188
1162.0,-7.846,0.769,6.52,-2.071,-0.609,1.188
1166.0,-7.738,0.769,6.52,-2.074,-0.625,1.143
1169.0,-7.738,0.769,6.52,-2.074,-0.625,1.143
1173.0,-7.86,0.833,6.5,-2.083,-0.628,1.095
1177.0,-7.86,0.833,6.5,-2.083,-0.628,1.095
1181.0,-7.86,0.833,6.48,-2.083,-0.628,1.095
1185.0,-8.156,0.891,6.48,-2.093,-0.619,1.043
1189.0,-8.156,0.891,6.48,-2.093,-0.619,1.043
1193.0,-8.352,0.936,6.586,-2.103,-0.605,0.993
1197.0,-8.352,0.936,6.586,-2.103,-0.605,0.993
1201.0,-8.352,0.936,6.586,-2.103,-0.605,0.993
1205.0,-8.541,0.987,6.572,-2.11,-0.597,0.945
1209.0,-8.541,0.987,6.572,-2.11,-0.597,0.945
1212.0,-8.725,1.043,6.567,-2.107,-0.587,0.898
1216.0,-8.725,1.043,6.567,-2.107,-0.587,0.898
1220.0,-8.725,1.043,6.567,-2.107,-0.587,0.898
1224.0,-8.67,1.077,6.646,-2.094,-0.581,0.853
1228.0,-8.67,1.077,6.646,-2.094,-0.581,0.853
1232.0,-8.646,1.215,6.735,-2.066,-0.579,0.806
1236.0,-8.646,1.215,6.735,-2.066,-0.579,0.806
1240.0,-8.646,1.215,6.735,-2.066,-0.579,0.806
1244.0,-8.632,1.375,6.81,-2.026,-0.572,0.759
1248.0,-8.632,1.375,6.81,-2.026,-0.572,0.759
1252.0,-8.466,1.515,6.857,-1.976,-0.562,0.721
1255.0,-8.466,1.515,6.857,-1.976,-0.562,0.721
1259.0,-8.466,1.515,6.857,-1.976,-0.562,0.721
1263.0,-8.233,1.633,6.94,-1.926,-0.549,0.689
1267.0,-8.233,1.633,6.94,-1.926,-0.549,0.689
1271.0,-8.127,1.754,7.088,-1.875,-0.528,0.66
1275.0,-8.127,1.754,7.088,-1.875,-0.528,0.66
1279.0,-8.127,1.754,7.088,-1.875,-0.528,0.66
1283.0,-8.167,1.892,7.215,-1.822,-0.503,0.634
1287.0,-8.167,1.892,7.215,-1.822,-0.503,0.634
1291.0,-8.185,1.995,7.263,-1.822,-0.477,0.619
1294.0,-8.185,1.995,7.263,-1.771,-0.477,0.619
1298.0,-8.185,1.995,7.263,-1.771,-0.477,0.619
1302.0,-8.155,2.08,7.301,-1.723,-0.445,0.611
1306.0,-8.155,2.08,7.301,-1.723,-0.445,0.611
1310.0,-8.185,2.152,7.391,-1.723,-0.445,0.609
1314.0,-8.185,2.152,7.391,-1.678,-0.409,0.609
1318.0,-8.185,2.152,7.391,-1.678,-0.409,0.609
1322.0,-8.361,2.265,7.465,-1.638,-0.377,0.61
1326.0,-8.361,2.265,7.465,-1.638,-0.377,0.61
1330.0,-8.471,2.307,7.525,-1.638,-0.377,0.61
1334.0,-8.471,2.307,7.525,-1.606,-0.349,0.609
1337.0,-8.471,2.307,7.525,-1.606,-0.349,0.609
1341.0,-8.456,2.363,7.648,-1.576,-0.318,0.607
1345.0,-8.456,2.363,7.648,-1.576,-0.318,0.607
1349.0,-8.456,2.395,7.778,-1.576,-0.318,0.607
1353.0,-8.268,2.395,7.778,-1.542,-0.288,0.609
1357.0,-8.268,2.395,7.778,-1.542,-0.288,0.609
1361.0,-8.094,2.427,7.833,-1.5,-0.258,0.615
1365.0,-8.094,2.427,7.833,-1.5,-0.258,0.615
1369.0,-8.094,2.427,7.936,-1.5,-0.258,0.615
1373.0,-7.964,2.471,7.936,-1.451,-0.221,0.624
1377.0,-7.964,2.471,7.936,-1.451,-0.221,0.624
1380.0,-7.893,2.502,8.078,-1.394,-0.186,0.63
1384.0,-7.893,2.502,8.078,-1.394,-0.186,0.63
1388.0,-7.893,2.502,8.078,-1.394,-0.186,0.63
1392.0,-8.014,2.644,8.255,-1.331,-0.162,0.63
1396.0,-8.014,2.644,8.255,-1.331,-0.162,0.63
1400.0,-8.106,2.818,8.302,-1.271,-0.156,0.632
1404.0,-8.106,2.818,8.302,-1.271,-0.156,0.632
1408.0,-8.106,2.818,8.302,-1.271,-0.156,0.632
1412.0,-7.962,2.952,8.274,-1.217,-0.163,0.643
1416.0,-7.962,2.952,8.274,-1.217,-0.163,0.643
1419.0,-7.558,2.98,8.281,-1.169,-0.187,0.655
1423.0,-7.558,2.98,8.281,-1.169,-0.187,0.655
1427.0,-7.558,2.98,8.281,-1.169,-0.187,0.655
1431.0,-7.232,2.989,8.267,-1.12,-0.23,0.658
1435.0,-7.232,2.989,8.267,-1.12,-0.23,0.658
1439.0,-7.188,3.011,8.256,-1.07,-0.286,0.654
1443.0,-7.188,3.011,8.256,-1.07,-0.286,0.654
1447.0,-7.188,3.011,8.256,-1.07,-0.286,0.654
1451.0,-7.418,2.949,7.895,-1.025,-0.342,0.641
1455.0,-7.418,2.949,7.895,-1.025,-0.342,0.641
1459.0,-7.796,2.942,7.56,-0.993,-0.36,0.619
1462.0,-7.796,2.942,7.56,-0.993,-0.36,0.619
1466.0,-7.796,2.942,7.56,-0.993,-0.36,0.619
1470.0,-7.925,2.979,7.637,-0.976,-0.353,0.605
1474.0,-7.925,2.979,7.637,-0.976,-0.353,0.605
1478.0,-7.974,3.06,7.797,-0.976,-0.347,0.613
1482.0,-7.974,3.06,7.797,-0.972,-0.347,0.613
1486.0,-7.974,3.06,7.797,-0.972,-0.347,0.613
1490.0,-8.158,3.111,7.862,-0.982,-0.332,0.639
1494.0,-8.158,3.111,7.862,-0.982,-0.332,0.639
1498.0,-8.288,3.092,7.826,-0.982,-0.332,0.67
1502.0,-8.288,3.092,7.826,-1.004,-0.313,0.67
1505.0,-8.288,3.092,7.826,-1.004,-0.313,0.67
1509.0,-8.203,3.091,7.768,-1.025,-0.301,0.691
1513.0,-8.203,3.091,7.768,-1.025,-0.301,0.691
1517.0,-7.981,3.144,7.68,-1.025,-0.301,0.691
1521.0,-7.981,3.144,7.68,-1.039,-0.303,0.697
1525.0,-7.981,3.144,7.68,-1.039,-0.303,0.697
1529.0,-7.787,3.251,7.533,-1.048,-0.308,0.696
1533.0,-7.787,3.251,7.533,-1.048,-0.308,0.696
1537.0,-7.787,3.322,7.482,-1.048,-0.308,0.696
1541.0,-7.618,3.322,7.482,-1.056,-0.301,0.694
1544.0,-7.618,3.322,7.482,-1.056,-0.301,0.694
1548.0,-7.546,3.467,7.518,-1.067,-0.29,0.701
1552.0,-7.546,3.467,7.518,-1.067,-0.29,0.701
1556.0,-7.546,3.467,7.496,-1.067,-0.29,0.701
1560.0,-7.594,3.529,7.496,-1.093,-0.284,0.719
1564.0,-7.594,3.529,7.496,-1.093,-0.284,0.719
1568.0,-7.588,3.481,7.463,-1.126,-0.276,0.747
1572.0,-7.588,3.481,7.463,-1.126,-0.276,0.747
1576.0,-7.588,3.481,7.463,-1.126,-0.276,0.747
1580.0,-7.414,3.363,7.389,-1.158,-0.265,0.784
1584.0,-7.414,3.363,7.389,-1.158,-0.265,0.784
1587.0,-7.305,3.298,7.342,-1.188,-0.243,0.828
1591.0,-7.305,3.298,7.342,-1.188,-0.243,0.828
1595.0,-7.305,3.298,7.342,-1.188,-0.243,0.828
1599.0,-7.183,3.229,7.303,-1.219,-0.203,0.873
1603.0,-7.183,3.229,7.303,-1.219,-0.203,0.873
1607.0,-6.757,3.083,7.334,-1.247,-0.161,0.91
1611.0,-6.757,3.083,7.334,-1.247,-0.161,0.91
1615.0,-6.757,3.083,7.334,-1.247,-0.161,0.91
1619.0,-6.464,3.142,7.375,-1.27,-0.136,0.934
1623.0,-6.464,3.142,7.375,-1.27,-0.136,0.934
1627.0,-6.602,3.303,7.36,-1.293,-0.113,0.956
1630.0,-6.602,3.303,7.36,-1.293,-0.113,0.956
1634.0,-6.602,3.303,7.36,-1.293,-0.113,0.956
1638.0,-6.542,3.24,7.335,-1.326,-0.09,0.996
1642.0,-6.542,3.24,7.335,-1.326,-0.09,0.996
1646.0,-5.715,2.853,7.382,-1.353,-0.092,1.038
1650.0,-5.715,2.853,7.382,-1.353,-0.092,1.038
1654.0,-5.715,2.853,7.382,-1.353,-0.092,1.038
1658.0,-5.194,2.668,7.481,-1.363,-0.108,1.031
1662.0,-5.194,2.668,7.481,-1.363,-0.108,1.031
1666.0,-6.232,2.88,7.439,-1.363,-0.08,0.978
1669.0,-6.232,2.88,7.439,-1.371,-0.08,0.978
1673.0,-6.232,2.88,7.439,-1.371,-0.08,0.978
1677.0,-7.58,3.005,7.432,-1.399,-0.03,0.956
1681.0,-7.58,3.005,7.432,-1.399,-0.03,0.956
1685.0,-8.021,2.948,7.571,-1.399,-0.03,0.956
1689.0,-8.021,2.948,7.571,-1.442,-0.008,0.977
1693.0,-8.021,2.948,7.571,-1.442,-0.008,0.977
1697.0,-7.739,2.803,7.621,-1.482,-0.03,1.002
1701.0,-7.739,2.803,7.621,-1.482,-0.03,1.002
1705.0,-7.654,2.669,7.397,-1.482,-0.03,1.002
1709.0,-7.654,2.669,7.397,-1.511,-0.063,1.004
1712.0,-7.654,2.669,7.397,-1.511,-0.063,1.004
1716.0,-7.587,2.515,7.105,-1.535,-0.093,0.989
1720.0,-7.587,2.515,7.105,-1.535,-0.093,0.989
1724.0,-7.587,2.515,6.929,-1.535,-0.093,0.989
1728.0,-7.368,2.375,6.929,-1.55,-0.127,0.962
1732.0,-7.368,2.375,6.929,-1.55,-0.127,0.962
1736.0,-7.315,2.348,6.929,-1.548,-0.163,0.917
1740.0,-7.315,2.348,6.929,-1.548,-0.163,0.917
1744.0,-7.315,2.348,6.929,-1.548,-0.163,0.917
1748.0,-8.278,2.629,7.038,-1.541,-0.186,0.877
1752.0,-8.278,2.629,7.038,-1.541,-0.186,0.877
1755.0,-8.819,2.573,6.984,-1.547,-0.192,0.881
1759.0,-8.819,2.573,6.984,-1.547,-0.192,0.881
1763.0,-8.819,2.573,6.984,-1.547,-0.192,0.881
1767.0,-7.74,2.269,7.181,-1.556,-0.213,0.905
1771.0,-7.74,2.269,7.181,-1.556,-0.213,0.905
1775.0,-6.586,2.201,7.33,-1.545,-0.239,0.898
1779.0,-6.586,2.201,7.33,-1.545,-0.239,0.898
1783.0,-6.586,2.201,7.33,-1.545,-0.239,0.898
1787.0,-6.486,2.264,7.022,-1.519,-0.225,0.866
1791.0,-6.486,2.264,7.022,-1.519,-0.225,0.866
1794.0,-6.995,2.386,6.777,-1.504,-0.161,0.852
1798.0,-6.995,2.386,6.777,-1.504,-0.161,0.852
1802.0,-6.995,2.386,6.777,-1.504,-0.161,0.852
1806.0,-7.053,2.36,6.992,-1.495,-0.082,0.872
1810.0,-7.053,2.36,6.992,-1.495,-0.082,0.872
1814.0,-6.763,2.251,7.129,-1.469,-0.022,0.906
1818.0,-6.763,2.251,7.129,-1.469,-0.022,0.906
1822.0,-6.763,2.251,7.129,-1.469,-0.022,0.906
1826.0,-6.676,2.197,7.125,-1.418,0.028,0.934
1830.0,-6.676,2.197,7.125,-1.418,0.028,0.934
1833.0,-6.747,2.185,7.062,-1.418,0.082,0.958
1837.0,-6.747,2.185,7.062,-1.354,0.082,0.958
1841.0,-6.747,2.185,7.062,-1.354,0.082,0.958
1845.0,-6.924,2.233,7.136,-1.284,0.138,0.992
1849.0,-6.924,2.233,7.136,-1.284,0.138,0.992
1852.0,-6.924,2.233,7.247,-1.284,0.138,0.992
1856.0,-7.011,2.238,7.247,-1.212,0.176,1.04
1860.0,-7.011,2.238,7.247,-1.212,0.176,1.04
1864.0,-6.995,2.217,7.271,-1.139,0.196,1.099
1868.0,-6.995,2.217,7.271,-1.139,0.196,1.099
1872.0,-6.995,2.217,7.271,-1.139,0.196,1.099
1875.0,-6.997,2.205,7.277,-1.075,0.221,1.155
1879.0,-6.997,2.205,7.277,-1.075,0.221,1.155
1883.0,-7.08,2.302,7.291,-1.027,0.256,1.204
1887.0,-7.08,2.302,7.291,-1.027,0.256,1.204
1891.0,-7.08,2.302,7.291,-1.027,0.256,1.204
1894.0,-7.193,2.436,7.257,-1.002,0.294,1.245
1898.0,-7.193,2.436,7.257,-1.002,0.294,1.245
1902.0,-7.327,2.587,7.248,-1.002,0.294,1.245
1906.0,-7.327,2.587,7.248,-1.003,0.321,1.28
1910.0,-7.327,2.587,7.248,-1.003,0.321,1.28
1914.0,-7.402,2.685,7.23,-1.034,0.327,1.309
1917.0,-7.402,2.685,7.23,-1.034,0.327,1.309
1921.0,-7.402,2.685,7.23,-1.034,0.327,1.309
1925.0,-7.521,2.743,7.192,-1.095,0.324,1.329
1929.0,-7.521,2.743,7.192,-1.095,0.324,1.329
1933.0,-7.592,2.763,7.205,-1.181,0.323,1.345
1936.0,-7.592,2.763,7.205,-1.181,0.323,1.345
1940.0,-7.592,2.763,7.205,-1.181,0.323,1.345
1944.0,-7.442,2.646,7.208,-1.282,0.318,1.357
1948.0,-7.442,2.646,7.208,-1.282,0.318,1.357
1952.0,-7.251,2.532,7.245,-1.282,0.318,1.358
1956.0,-7.251,2.532,7.245,-1.383,0.314,1.358
1959.0,-7.251,2.532,7.245,-1.383,0.314,1.358
1963.0,-7.061,2.429,7.345,-1.477,0.313,1.347
1967.0,-7.061,2.429,7.345,-1.477,0.313,1.347
1971.0,-7.061,2.429,7.351,-1.477,0.313,1.347
1975.0,-6.895,2.331,7.351,-1.559,0.305,1.33
1979.0,-6.895,2.331,7.351,-1.559,0.305,1.33
1982.0,-6.832,2.257,7.37,-1.631,0.297,1.307
1986.0,-6.832,2.257,7.37,-1.631,0.297,1.307
1990.0,-6.832,2.257,7.37,-1.631,0.297,1.307
1994.0,-6.717,2.182,7.521,-1.693,0.287,1.287
1998.0,-6.717,2.182,7.521,-1.693,0.287,1.287
2001.0,-6.502,2.012,7.564,-1.742,0.262,1.278
2005.0,-6.502,2.012,7.564,-1.742,0.262,1.278
2009.0,-6.502,2.012,7.564,-1.742,0.262,1.278
2013.0,-6.424,1.82,7.5,-1.779,0.238,1.272
2017.0,-6.424,1.82,7.5,-1.779,0.238,1.272
2021.0,-6.407,1.648,7.559,-1.779,0.238,1.272
2024.0,-6.407,1.648,7.559,-1.802,0.232,1.262
2028.0,-6.407,1.648,7.559,-1.802,0.232,1.262
2032.0,-6.399,1.479,7.637,-1.807,0.231,1.253
2036.0,-6.399,1.479,7.637,-1.807,0.231,1.253
2040.0,-6.399,1.479,7.637,-1.807,0.231,1.253
2043.0,-6.465,1.364,7.606,-1.798,0.231,1.244
2047.0,-6.465,1.364,7.606,-1.798,0.231,1.244
2051.0,-6.494,1.341,7.62,-1.778,0.236,1.233
2055.0,-6.494,1.341,7.62,-1.778,0.236,1.233
2059.0,-6.494,1.341,7.62,-1.778,0.236,1.233
2063.0,-6.43,1.363,7.705,-1.75,0.235,1.223
2066.0,-6.43,1.363,7.705,-1.75,0.235,1.223
2070.0,-6.388,1.33,7.713,-1.75,0.235,1.213
2074.0,-6.388,1.33,7.713,-1.716,0.222,1.213
2078.0,-6.388,1.33,7.713,-1.716,0.222,1.213
2082.0,-6.43,1.244,7.693,-1.676,0.213,1.197
2085.0,-6.43,1.244,7.693,-1.676,0.213,1.197
2089.0,-6.43,1.244,7.668,-1.676,0.213,1.197
2093.0,-6.528,1.159,7.668,-1.631,0.207,1.172
2097.0,-6.528,1.159,7.668,-1.631,0.207,1.172
2101.0,-6.686,1.143,7.683,-1.585,0.202,1.145
2105.0,-6.686,1.143,7.683,-1.585,0.202,1.145
2108.0,-6.686,1.143,7.683,-1.585,0.202,1.145
2112.0,-6.661,1.058,7.689,-1.535,0.188,1.118
2116.0,-6.661,1.058,7.689,-1.535,0.188,1.118
2120.0,-6.529,0.958,7.56,-1.479,0.156,1.091
2124.0,-6.529,0.958,7.56,-1.479,0.156,1.091
2127.0,-6.529,0.958,7.56,-1.479,0.156,1.091
2131.0,-6.534,0.896,7.38,-1.418,0.127,1.053
2135.0,-6.534,0.896,7.38,-1.418,0.127,1.053
2139.0,-6.675,0.912,7.229,-1.418,0.127,1.053
2143.0,-6.675,0.912,7.229,-1.359,0.113,1.006
2147.0,-6.675,0.912,7.229,-1.359,0.113,1.006
2150.0,-6.949,1.025,7.272,-1.307,0.106,0.957
2154.0,-6.949,1.025,7.272,-1.307,0.106,0.957
2158.0,-6.949,1.025,7.272,-1.307,0.106,0.957
2162.0,-7.256,1.119,7.37,-1.27,0.099,0.917
2166.0,-7.256,1.119,7.37,-1.27,0.099,0.917
2169.0,-7.488,1.197,7.5,-1.251,0.09,0.882
2173.0,-7.488,1.197,7.5,-1.251,0.09,0.882
2177.0,-7.488,1.197,7.5,-1.251,0.09,0.882
2181.0,-7.449,1.212,7.603,-1.244,0.079,0.847
2185.0,-7.449,1.212,7.603,-1.244,0.079,0.847
2189.0,-7.243,1.218,7.57,-1.244,0.079,0.805
2192.0,-7.243,1.218,7.57,-1.245,0.072,0.805
2196.0,-7.243,1.218,7.57,-1.245,0.072,0.805
2200.0,-7.101,1.261,7.509,-1.247,0.08,0.751
2204.0,-7.101,1.261,7.509,-1.247,0.08,0.751
2208.0,-7.101,1.261,7.518,-1.247,0.08,0.751
2211.0,-6.975,1.342,7.518,-1.246,0.097,0.694
2215.0,-6.975,1.342,7.518,-1.246,0.097,0.694
2219.0,-6.803,1.409,7.587,-1.242,0.106,0.64
2223.0,-6.803,1.409,7.587,-1.242,0.106,0.64
2227.0,-6.803,1.409,7.587,-1.242,0.106,0.64
2231.0,-6.675,1.431,7.726,-1.228,0.105,0.595
2234.0,-6.675,1.431,7.726,-1.228,0.105,0.595
2238.0,-6.689,1.397,7.802,-1.228,0.1,0.555
2242.0,-6.689,1.397,7.802,-1.204,0.1,0.555
2246.0,-6.689,1.397,7.802,-1.204,0.1,0.555
2250.0,-6.784,1.345,7.988,-1.17,0.098,0.52
2254.0,-6.784,1.345,7.988,-1.17,0.098,0.52
2257.0,-6.784,1.312,8.217,-1.17,0.098,0.52
2261.0,-6.887,1.312,8.217,-1.126,0.084,0.492
2265.0,-6.887,1.312,8.217,-1.126,0.084,0.492
2269.0,-6.954,1.295,8.267,-1.072,0.061,0.471
2273.0,-6.954,1.295,8.267,-1.072,0.061,0.471
2276.0,-6.954,1.295,8.267,-1.072,0.061,0.471
2280.0,-6.882,1.298,8.256,-1.016,0.041,0.452
2284.0,-6.882,1.298,8.256,-1.016,0.041,0.452
2288.0,-6.789,1.365,8.194,-0.968,0.028,0.433
2292.0,-6.789,1.365,8.194,-0.968,0.028,0.433
2296.0,-6.789,1.365,8.194,-0.968,0.028,0.433
2299.0,-6.826,1.497,8.203,-0.935,0.03,0.411
2303.0,-6.826,1.497,8.203,-0.935,0.03,0.411
2307.0,-6.867,1.573,8.247,-0.935,0.03,0.388
2311.0,-6.867,1.573,8.247,-0.915,0.038,0.388
2315.0,-6.867,1.573,8.247,-0.915,0.038,0.388
2318.0,-6.916,1.638,8.307,-0.904,0.049,0.364
2322.0,-6.916,1.638,8.307,-0.904,0.049,0.364
2326.0,-6.916,1.638,8.307,-0.904,0.049,0.364
2330.0,-7.003,1.729,8.498,-0.894,0.063,0.339
2334.0,-7.003,1.729,8.498,-0.894,0.063,0.339
2338.0,-7.121,1.796,8.623,-0.884,0.066,0.318
2341.0,-7.121,1.796,8.623,-0.884,0.066,0.318
2345.0,-7.121,1.796,8.623,-0.884,0.066,0.318
2349.0,-7.369,1.835,8.685,-0.871,0.054,0.304
2353.0,-7.369,1.835,8.685,-0.871,0.054,0.304
2357.0,-7.619,1.851,8.659,-0.871,0.03,0.291
2360.0,-7.619,1.851,8.659,-0.857,0.03,0.291
2364.0,-7.619,1.851,8.659,-0.857,0.03,0.291
2368.0,-7.782,1.862,8.645,-0.843,0.001,0.268
2372.0,-7.782,1.862,8.645,-0.843,0.001,0.268
2376.0,-7.782,1.886,8.624,-0.843,0.001,0.268
2380.0,-7.86,1.886,8.624,-0.835,-0.032,0.235
2383.0,-7.86,1.886,8.624,-0.835,-0.032,0.235
2387.0,-7.892,1.985,8.66,-0.835,-0.062,0.191
2391.0,-7.892,1.985,8.66,-0.835,-0.062,0.191
2395.0,-7.892,1.985,8.66,-0.835,-0.062,0.191
2399.0,-7.775,2.131,8.778,-0.841,-0.093,0.142
2403.0,-7.775,2.131,8.778,-0.841,-0.093,0.142
2407.0,-7.698,2.294,8.905,-0.85,-0.127,0.096
2411.0,-7.698,2.294,8.905,-0.85,-0.127,0.096
2415.0,-7.698,2.294,8.905,-0.85,-0.127,0.096
2419.0,-7.801,2.367,8.849,-0.862,-0.156,0.061
2423.0,-7.801,2.367,8.849,-0.862,-0.156,0.061
2426.0,-7.892,2.35,8.792,-0.874,-0.165,0.034
2430.0,-7.892,2.35,8.792,-0.874,-0.165,0.034
2434.0,-7.892,2.35,8.792,-0.874,-0.165,0.034
2438.0,-7.933,2.308,8.889,-0.882,-0.16,0.016
2442.0,-7.933,2.308,8.889,-0.882,-0.16,0.016
2446.0,-7.875,2.25,8.992,-0.879,-0.153,0.014
2450.0,-7.875,2.25,8.992,-0.879,-0.153,0.014
2454.0,-7.875,2.25,8.992,-0.879,-0.153,0.014
2458.0,-7.875,2.145,9.007,-0.867,-0.144,0.033
2462.0,-7.875,2.145,9.007,-0.867,-0.144,0.033
2465.0,-7.853,1.985,9.008,-0.843,-0.122,0.066
2469.0,-7.853,1.985,9.008,-0.843,-0.122,0.066
2473.0,-7.853,1.985,9.008,-0.843,-0.122,0.066
2477.0,-7.792,1.851,9.009,-0.804,-0.094,0.108
2481.0,-7.792,1.851,9.009,-0.804,-0.094,0.108
2485.0,-7.708,1.758,9.068,-0.742,-0.071,0.157
2489.0,-7.708,1.758,9.068,-0.742,-0.071,0.157
2493.0,-7.708,1.758,9.068,-0.742,-0.071,0.157
2497.0,-7.534,1.682,8.989,-0.664,-0.061,0.209
2501.0,-7.534,1.682,8.989,-0.664,-0.061,0.209
2505.0,-7.433,1.667,8.797,-0.664,-0.061,0.259
2508.0,-7.433,1.667,8.797,-0.582,-0.048,0.259
2512.0,-7.433,1.667,8.797,-0.582,-0.048,0.259
2516.0,-7.478,1.653,8.696,-0.504,-0.016,0.302
2520.0,-7.478,1.653,8.696,-0.504,-0.016,0.302
2524.0,-7.555,1.676,8.633,-0.504,-0.016,0.302
2528.0,-7.555,1.676,8.633,-0.436,0.021,0.345
2532.0,-7.555,1.676,8.633,-0.436,0.021,0.345
2536.0,-7.54,1.64,8.541,-0.377,0.055,0.388
2539.0,-7.54,1.64,8.541,-0.377,0.055,0.388
2543.0,-7.54,1.64,8.357,-0.377,0.055,0.388
2547.0,-7.406,1.523,8.357,-0.321,0.086,0.428
2551.0,-7.406,1.523,8.357,-0.321,0.086,0.428
2555.0,-7.271,1.352,8.048,-0.264,0.126,0.458
2559.0,-7.271,1.352,8.048,-0.264,0.126,0.458
2562.0,-7.271,1.352,8.048,-0.264,0.126,0.458
2566.0,-7.303,1.205,7.768,-0.205,0.185,0.471
2570.0,-7.303,1.205,7.768,-0.205,0.185,0.471
2574.0,-7.702,1.238,7.753,-0.205,0.249,0.474
2578.0,-7.702,1.238,7.753,-0.136,0.249,0.474
2581.0,-7.702,1.238,7.753,-0.136,0.249,0.474
2585.0,-8.121,1.266,7.696,-0.059,0.284,0.494
2589.0,-8.121,1.266,7.696,-0.059,0.284,0.494
2593.0,-8.121,1.172,7.389,-0.059,0.284,0.494
2597.0,-8.276,1.172,7.389,0.019,0.29,0.532
2600.0,-8.276,1.172,7.389,0.019,0.29,0.532
2604.0,-8.203,1.048,7.229,0.093,0.303,0.564
2608.0,-8.203,1.048,7.229,0.093,0.303,0.564
2612.0,-8.203,1.048,7.229,0.093,0.303,0.564
2615.0,-7.981,0.897,7.202,0.172,0.323,0.579
2619.0,-7.981,0.897,7.202,0.172,0.323,0.579
2623.0,-7.979,0.792,7.26,0.172,0.323,0.571
2627.0,-7.979,0.792,7.26,0.26,0.34,0.571
2630.0,-7.979,0.792,7.26,0.26,0.34,0.571
2634.0,-8.328,0.802,7.454,0.353,0.35,0.535
2638.0,-8.328,0.802,7.454,0.353,0.35,0.535
2642.0,-8.328,0.802,7.454,0.353,0.35,0.535
2645.0,-8.737,0.842,7.71,0.438,0.327,0.473
2649.0,-8.737,0.842,7.71,0.438,0.327,0.473
2653.0,-8.885,0.928,7.828,0.438,0.261,0.394
2656.0,-8.885,0.928,7.828,0.502,0.261,0.394
2660.0,-8.885,0.928,7.828,0.502,0.261,0.394
2664.0,-8.764,0.982,7.747,0.536,0.176,0.296
2668.0,-8.764,0.982,7.747,0.536,0.176,0.296
2671.0,-8.764,0.982,7.747,0.536,0.176,0.296
2675.0,-8.576,0.927,7.558,0.539,0.107,0.185
2679.0,-8.576,0.927,7.558,0.539,0.107,0.185
2683.0,-8.464,0.765,7.467,0.516,0.07,0.067
2686.0,-8.464,0.765,7.467,0.516,0.07,0.067
2690.0,-8.464,0.765,7.467,0.516,0.07,0.067
2694.0,-8.503,0.547,7.685,0.486,0.055,-0.047
2698.0,-8.503,0.547,7.685,0.486,0.055,-0.047
2701.0,-8.503,0.358,8.012,0.486,0.055,-0.047
2705.0,-8.64,0.358,8.012,0.47,0.034,-0.14
2709.0,-8.64,0.358,8.012,0.47,0.034,-0.14
2713.0,-8.637,0.158,8.18,0.468,-0.006,-0.203
2717.0,-8.637,0.158,8.18,0.468,-0.006,-0.203
2721.0,-8.637,0.158,8.18,0.468,-0.006,-0.203
2725.0,-8.37,-0.114,8.207,0.476,-0.05,-0.243
2729.0,-8.37,-0.114,8.207,0.476,-0.05,-0.243
2733.0,-7.915,-0.392,8.212,0.493,-0.089,-0.268
2737.0,-7.915,-0.392,8.212,0.493,-0.089,-0.268
2741.0,-7.915,-0.392,8.212,0.493,-0.089,-0.268
2745.0,-7.583,-0.656,8.18,0.524,-0.119,-0.295
2749.0,-7.583,-0.656,8.18,0.524,-0.119,-0.295
2753.0,-7.46,-0.806,8.228,0.573,-0.141,-0.331
2757.0,-7.46,-0.806,8.228,0.573,-0.141,-0.331
2761.0,-7.46,-0.806,8.25,0.573,-0.141,-0.331
2765.0,-7.48,-0.817,8.25,0.642,-0.164,-0.366
2769.0,-7.48,-0.817,8.25,0.642,-0.164,-0.366
2773.0,-7.496,-0.854,8.167,0.731,-0.193,-0.394
2777.0,-7.496,-0.854,8.167,0.731,-0.193,-0.394
2780.0,-7.496,-0.867,8.115,0.731,-0.193,-0.394
2784.0,-7.448,-0.867,8.115,0.834,-0.227,-0.416
2788.0,-7.448,-0.867,8.115,0.834,-0.227,-0.416
2792.0,-7.478,-0.857,8.145,0.951,-0.267,-0.438
2796.0,-7.478,-0.857,8.145,0.951,-0.267,-0.438
2800.0,-7.591,-0.885,8.079,0.951,-0.267,-0.438
2804.0,-7.591,-0.885,8.079,1.08,-0.322,-0.456
2808.0,-7.591,-0.885,8.079,1.08,-0.322,-0.456
2812.0,-7.734,-0.995,7.764,1.213,-0.389,-0.471
2816.0,-7.734,-0.995,7.764,1.213,-0.389,-0.471
2820.0,-7.738,-1.009,7.518,1.213,-0.438,-0.495
2824.0,-7.738,-1.009,7.518,1.338,-0.438,-0.495
2828.0,-7.738,-1.009,7.518,1.338,-0.438,-0.495
2832.0,-7.573,-0.905,7.362,1.444,-0.476,-0.525
2836.0,-7.573,-0.905,7.362,1.444,-0.476,-0.525
2840.0,-7.527,-0.737,7.095,1.523,-0.506,-0.552
2844.0,-7.527,-0.737,7.095,1.523,-0.506,-0.552
2848.0,-7.527,-0.737,7.095,1.523,-0.506,-0.552
2852.0,-7.694,-0.498,6.812,1.567,-0.518,-0.579
2856.0,-7.694,-0.498,6.812,1.567,-0.518,-0.579
2860.0,-7.68,-0.295,6.687,1.582,-0.519,-0.605
2864.0,-7.68,-0.295,6.687,1.582,-0.519,-0.605
2868.0,-7.68,-0.295,6.687,1.582,-0.519,-0.605
2872.0,-7.363,-0.139,6.631,1.585,-0.543,-0.626
2876.0,-7.363,-0.139,6.631,1.585,-0.543,-0.626
2880.0,-6.97,-0.1,6.415,1.592,-0.592,-0.647
2884.0,-6.97,-0.1,6.415,1.592,-0.592,-0.647
2888.0,-6.97,-0.1,6.415,1.592,-0.592,-0.647
2892.0,-6.668,-0.071,6.026,1.606,-0.646,-0.667
2896.0,-6.668,-0.071,6.026,1.606,-0.646,-0.667
2900.0,-6.398,-0.061,5.624,1.623,-0.69,-0.68
2904.0,-6.398,-0.061,5.624,1.623,-0.69,-0.68
2908.0,-6.398,-0.061,5.624,1.623,-0.69,-0.68
2912.0,-6.229,-0.096,5.31,1.64,-0.719,-0.68
2916.0,-6.229,-0.096,5.31,1.64,-0.719,-0.68
2920.0,-6.208,-0.123,5.084,1.652,-0.736,-0.671
2924.0,-6.208,-0.123,5.084,1.652,-0.736,-0.671
2928.0,-6.208,-0.123,4.926,1.652,-0.736,-0.671
2932.0,-6.214,-0.178,4.926,1.661,-0.747,-0.654
2936.0,-6.214,-0.178,4.926,1.661,-0.747,-0.654
2940.0,-6.137,-0.27,4.767,1.665,-0.757,-0.628
2944.0,-6.137,-0.27,4.767,1.665,-0.757,-0.628
2948.0,-6.137,-0.413,4.528,1.665,-0.757,-0.628
2952.0,-5.983,-0.413,4.528,1.663,-0.764,-0.6
2956.0,-5.983,-0.413,4.528,1.663,-0.764,-0.6
2960.0,-5.892,-0.582,4.248,1.655,-0.754,-0.58
2964.0,-5.892,-0.582,4.248,1.655,-0.754,-0.58
2968.0,-5.95,-0.712,3.975,1.655,-0.754,-0.58
2972.0,-5.95,-0.712,3.975,1.646,-0.718,-0.569
2976.0,-5.95,-0.712,3.975,1.646,-0.718,-0.569
2980.0,-6.092,-0.804,3.76,1.636,-0.671,-0.556
2984.0,-6.092,-0.804,3.76,1.636,-0.671,-0.556
2988.0,-6.309,-0.851,3.629,1.636,-0.671,-0.538
2992.0,-6.309,-0.851,3.629,1.627,-0.627,-0.538
2996.0,-6.309,-0.851,3.629,1.627,-0.627,-0.538
3000.0,-6.601,-0.921,3.497,1.617,-0.589,-0.513
