deltaTime,Acc_X,Acc_Y,Acc_Z,Gyro_X,Gyro_Y,Gyro_Z
0.0,0.89,1.552,10.052,0.033,-0.222,-0.151
3.0,0.89,1.552,10.052,0.033,-0.222,-0.151
6.0,0.89,1.552,10.052,0.033,-0.222,-0.151
9.0,1.027,1.659,9.928,0.033,-0.222,-0.131
12.0,1.027,1.659,9.928,0.011,-0.223,-0.131
15.0,1.027,1.659,9.928,0.011,-0.223,-0.131
18.0,1.027,1.659,9.928,0.011,-0.223,-0.131
21.0,1.234,1.737,9.799,-0.022,-0.205,-0.115
24.0,1.234,1.737,9.799,-0.022,-0.205,-0.115
27.0,1.234,1.737,9.799,-0.022,-0.205,-0.115
30.0,1.228,1.714,9.757,-0.063,-0.183,-0.104
33.0,1.228,1.714,9.757,-0.063,-0.183,-0.104
36.0,1.228,1.714,9.757,-0.063,-0.183,-0.104
39.0,1.11,1.658,9.813,-0.093,-0.166,-0.092
43.0,1.11,1.658,9.813,-0.093,-0.166,-0.092
47.0,1.11,1.658,9.813,-0.093,-0.166,-0.092
51.0,0.983,1.717,9.954,-0.122,-0.144,-0.081
54.0,0.983,1.717,9.954,-0.122,-0.144,-0.081
58.0,0.737,1.505,10.201,-0.122,-0.144,-0.081
62.0,0.737,1.505,10.201,-0.159,-0.12,-0.066
66.0,0.737,1.505,10.201,-0.159,-0.12,-0.066
70.0,0.766,1.284,10.39,-0.157,-0.106,-0.038
73.0,0.766,1.284,10.39,-0.157,-0.106,-0.038
77.0,0.766,1.284,10.39,-0.157,-0.106,-0.038
81.0,0.842,1.065,10.62,-0.12,-0.09,-0.015
85.0,0.842,1.065,10.62,-0.12,-0.09,-0.015
89.0,0.805,0.909,11.028,-0.058,-0.072,-0.009
92.0,0.805,0.909,11.028,-0.058,-0.072,-0.009
96.0,0.805,0.909,11.028,-0.058,-0.072,-0.009
100.0,0.544,0.704,11.624,0.028,-0.059,-0.015
104.0,0.544,0.704,11.624,0.028,-0.059,-0.015
108.0,0.138,0.491,12.419,0.028,-0.059,-0.019
112.0,0.138,0.491,12.419,0.156,-0.063,-0.019
115.0,0.138,0.491,12.419,0.156,-0.063,-0.019
119.0,-0.302,0.55,13.323,0.318,-0.097,-0.032
123.0,-0.302,0.55,13.323,0.318,-0.097,-0.032
127.0,-0.302,0.41,14.258,0.318,-0.097,-0.032
131.0,-0.682,0.41,14.258,0.451,-0.15,-0.054
135.0,-0.682,0.41,14.258,0.451,-0.15,-0.054
139.0,-0.374,0.307,15.165,0.586,-0.253,-0.087
143.0,-0.374,0.307,15.165,0.586,-0.253,-0.087
147.0,-0.374,0.307,15.549,0.586,-0.253,-0.087
150.0,0.098,1.052,15.549,0.744,-0.423,-0.157
154.0,0.098,1.052,15.549,0.744,-0.423,-0.157
158.0,-0.397,2.11,15.62,0.735,-0.655,-0.336
162.0,-0.397,2.11,15.62,0.735,-0.655,-0.336
166.0,-0.397,2.11,15.62,0.735,-0.655,-0.336
170.0,-0.822,2.355,15.47,0.594,-1.016,-0.521
174.0,-0.822,2.355,15.47,0.594,-1.016,-0.521
178.0,-1.543,1.903,15.395,0.419,-1.367,-0.684
182.0,-1.543,1.903,15.395,0.419,-1.367,-0.684
185.0,-1.543,1.903,15.395,0.419,-1.367,-0.684
189.0,-2.314,1.129,15.471,0.259,-1.697,-0.869
193.0,-2.314,1.129,15.471,0.259,-1.697,-0.869
197.0,-2.711,0.423,15.76,0.123,-2.018,-1.098
201.0,-2.711,0.423,15.76,0.123,-2.018,-1.098
205.0,-2.711,0.423,15.76,0.123,-2.018,-1.098
209.0,-2.353,-0.17,16.196,0.01,-2.331,-1.345
213.0,-2.353,-0.17,16.196,0.01,-2.331,-1.345
217.0,-1.793,-0.739,16.873,-0.082,-2.629,-1.601
221.0,-1.793,-0.739,16.873,-0.082,-2.629,-1.601
225.0,-1.793,-0.739,16.873,-0.082,-2.629,-1.601
229.0,-1.579,-1.217,17.633,-0.153,-2.944,-1.871
233.0,-1.579,-1.217,17.633,-0.153,-2.944,-1.871
237.0,-1.683,-1.518,17.921,-0.184,-3.294,-2.161
241.0,-1.683,-1.518,17.921,-0.184,-3.294,-2.161
245.0,-1.683,-1.518,17.889,-0.184,-3.294,-2.161
250.0,-1.563,-1.753,17.889,-0.147,-3.653,-2.461
254.0,-1.563,-1.753,17.889,-0.147,-3.653,-2.461
258.0,-1.239,-1.577,17.618,-0.039,-3.988,-2.762
262.0,-1.239,-1.577,17.618,-0.039,-3.988,-2.762
266.0,-0.797,-1.382,17.334,-0.039,-4.299,-3.033
270.0,-0.797,-1.382,17.334,0.134,-4.299,-3.033
274.0,-0.797,-1.382,17.334,0.134,-4.299,-3.033
278.0,-0.132,-1.221,16.504,0.343,-4.594,-3.283
282.0,-0.132,-1.221,16.504,0.343,-4.594,-3.283
286.0,0.71,-0.507,15.237,0.583,-4.828,-3.527
290.0,0.71,-0.507,15.237,0.583,-4.828,-3.527
294.0,0.71,-0.507,15.237,0.583,-4.828,-3.527
298.0,1.622,0.38,13.821,0.846,-4.966,-3.727
301.0,1.622,0.38,13.821,0.846,-4.966,-3.727
305.0,2.518,1.209,12.432,0.846,-4.992,-3.87
309.0,2.518,1.209,12.432,1.123,-4.992,-3.87
313.0,2.518,1.209,12.432,1.123,-4.992,-3.87
317.0,3.117,1.798,11.163,1.418,-4.992,-3.981
321.0,3.117,1.798,11.163,1.418,-4.992,-3.981
324.0,3.117,1.798,9.998,1.418,-4.992,-3.981
328.0,3.709,2.219,9.998,1.724,-4.992,-4.086
332.0,3.709,2.219,9.998,1.724,-4.992,-4.086
336.0,4.174,2.585,9.008,2.05,-4.987,-4.211
339.0,4.174,2.585,9.008,2.05,-4.987,-4.211
343.0,4.174,2.585,9.008,2.05,-4.987,-4.211
347.0,4.417,2.976,8.188,2.411,-4.905,-4.36
350.0,4.417,2.976,8.188,2.411,-4.905,-4.36
354.0,4.251,3.569,7.28,2.411,-4.905,-4.36
358.0,4.251,3.569,7.28,2.811,-4.728,-4.508
362.0,4.251,3.569,7.28,2.811,-4.728,-4.508
365.0,3.604,4.469,6.196,3.241,-4.52,-4.58
369.0,3.604,4.469,6.196,3.241,-4.52,-4.58
373.0,3.604,4.469,6.196,3.241,-4.52,-4.58
377.0,2.71,5.431,4.925,3.691,-4.328,-4.499
380.0,2.71,5.431,4.925,3.691,-4.328,-4.499
384.0,1.998,6.357,2.983,3.691,-4.328,-4.259
388.0,1.998,6.357,2.983,4.127,-4.165,-4.259
392.0,1.998,6.357,2.983,4.127,-4.165,-4.259
395.0,1.789,7.553,0.648,4.498,-3.968,-3.904
399.0,1.789,7.553,0.648,4.498,-3.968,-3.904
403.0,1.789,7.553,0.648,4.498,-3.968,-3.904
406.0,2.375,9.269,-1.993,4.791,-3.703,-3.46
410.0,2.375,9.269,-1.993,4.791,-3.703,-3.46
414.0,3.748,11.3,-5.157,4.967,-3.334,-2.937
418.0,3.748,11.3,-5.157,4.967,-3.334,-2.937
422.0,3.748,11.3,-5.157,4.967,-3.334,-2.937
426.0,5.3,13.746,-8.249,4.995,-2.761,-2.241
430.0,5.3,13.746,-8.249,4.995,-2.761,-2.241
434.0,6.601,15.836,-10.511,4.995,-2.007,-1.307
438.0,6.601,15.836,-10.511,4.995,-2.007,-1.307
442.0,6.601,15.836,-10.511,4.995,-2.007,-1.307
446.0,7.396,17.336,-11.822,4.979,-1.156,-0.254
450.0,7.396,17.336,-11.822,4.979,-1.156,-0.254
454.0,7.425,18.209,-11.891,4.87,-0.284,0.819
457.0,7.425,18.209,-11.891,4.87,-0.284,0.819
461.0,7.425,18.209,-11.891,4.87,-0.284,0.819
465.0,7.025,17.936,-10.963,4.672,0.527,1.857
469.0,7.025,17.936,-10.963,4.672,0.527,1.857
473.0,6.363,16.863,-9.814,4.672,0.527,2.803
477.0,6.363,16.863,-9.814,4.459,1.227,2.803
480.0,6.363,16.863,-9.814,4.459,1.227,2.803
484.0,5.562,15.43,-8.73,4.246,1.838,3.619
488.0,5.562,15.43,-8.73,4.246,1.838,3.619
492.0,5.562,15.43,-8.73,4.246,1.838,3.619
495.0,4.784,13.898,-7.667,4.0,2.386,4.271
499.0,4.784,13.898,-7.667,4.0,2.386,4.271
503.0,4.191,12.659,-6.982,4.0,2.871,4.744
507.0,4.191,12.659,-6.982,3.648,2.871,4.744
510.0,4.191,12.659,-6.982,3.648,2.871,4.744
514.0,3.718,11.367,-6.068,3.142,3.305,4.989
518.0,3.718,11.367,-6.068,3.142,3.305,4.989
521.0,3.718,11.367,-6.068,3.142,3.305,4.989
525.0,3.22,10.059,-5.664,2.439,3.649,5.013
529.0,3.22,10.059,-5.664,2.439,3.649,5.013
533.0,2.451,8.517,-5.179,1.461,3.911,5.013
536.0,2.451,8.517,-5.179,1.461,3.911,5.013
540.0,2.451,8.517,-5.179,1.461,3.911,5.013
544.0,0.666,5.503,-3.259,0.25,4.058,4.959
547.0,0.666,5.503,-3.259,0.25,4.058,4.959
551.0,0.666,5.503,-3.259,0.25,4.058,4.959
555.0,-2.259,1.226,0.772,-1.044,3.999,4.548
558.0,-2.259,1.226,0.772,-1.044,3.999,4.548
562.0,-6.91,-3.539,6.188,-1.044,3.674,3.706
566.0,-6.91,-3.539,6.188,-2.367,3.674,3.706
570.0,-6.91,-3.539,6.188,-2.367,3.674,3.706
573.0,-12.815,-7.592,9.891,-3.735,2.884,2.556
577.0,-12.815,-7.592,9.891,-3.735,2.884,2.556
581.0,-17.718,-11.152,10.811,-3.735,2.884,2.556
585.0,-17.718,-11.152,10.811,-4.835,1.767,1.289
589.0,-17.718,-11.152,10.811,-4.835,1.767,1.289
594.0,-19.579,-14.475,10.746,-5.013,0.604,-0.056
598.0,-19.579,-14.475,10.746,-5.013,0.604,-0.056
602.0,-17.998,-18.191,9.322,-5.013,-0.555,-1.346
606.0,-17.998,-18.191,9.322,-5.013,-0.555,-1.346
610.0,-17.998,-18.191,9.322,-5.013,-0.555,-1.346
614.0,-12.009,-19.6,6.471,-5.013,-1.53,-2.544
619.0,-12.009,-19.6,6.471,-5.013,-1.53,-2.544
623.0,-4.878,-19.6,3.842,-5.013,-2.108,-3.611
627.0,-4.878,-19.6,3.842,-5.013,-2.108,-3.611
631.0,1.082,-19.6,2.724,-5.013,-2.108,-4.501
635.0,1.082,-19.6,2.724,-5.011,-2.278,-4.501
639.0,1.082,-19.6,2.724,-5.011,-2.278,-4.501
643.0,6.395,-18.971,2.954,-4.479,-2.264,-4.967
647.0,6.395,-18.971,2.954,-4.479,-2.264,-4.967
651.0,9.215,-16.322,3.885,-4.479,-2.147,-4.995
655.0,9.215,-16.322,3.885,-2.6,-2.147,-4.995
659.0,9.215,-16.322,3.885,-2.6,-2.147,-4.995
663.0,7.629,-12.525,4.386,-0.402,-2.06,-4.995
667.0,7.629,-12.525,4.386,-0.402,-2.06,-4.995
671.0,3.441,-6.887,4.049,1.658,-2.06,-4.995
675.0,3.441,-6.887,4.049,1.658,-2.06,-4.995
678.0,3.441,-6.887,4.049,1.658,-2.06,-4.995
682.0,0.607,-0.46,2.873,3.491,-2.142,-4.995
686.0,0.607,-0.46,2.873,3.491,-2.142,-4.995
690.0,-0.077,4.462,0.83,3.491,-2.142,-4.995
694.0,-0.077,4.462,0.83,4.803,-2.278,-4.995
698.0,-0.077,4.462,0.83,4.803,-2.278,-4.995
701.0,0.903,10.778,-2.574,4.995,-2.446,-4.984
705.0,0.903,10.778,-2.574,4.995,-2.446,-4.984
709.0,0.903,10.778,-7.834,4.995,-2.446,-4.984
713.0,2.904,17.903,-7.834,4.995,-2.646,-4.703
717.0,2.904,17.903,-7.834,4.995,-2.646,-4.703
721.0,7.564,19.593,-12.86,4.995,-2.681,-4.041
725.0,7.564,19.593,-12.86,4.995,-2.681,-4.041
729.0,7.564,19.593,-12.86,4.995,-2.681,-4.041
733.0,12.463,19.596,-16.718,4.995,-2.164,-2.945
737.0,12.463,19.596,-16.718,4.995,-2.164,-2.945
741.0,13.684,19.596,-19.464,4.995,-1.223,-1.585
745.0,13.684,19.596,-19.464,4.995,-1.223,-1.585
749.0,12.174,19.596,-19.591,4.995,-1.223,-1.585
753.0,12.174,19.596,-19.591,4.972,-0.066,-0.334
757.0,12.174,19.596,-19.591,4.972,-0.066,-0.334
761.0,10.173,19.596,-19.596,3.726,0.957,0.315
765.0,10.173,19.596,-19.596,3.726,0.957,0.315
769.0,8.633,19.596,-17.795,3.726,1.769,0.741
773.0,8.633,19.596,-17.795,1.03,1.769,0.741
777.0,8.633,19.596,-17.795,1.03,1.769,0.741
781.0,7.741,19.596,-13.472,-0.77,2.489,1.304
785.0,7.741,19.596,-13.472,-0.77,2.489,1.304
788.0,7.024,19.596,-10.876,-0.77,2.489,1.304
792.0,7.024,19.596,-10.876,-1.617,3.08,1.943
796.0,7.024,19.596,-10.876,-1.617,3.08,1.943
800.0,6.407,19.596,-8.799,-1.909,3.558,2.651
804.0,6.407,19.596,-8.799,-1.909,3.558,2.651
808.0,6.407,19.596,-7.252,-1.909,3.558,2.651
812.0,6.292,19.065,-7.252,-1.784,3.905,3.411
815.0,6.292,19.065,-7.252,-1.784,3.905,3.411
819.0,6.367,16.394,-5.797,-1.37,4.198,4.167
823.0,6.367,16.394,-5.797,-1.37,4.198,4.167
827.0,6.367,16.394,-5.797,-1.37,4.198,4.167
831.0,6.361,13.223,-4.473,-0.817,4.48,4.824
835.0,6.361,13.223,-4.473,-0.817,4.48,4.824
838.0,5.944,10.323,-3.044,-0.817,4.757,5.012
842.0,5.944,10.323,-3.044,-0.233,4.757,5.012
846.0,5.944,10.323,-3.044,-0.233,4.757,5.012
850.0,4.876,8.012,-0.997,0.289,4.955,5.013
853.0,4.876,8.012,-0.997,0.289,4.955,5.013
857.0,4.876,8.012,-0.997,0.289,4.955,5.013
861.0,3.349,5.957,1.353,0.661,4.987,5.013
864.0,3.349,5.957,1.353,0.661,4.987,5.013
868.0,1.761,4.172,3.161,0.661,4.839,5.013
871.0,1.761,4.172,3.161,0.833,4.839,5.013
875.0,1.761,4.172,3.161,0.833,4.839,5.013
879.0,0.727,2.553,4.217,0.767,4.538,5.013
882.0,0.727,2.553,4.217,0.767,4.538,5.013
886.0,0.727,2.553,4.217,0.767,4.538,5.013
889.0,-0.331,1.175,5.892,0.376,4.216,5.013
893.0,-0.331,1.175,5.892,0.376,4.216,5.013
897.0,-0.331,1.175,5.892,0.376,4.216,5.013
900.0,-3.099,0.187,8.282,-0.423,3.852,5.013
904.0,-3.099,0.187,8.282,-0.423,3.852,5.013
908.0,-6.689,-2.28,9.744,-1.555,3.216,4.886
911.0,-6.689,-2.28,9.744,-1.555,3.216,4.886
915.0,-6.689,-2.28,9.744,-1.555,3.216,4.886
919.0,-9.861,-5.458,10.543,-2.676,2.296,4.199
923.0,-9.861,-5.458,10.543,-2.676,2.296,4.199
927.0,-12.34,-9.074,10.615,-2.676,2.296,3.21
931.0,-12.34,-9.074,10.615,-3.668,1.159,3.21
935.0,-12.34,-9.074,10.615,-3.668,1.159,3.21
939.0,-13.07,-12.988,10.374,-4.439,-0.001,1.964
943.0,-13.07,-12.988,10.374,-4.439,-0.001,1.964
947.0,-11.805,-16.105,9.577,-4.916,-0.995,0.407
951.0,-11.805,-16.105,9.577,-4.916,-0.995,0.407
955.0,-11.805,-16.105,9.577,-4.916,-0.995,0.407
959.0,-8.286,-17.245,8.156,-5.013,-1.783,-1.282
964.0,-8.286,-17.245,8.156,-5.013,-1.783,-1.282
968.0,-3.834,-16.323,6.313,-5.013,-2.271,-2.831
972.0,-3.834,-16.323,6.313,-5.013,-2.271,-2.831
976.0,-3.834,-16.323,4.867,-5.013,-2.271,-2.831
980.0,-0.01,-14.93,4.867,-4.974,-2.454,-4.046
984.0,-0.01,-14.93,4.867,-4.974,-2.454,-4.046
988.0,2.872,-14.13,3.949,-4.569,-2.439,-4.838
992.0,2.872,-14.13,3.949,-4.569,-2.439,-4.838
996.0,4.679,-13.355,3.303,-4.569,-2.439,-4.995
1000.0,4.679,-13.355,3.303,-3.765,-2.335,-4.995
1004.0,4.679,-13.355,3.303,-3.765,-2.335,-4.995
1008.0,4.976,-12.091,2.627,-2.707,-2.171,-4.995
1012.0,4.976,-12.091,2.627,-2.707,-2.171,-4.995
1016.0,3.943,-10.33,1.886,-1.514,-1.982,-4.995
1020.0,3.943,-10.33,1.886,-1.514,-1.982,-4.995
1025.0,3.943,-10.33,1.886,-1.514,-1.982,-4.995
1029.0,2.182,-7.809,1.6,-0.308,-1.8,-4.995
1033.0,2.182,-7.809,1.6,-0.308,-1.8,-4.995
1037.0,0.861,-4.253,1.692,0.863,-1.655,-4.995
1040.0,0.861,-4.253,1.692,0.863,-1.655,-4.995
1044.0,0.861,-4.253,1.692,0.863,-1.655,-4.995
1048.0,0.559,-0.075,1.518,2.051,-1.575,-4.995
1052.0,0.559,-0.075,1.518,2.051,-1.575,-4.995
1056.0,1.319,4.359,0.403,3.323,-1.554,-4.995
1060.0,1.319,4.359,0.403,3.323,-1.554,-4.995
1064.0,1.319,4.359,0.403,3.323,-1.554,-4.995
1068.0,2.774,9.88,-1.828,4.547,-1.543,-4.995
1071.0,2.774,9.88,-1.828,4.547,-1.543,-4.995
1075.0,4.406,16.4,-5.505,4.99,-1.554,-4.995
1079.0,4.406,16.4,-5.505,4.99,-1.554,-4.995
1083.0,4.406,16.4,-5.505,4.99,-1.554,-4.995
1087.0,6.66,19.567,-9.509,4.995,-1.542,-4.979
1091.0,6.66,19.567,-9.509,4.995,-1.542,-4.979
1095.0,9.157,19.596,-13.273,4.995,-1.262,-4.396
1099.0,9.157,19.596,-13.273,4.995,-1.262,-4.396
1103.0,9.157,19.596,-13.273,4.995,-1.262,-4.396
1108.0,11.277,19.596,-17.565,4.995,-0.673,-3.028
1112.0,11.277,19.596,-17.565,4.995,-0.673,-3.028
1116.0,11.573,19.596,-19.571,4.995,0.179,-1.543
1120.0,11.573,19.596,-19.571,4.995,0.179,-1.543
1124.0,11.3,19.596,-19.596,4.995,0.179,-1.543
1128.0,11.3,19.596,-19.596,4.946,1.069,-0.203
1132.0,11.3,19.596,-19.596,4.946,1.069,-0.203
1136.0,10.862,19.596,-19.596,3.838,1.886,0.683
1140.0,10.862,19.596,-19.596,3.838,1.886,0.683
1144.0,9.969,19.596,-18.095,3.838,2.65,1.419
1148.0,9.969,19.596,-18.095,1.802,2.65,1.419
1152.0,9.969,19.596,-18.095,1.802,2.65,1.419
1156.0,8.858,19.596,-14.798,0.087,3.319,2.132
1160.0,8.858,19.596,-14.798,0.087,3.319,2.132
1164.0,7.878,19.596,-12.327,0.087,3.319,2.791
1168.0,7.878,19.596,-12.327,-1.184,3.871,2.791
1172.0,7.878,19.596,-12.327,-1.184,3.871,2.791
1176.0,7.155,19.594,-9.955,-2.048,4.317,3.435
1180.0,7.155,19.594,-9.955,-2.048,4.317,3.435
1184.0,6.24,17.327,-7.245,-2.048,4.317,4.073
1187.0,6.24,17.327,-7.245,-2.485,4.644,4.073
1191.0,6.24,17.327,-7.245,-2.485,4.644,4.073
1195.0,4.959,12.937,-4.569,-2.534,4.84,4.653
1199.0,4.959,12.937,-4.569,-2.534,4.84,4.653
1203.0,3.389,9.221,-2.314,-2.534,4.84,4.653
1207.0,3.389,9.221,-2.314,-2.363,4.923,4.987
1211.0,3.389,9.221,-2.314,-2.363,4.923,4.987
1215.0,1.839,5.987,-0.415,-2.13,4.874,5.013
1218.0,1.839,5.987,-0.415,-2.13,4.874,5.013
1222.0,1.839,5.987,-0.415,-2.13,4.874,5.013
1226.0,0.534,3.312,1.336,-1.922,4.679,5.013
1230.0,0.534,3.312,1.336,-1.922,4.679,5.013
1233.0,-0.589,0.471,3.226,-1.783,4.392,5.013
1237.0,-0.589,0.471,3.226,-1.783,4.392,5.013
1241.0,-0.589,0.471,3.226,-1.783,4.392,5.013
1245.0,-2.169,-2.514,5.946,-1.769,4.051,5.013
1249.0,-2.169,-2.514,5.946,-1.769,4.051,5.013
1253.0,-4.896,-5.425,8.834,-1.769,4.051,5.013
1257.0,-4.896,-5.425,8.834,-1.915,3.615,5.013
1261.0,-4.896,-5.425,8.834,-1.915,3.615,5.013
1264.0,-9.662,-8.134,10.59,-2.207,2.917,4.777
1268.0,-9.662,-8.134,10.59,-2.207,2.917,4.777
1272.0,-14.906,-10.513,10.049,-2.207,2.917,3.713
1277.0,-14.906,-10.513,10.049,-2.633,1.821,3.713
1281.0,-14.906,-10.513,10.049,-2.633,1.821,3.713
1285.0,-18.468,-12.75,9.102,-3.059,0.579,2.311
1289.0,-18.468,-12.75,9.102,-3.059,0.579,2.311
1293.0,-17.26,-15.128,9.456,-3.369,-0.499,0.778
1297.0,-17.26,-15.128,9.456,-3.369,-0.499,0.778
1301.0,-17.26,-15.128,9.502,-3.369,-0.499,0.778
1306.0,-11.455,-16.68,9.502,-3.613,-1.404,-0.783
1310.0,-11.455,-16.68,9.502,-3.613,-1.404,-0.783
1314.0,-5.011,-15.748,8.104,-3.737,-2.009,-2.257
1318.0,-5.011,-15.748,8.104,-3.737,-2.009,-2.257
1322.0,0.042,-14.161,6.611,-3.705,-2.227,-3.459
1326.0,0.042,-14.161,6.611,-3.705,-2.227,-3.459
1331.0,0.042,-14.161,6.611,-3.705,-2.227,-3.459
1335.0,3.364,-13.111,5.489,-3.487,-2.244,-4.387
1339.0,3.364,-13.111,5.489,-3.487,-2.244,-4.387
1343.0,5.45,-12.01,4.268,-3.033,-2.225,-4.943
1347.0,5.45,-12.01,4.268,-3.033,-2.225,-4.943
1351.0,5.45,-10.697,3.139,-3.033,-2.225,-4.943
1355.0,5.804,-10.697,3.139,-2.414,-2.119,-4.995
1359.0,5.804,-10.697,3.139,-2.414,-2.119,-4.995
1363.0,4.637,-8.894,2.39,-1.68,-1.937,-4.995
1367.0,4.637,-8.894,2.39,-1.68,-1.937,-4.995
1371.0,2.882,-6.699,2.278,-1.68,-1.937,-4.995
1375.0,2.882,-6.699,2.278,-0.882,-1.742,-4.995
1379.0,2.882,-6.699,2.278,-0.882,-1.742,-4.995
1383.0,1.707,-3.738,2.603,-0.04,-1.582,-4.995
1387.0,1.707,-3.738,2.603,-0.04,-1.582,-4.995
1391.0,1.37,0.683,2.764,0.905,-1.458,-4.995
1395.0,1.37,0.683,2.764,0.905,-1.458,-4.995
1399.0,1.37,0.683,2.764,0.905,-1.458,-4.995
1403.0,2.301,5.749,1.854,2.059,-1.386,-4.995
1406.0,2.301,5.749,1.854,2.059,-1.386,-4.995
1410.0,3.978,10.652,0.081,2.059,-1.386,-4.995
1414.0,3.978,10.652,0.081,3.351,-1.326,-4.995
1418.0,3.978,10.652,0.081,3.351,-1.326,-4.995
1422.0,5.733,16.996,-3.013,4.508,-1.299,-4.995
1426.0,5.733,16.996,-3.013,4.508,-1.299,-4.995
1430.0,5.733,19.586,-7.055,4.508,-1.299,-4.995
1434.0,7.63,19.586,-7.055,4.981,-1.283,-4.981
1438.0,7.63,19.586,-7.055,4.981,-1.283,-4.981
1442.0,9.854,19.596,-11.562,4.995,-1.058,-4.39
1446.0,9.854,19.596,-11.562,4.995,-1.058,-4.39
1450.0,11.719,19.596,-15.943,4.995,-1.058,-2.919
1454.0,11.719,19.596,-15.943,4.995,-0.513,-2.919
1458.0,11.719,19.596,-15.943,4.995,-0.513,-2.919
1463.0,10.947,19.596,-18.857,4.995,0.308,-1.246
1467.0,10.947,19.596,-18.857,4.995,0.308,-1.246
1471.0,9.588,19.596,-19.595,4.995,1.246,0.467
