deltaTime,Acc_X,Acc_Y,Acc_Z,Gyro_X,Gyro_Y,Gyro_Z
0.0,-0.755,-1.342,9.805,0.125,-0.09,0.042
3.0,-0.755,-1.342,9.805,0.125,-0.09,0.042
6.0,-0.755,-1.342,9.805,0.125,-0.09,0.042
9.0,-0.612,-1.354,9.927,0.145,-0.081,0.024
12.0,-0.612,-1.354,9.927,0.145,-0.081,0.024
15.0,-0.612,-1.354,9.927,0.145,-0.081,0.024
18.0,-0.54,-1.281,10.097,0.17,-0.067,0.002
21.0,-0.54,-1.281,10.097,0.17,-0.067,0.002
24.0,-0.54,-1.281,10.097,0.17,-0.067,0.002
27.0,-0.54,-1.229,10.317,0.17,-0.067,0.002
30.0,-0.548,-1.229,10.317,0.192,-0.058,-0.022
33.0,-0.548,-1.229,10.317,0.192,-0.058,-0.022
37.0,-0.548,-1.187,10.511,0.192,-0.058,-0.022
41.0,-0.607,-1.187,10.511,0.203,-0.061,-0.051
45.0,-0.607,-1.187,10.511,0.203,-0.061,-0.051
48.0,-0.65,-1.14,10.576,0.202,-0.086,-0.086
52.0,-0.65,-1.14,10.576,0.202,-0.086,-0.086
56.0,-0.65,-1.14,10.61,0.202,-0.086,-0.086
60.0,-0.675,-1.046,10.61,0.194,-0.111,-0.123
64.0,-0.675,-1.046,10.61,0.194,-0.111,-0.123
68.0,-0.669,-0.972,10.775,0.192,-0.119,-0.151
72.0,-0.669,-0.972,10.775,0.192,-0.119,-0.151
76.0,-0.669,-0.972,10.775,0.192,-0.119,-0.151
80.0,-0.619,-0.984,11.144,0.202,-0.113,-0.17
84.0,-0.619,-0.984,11.144,0.202,-0.113,-0.17
88.0,-0.711,-1.061,11.863,0.226,-0.103,-0.189
91.0,-0.711,-1.061,11.863,0.226,-0.103,-0.189
95.0,-0.711,-1.061,11.863,0.226,-0.103,-0.189
99.0,-0.724,-0.879,12.817,0.268,-0.119,-0.212
103.0,-0.724,-0.879,12.817,0.268,-0.119,-0.212
107.0,-0.961,-0.829,13.906,0.278,-0.146,-0.241
111.0,-0.961,-0.829,13.906,0.278,-0.146,-0.241
115.0,-0.961,-0.829,13.906,0.278,-0.146,-0.241
119.0,-1.371,-0.774,14.701,0.288,-0.251,-0.277
123.0,-1.371,-0.774,14.701,0.288,-0.251,-0.277
127.0,-1.592,-1.607,15.625,0.308,-0.4,-0.318
131.0,-1.592,-1.607,15.625,0.308,-0.4,-0.318
135.0,-1.592,-1.607,15.625,0.308,-0.4,-0.318
139.0,-1.43,-1.913,16.542,0.421,-0.622,-0.37
143.0,-1.43,-1.913,16.542,0.421,-0.622,-0.37
147.0,-1.129,-1.734,17.223,0.523,-0.904,-0.483
151.0,-1.129,-1.734,17.223,0.523,-0.904,-0.483
155.0,-1.129,-1.734,17.47,0.523,-0.904,-0.483
159.0,-1.23,-1.425,17.47,0.545,-1.216,-0.647
163.0,-1.23,-1.425,17.47,0.545,-1.216,-0.647
167.0,-1.354,-1.198,17.805,0.511,-1.534,-0.834
171.0,-1.354,-1.198,17.805,0.511,-1.534,-0.834
175.0,-1.354,-1.196,18.2,0.511,-1.534,-0.834
179.0,-1.396,-1.196,18.2,0.436,-1.853,-1.02
183.0,-1.396,-1.196,18.2,0.436,-1.853,-1.02
187.0,-1.399,-1.338,18.726,0.308,-2.175,-1.205
191.0,-1.399,-1.338,18.726,0.308,-2.175,-1.205
195.0,-1.47,-1.749,19.451,0.308,-2.175,-1.205
199.0,-1.47,-1.749,19.451,0.116,-2.516,-1.396
203.0,-1.47,-1.749,19.451,0.116,-2.516,-1.396
207.0,-1.635,-2.277,19.6,-0.121,-2.883,-1.605
211.0,-1.635,-2.277,19.6,-0.121,-2.883,-1.605
215.0,-1.52,-3.092,19.6,-0.121,-3.27,-1.832
219.0,-1.52,-3.092,19.6,-0.354,-3.27,-1.832
223.0,-1.52,-3.092,19.6,-0.354,-3.27,-1.832
227.0,-0.979,-3.943,19.6,-0.522,-3.657,-2.102
231.0,-0.979,-3.943,19.6,-0.522,-3.657,-2.102
236.0,-0.496,-4.737,19.6,-0.578,-4.013,-2.425
240.0,-0.496,-4.737,19.6,-0.578,-4.013,-2.425
244.0,-0.496,-4.737,19.6,-0.578,-4.013,-2.425
248.0,-0.248,-5.316,19.59,-0.504,-4.342,-2.784
252.0,-0.248,-5.316,19.59,-0.504,-4.342,-2.784
256.0,0.045,-5.524,18.932,-0.302,-4.636,-3.141
260.0,0.045,-5.524,18.932,-0.302,-4.636,-3.141
264.0,0.482,-5.639,17.785,-0.302,-4.636,-3.141
268.0,0.482,-5.639,17.785,-0.003,-4.874,-3.464
272.0,0.482,-5.639,17.785,-0.003,-4.874,-3.464
276.0,0.849,-5.457,16.391,0.353,-4.985,-3.752
280.0,0.849,-5.457,16.391,0.353,-4.985,-3.752
284.0,1.115,-4.889,14.903,0.353,-4.985,-3.752
288.0,1.115,-4.889,14.903,0.735,-4.992,-4.008
292.0,1.115,-4.889,14.903,0.735,-4.992,-4.008
295.0,1.326,-4.103,13.384,1.116,-4.992,-4.228
299.0,1.326,-4.103,13.384,1.116,-4.992,-4.228
303.0,1.326,-3.203,11.894,1.116,-4.992,-4.228
307.0,1.443,-3.203,11.894,1.486,-4.992,-4.4
311.0,1.443,-3.203,11.894,1.486,-4.992,-4.4
315.0,1.397,-2.328,10.464,1.832,-4.992,-4.506
319.0,1.397,-2.328,10.464,1.832,-4.992,-4.506
323.0,1.397,-2.328,8.925,1.832,-4.992,-4.506
327.0,1.221,-1.415,8.925,2.141,-4.992,-4.555
330.0,1.221,-1.415,8.925,2.141,-4.992,-4.555
334.0,1.019,-0.516,7.381,2.409,-4.992,-4.546
338.0,1.019,-0.516,7.381,2.409,-4.992,-4.546
342.0,1.019,-0.516,7.381,2.409,-4.992,-4.546
346.0,0.762,0.281,6.006,2.619,-4.992,-4.491
349.0,0.762,0.281,6.006,2.619,-4.992,-4.491
353.0,0.489,0.922,4.781,2.619,-4.985,-4.408
357.0,0.489,0.922,4.781,2.768,-4.985,-4.408
361.0,0.489,0.922,4.781,2.768,-4.985,-4.408
364.0,0.119,1.641,3.775,2.87,-4.91,-4.307
368.0,0.119,1.641,3.775,2.87,-4.91,-4.307
372.0,0.119,1.641,3.775,2.87,-4.91,-4.307
376.0,-0.189,2.925,2.817,2.95,-4.78,-4.148
379.0,-0.189,2.925,2.817,2.95,-4.78,-4.148
383.0,-0.286,4.58,1.727,3.041,-4.659,-3.864
387.0,-0.286,4.58,1.727,3.041,-4.659,-3.864
391.0,-0.286,4.58,1.727,3.041,-4.659,-3.864
395.0,0.242,6.159,0.48,3.167,-4.546,-3.468
398.0,0.242,6.159,0.48,3.167,-4.546,-3.468
402.0,1.481,7.93,-0.636,3.167,-4.546,-3.468
406.0,1.481,7.93,-0.636,3.317,-4.396,-3.024
410.0,1.481,7.93,-0.636,3.317,-4.396,-3.024
414.0,2.544,10.901,-1.454,3.506,-4.184,-2.51
417.0,2.544,10.901,-1.454,3.506,-4.184,-2.51
421.0,2.544,10.901,-1.454,3.506,-4.184,-2.51
425.0,2.922,13.664,-2.304,3.76,-3.939,-1.791
429.0,2.922,13.664,-2.304,3.76,-3.939,-1.791
433.0,3.307,15.614,-3.33,4.019,-3.634,-0.786
437.0,3.307,15.614,-3.33,4.019,-3.634,-0.786
441.0,3.307,15.614,-3.33,4.019,-3.634,-0.786
445.0,3.913,16.265,-4.13,4.216,-3.232,0.398
449.0,3.913,16.265,-4.13,4.216,-3.232,0.398
452.0,4.298,16.057,-4.625,4.341,-2.776,1.533
456.0,4.298,16.057,-4.625,4.341,-2.776,1.533
460.0,4.298,16.057,-4.625,4.341,-2.776,1.533
464.0,4.82,15.608,-5.652,4.351,-2.286,2.561
468.0,4.82,15.608,-5.652,4.351,-2.286,2.561
472.0,5.549,15.452,-7.137,4.351,-2.286,3.471
475.0,5.549,15.452,-7.137,4.253,-1.71,3.471
479.0,5.549,15.452,-7.137,4.253,-1.71,3.471
483.0,6.696,15.069,-8.572,4.068,-1.048,4.282
487.0,6.696,15.069,-8.572,4.068,-1.048,4.282
491.0,6.696,15.069,-9.201,4.068,-1.048,4.282
494.0,8.066,14.154,-9.201,3.749,-0.296,4.882
498.0,8.066,14.154,-9.201,3.749,-0.296,4.882
502.0,9.115,12.256,-8.568,3.258,0.498,5.013
506.0,9.115,12.256,-8.568,3.258,0.498,5.013
510.0,9.115,12.256,-8.568,3.258,0.498,5.013
513.0,9.302,10.02,-7.259,2.641,1.261,5.013
517.0,9.302,10.02,-7.259,2.641,1.261,5.013
521.0,8.408,7.88,-5.918,2.641,1.261,5.013
524.0,8.408,7.88,-5.918,1.925,1.941,5.013
528.0,8.408,7.88,-5.918,1.925,1.941,5.013
532.0,6.683,5.591,-4.627,1.117,2.519,5.013
535.0,6.683,5.591,-4.627,1.117,2.519,5.013
539.0,6.683,5.591,-4.627,1.117,2.519,5.013
543.0,4.056,2.428,-2.984,0.255,2.966,5.013
546.0,4.056,2.428,-2.984,0.255,2.966,5.013
550.0,4.056,2.428,-0.369,0.255,2.966,5.013
554.0,0.994,-1.603,-0.369,-0.637,3.225,4.917
557.0,0.994,-1.603,-0.369,-0.637,3.225,4.917
561.0,-3.234,-6.019,3.236,-1.571,3.234,4.213
565.0,-3.234,-6.019,3.236,-1.571,3.234,4.213
569.0,-3.234,-6.019,3.236,-1.571,3.234,4.213
573.0,-9.057,-9.716,6.215,-2.579,2.805,3.087
576.0,-9.057,-9.716,6.215,-2.579,2.805,3.087
580.0,-15.276,-12.569,6.943,-2.579,1.988,1.902
584.0,-15.276,-12.569,6.943,-3.599,1.988,1.902
588.0,-15.276,-12.569,6.943,-3.599,1.988,1.902
592.0,-19.513,-16.102,5.98,-4.478,1.168,0.717
596.0,-19.513,-16.102,5.98,-4.478,1.168,0.717
600.0,-19.378,-19.463,5.159,-4.964,0.266,-0.536
604.0,-19.378,-19.463,5.159,-4.964,0.266,-0.536
608.0,-19.378,-19.463,5.159,-4.964,0.266,-0.536
613.0,-13.54,-19.6,4.049,-5.013,-0.703,-1.964
617.0,-13.54,-19.6,4.049,-5.013,-0.703,-1.964
621.0,-5.776,-19.6,1.863,-4.935,-1.357,-3.301
625.0,-5.776,-19.6,1.863,-4.935,-1.357,-3.301
629.0,-5.776,-19.472,0.814,-4.935,-1.357,-3.301
633.0,-0.22,-19.472,0.814,-4.379,-1.568,-4.265
637.0,-0.22,-19.472,0.814,-4.379,-1.568,-4.265
641.0,3.544,-17.657,0.807,-3.487,-1.587,-4.884
645.0,3.544,-17.657,0.807,-3.487,-1.587,-4.884
649.0,5.872,-14.92,0.987,-3.487,-1.572,-4.995
653.0,5.872,-14.92,0.987,-2.415,-1.572,-4.995
657.0,5.872,-14.92,0.987,-2.415,-1.572,-4.995
661.0,6.215,-11.946,1.276,-1.251,-1.476,-4.995
665.0,6.215,-11.946,1.276,-1.251,-1.476,-4.995
669.0,5.115,-9.217,1.578,-0.086,-1.33,-4.995
673.0,5.115,-9.217,1.578,-0.086,-1.33,-4.995
677.0,5.115,-9.217,1.578,-0.086,-1.33,-4.995
681.0,3.657,-6.109,2.04,1.029,-1.188,-4.995
685.0,3.657,-6.109,2.04,1.029,-1.188,-4.995
689.0,2.515,-2.195,2.33,1.029,-1.188,-4.995
692.0,2.515,-2.195,2.33,2.131,-1.122,-4.995
696.0,2.515,-2.195,2.33,2.131,-1.122,-4.995
700.0,2.181,2.515,1.239,3.258,-1.173,-4.995
704.0,2.181,2.515,1.239,3.258,-1.173,-4.995
707.0,2.181,2.515,1.239,3.258,-1.173,-4.995
711.0,2.767,9.548,-1.104,4.373,-1.251,-4.995
715.0,2.767,9.548,-1.104,4.373,-1.251,-4.995
719.0,4.467,17.262,-4.772,4.967,-1.349,-4.995
723.0,4.467,17.262,-4.772,4.967,-1.349,-4.995
727.0,4.467,17.262,-4.772,4.967,-1.349,-4.995
731.0,8.632,19.589,-8.66,4.995,-1.409,-4.965
734.0,8.632,19.589,-8.66,4.995,-1.409,-4.965
738.0,13.504,19.596,-12.667,4.995,-1.153,-4.297
742.0,13.504,19.596,-12.667,4.995,-1.153,-4.297
747.0,13.504,19.596,-12.667,4.995,-1.153,-4.297
751.0,15.344,19.596,-16.126,4.995,-0.46,-2.907
755.0,15.344,19.596,-16.126,4.995,-0.46,-2.907
759.0,13.21,19.596,-18.561,4.937,0.476,-1.479
763.0,13.21,19.596,-18.561,4.937,0.476,-1.479
767.0,13.21,19.596,-18.561,4.937,0.476,-1.479
771.0,9.945,19.596,-18.794,3.873,1.402,-0.213
775.0,9.945,19.596,-18.794,3.873,1.402,-0.213
779.0,7.709,19.596,-15.143,2.1,2.132,0.81
782.0,7.709,19.596,-15.143,2.1,2.132,0.81
786.0,7.709,19.596,-15.143,2.1,2.132,0.81
790.0,7.455,19.596,-10.29,0.722,2.627,1.724
794.0,7.455,19.596,-10.29,0.722,2.627,1.724
798.0,7.292,19.596,-7.799,-0.19,2.983,2.566
801.0,7.292,19.596,-7.799,-0.19,2.983,2.566
805.0,7.292,19.596,-7.799,-0.19,2.983,2.566
809.0,7.26,19.596,-7.033,-0.747,3.288,3.349
813.0,7.26,19.596,-7.033,-0.747,3.288,3.349
817.0,7.689,19.575,-6.535,-0.747,3.288,3.349
821.0,7.689,19.575,-6.535,-1.039,3.571,4.116
824.0,7.689,19.575,-6.535,-1.039,3.571,4.116
828.0,8.436,18.112,-6.112,-1.108,3.867,4.787
832.0,8.436,18.112,-6.112,-1.108,3.867,4.787
836.0,8.436,18.112,-6.112,-1.108,3.867,4.787
840.0,8.332,15.028,-4.631,-1.071,4.195,5.011
844.0,8.332,15.028,-4.631,-1.071,4.195,5.011
847.0,7.104,11.623,-2.685,-0.961,4.467,5.013
851.0,7.104,11.623,-2.685,-0.961,4.467,5.013
855.0,7.104,11.623,-2.685,-0.961,4.467,5.013
859.0,4.912,8.22,-0.698,-0.824,4.608,5.013
863.0,4.912,8.22,-0.698,-0.824,4.608,5.013
866.0,2.072,4.308,1.461,-0.824,4.608,5.013
870.0,2.072,4.308,1.461,-0.769,4.57,5.013
874.0,2.072,4.308,1.461,-0.769,4.57,5.013
877.0,-0.581,0.226,3.154,-0.909,4.327,5.013
881.0,-0.581,0.226,3.154,-0.909,4.327,5.013
885.0,-0.581,0.226,3.154,-0.909,4.327,5.013
888.0,-2.971,-4.189,4.976,-1.273,4.003,5.013
892.0,-2.971,-4.189,4.976,-1.273,4.003,5.013
896.0,-6.491,-8.048,6.111,-1.273,3.59,5.007
900.0,-6.491,-8.048,6.111,-1.865,3.59,5.007
904.0,-6.491,-8.048,6.111,-1.865,3.59,5.007
907.0,-11.113,-10.57,6.523,-2.554,2.926,4.573
911.0,-11.113,-10.57,6.523,-2.554,2.926,4.573
915.0,-15.984,-13.022,7.906,-2.554,2.926,4.573
919.0,-15.984,-13.022,7.906,-3.204,2.064,3.353
923.0,-15.984,-13.022,7.906,-3.204,2.064,3.353
927.0,-19.438,-16.391,9.334,-3.737,1.032,1.921
931.0,-19.438,-16.391,9.334,-3.737,1.032,1.921
935.0,-18.829,-19.365,9.243,-3.737,1.032,0.399
939.0,-18.829,-19.365,9.243,-4.15,-0.177,0.399
944.0,-18.829,-19.365,9.243,-4.15,-0.177,0.399
948.0,-12.922,-19.6,7.564,-4.451,-1.268,-1.148
952.0,-12.922,-19.6,7.564,-4.451,-1.268,-1.148
956.0,-5.811,-18.604,4.544,-4.611,-1.975,-2.517
960.0,-5.811,-18.604,4.544,-4.611,-1.975,-2.517
964.0,-5.811,-18.604,4.544,-4.611,-1.975,-2.517
968.0,0.062,-16.543,2.462,-4.567,-2.249,-3.569
972.0,0.062,-16.543,2.462,-4.567,-2.249,-3.569
976.0,4.61,-15.443,1.733,-4.301,-2.22,-4.446
980.0,4.61,-15.443,1.733,-4.301,-2.22,-4.446
984.0,4.61,-15.443,1.492,-4.301,-2.22,-4.446
988.0,8.121,-13.938,1.492,-3.745,-2.104,-4.96
992.0,8.121,-13.938,1.492,-3.745,-2.104,-4.96
996.0,9.527,-12.165,1.735,-2.989,-1.889,-4.995
1000.0,9.527,-12.165,1.735,-2.989,-1.889,-4.995
1004.0,8.682,-10.395,2.139,-2.989,-1.889,-4.995
1008.0,8.682,-10.395,2.139,-2.109,-1.637,-4.995
1012.0,8.682,-10.395,2.139,-2.109,-1.637,-4.995
1016.0,6.452,-8.489,2.61,-1.185,-1.418,-4.995
1020.0,6.452,-8.489,2.61,-1.185,-1.418,-4.995
1024.0,4.171,-5.608,3.353,-1.185,-1.289,-4.995
1028.0,4.171,-5.608,3.353,-0.253,-1.289,-4.995
1032.0,4.171,-5.608,3.353,-0.253,-1.289,-4.995
1036.0,2.94,-1.442,3.927,0.744,-1.282,-4.995
1040.0,2.94,-1.442,3.927,0.744,-1.282,-4.995
1044.0,3.27,6.03,3.571,0.744,-1.376,-4.995
1048.0,3.27,6.03,3.571,1.883,-1.376,-4.995
1052.0,3.27,6.03,3.571,1.883,-1.376,-4.995
1056.0,5.3,15.073,1.874,3.162,-1.546,-4.995
1060.0,5.3,15.073,1.874,3.162,-1.546,-4.995
1063.0,8.604,19.499,-0.552,3.162,-1.546,-4.995
1067.0,8.604,19.499,-0.552,4.256,-1.762,-4.98
1071.0,8.604,19.499,-0.552,4.256,-1.762,-4.98
1075.0,12.305,19.596,-4.54,4.889,-1.836,-4.428
1080.0,12.305,19.596,-4.54,4.889,-1.836,-4.428
1084.0,14.556,19.596,-9.124,4.889,-1.508,-2.988
1088.0,14.556,19.596,-9.124,4.995,-1.508,-2.988
1092.0,14.556,19.596,-9.124,4.995,-1.508,-2.988
1096.0,14.595,19.596,-12.942,4.995,-0.799,-1.199
1100.0,14.595,19.596,-12.942,4.995,-0.799,-1.199
1104.0,13.962,19.596,-14.984,4.994,0.171,0.591
1108.0,13.962,19.596,-14.984,4.994,0.171,0.591
1112.0,13.962,19.596,-14.984,4.994,0.171,0.591
1116.0,13.019,19.596,-14.119,4.665,1.172,2.086
1120.0,13.019,19.596,-14.119,4.665,1.172,2.086
1124.0,11.502,19.596,-11.268,3.457,2.01,3.172
1128.0,11.502,19.596,-11.268,3.457,2.01,3.172
1132.0,11.502,19.596,-8.77,3.457,2.01,3.172
1136.0,10.183,19.596,-8.77,2.061,2.612,3.925
1140.0,10.183,19.596,-8.77,2.061,2.612,3.925
1144.0,9.423,19.596,-7.167,0.817,3.074,4.528
1148.0,9.423,19.596,-7.167,0.817,3.074,4.528
1151.0,9.423,19.596,-7.167,0.817,3.074,4.528
1155.0,8.524,19.453,-5.225,-0.193,3.478,4.954
1159.0,8.524,19.453,-5.225,-0.193,3.478,4.954
1163.0,7.013,15.724,-3.156,-0.941,3.789,5.013
1167.0,7.013,15.724,-3.156,-0.941,3.789,5.013
1171.0,7.013,15.724,-3.156,-0.941,3.789,5.013
1175.0,5.314,10.822,-1.366,-1.421,3.974,5.013
1179.0,5.314,10.822,-1.366,-1.421,3.974,5.013
1183.0,3.683,6.761,-0.228,-1.7,4.035,5.013
1186.0,3.683,6.761,-0.228,-1.7,4.035,5.013
1190.0,3.683,6.761,-0.228,-1.7,4.035,5.013
1194.0,2.003,2.718,0.322,-1.891,3.977,5.013
1198.0,2.003,2.718,0.322,-1.891,3.977,5.013
1202.0,0.607,-1.341,0.676,-1.891,3.977,5.013
1205.0,0.607,-1.341,0.676,-2.085,3.829,5.013
1209.0,0.607,-1.341,0.676,-2.085,3.829,5.013
1213.0,-1.088,-5.731,1.598,-2.299,3.678,5.013
1217.0,-1.088,-5.731,1.598,-2.299,3.678,5.013
1221.0,-1.088,-5.731,1.598,-2.299,3.678,5.013
1225.0,-4.242,-10.841,3.182,-2.542,3.384,5.011
1229.0,-4.242,-10.841,3.182,-2.542,3.384,5.011
1233.0,-8.557,-15.09,4.137,-2.742,2.824,4.639
1237.0,-8.557,-15.09,4.137,-2.742,2.824,4.639
1241.0,-8.557,-15.09,6.207,-2.742,2.824,4.639
1245.0,-15.033,-18.432,6.207,-2.705,2.146,3.345
1249.0,-15.033,-18.432,6.207,-2.705,2.146,3.345
1253.0,-19.511,-19.6,7.122,-2.332,1.427,1.862
1257.0,-19.511,-19.6,7.122,-2.332,1.427,1.862
1261.0,-17.581,-19.6,8.44,-2.332,1.427,0.357
1265.0,-17.581,-19.6,8.44,-1.782,0.489,0.357
1269.0,-17.581,-19.6,8.44,-1.782,0.489,0.357
1273.0,-9.169,-19.6,7.461,-1.209,-0.417,-1.064
1277.0,-9.169,-19.6,7.461,-1.209,-0.417,-1.064
1282.0,-1.99,-19.056,5.055,-0.768,-0.97,-2.269
1286.0,-1.99,-19.056,5.055,-0.768,-0.97,-2.269
1290.0,-1.99,-19.056,5.055,-0.768,-0.97,-2.269
1294.0,2.674,-16.695,3.404,-0.479,-1.175,-3.282
1298.0,2.674,-16.695,3.404,-0.479,-1.175,-3.282
1302.0,5.987,-14.444,2.632,-0.246,-1.227,-4.138
1306.0,5.987,-14.444,2.632,-0.246,-1.227,-4.138
1310.0,8.581,-12.617,2.698,-0.246,-1.227,-4.807
1315.0,8.581,-12.617,2.698,0.011,-1.186,-4.807
1319.0,8.581,-12.617,2.698,0.011,-1.186,-4.807
1322.0,9.716,-10.637,3.168,0.348,-1.074,-4.994
1326.0,9.716,-10.637,3.168,0.348,-1.074,-4.994
1330.0,9.215,-8.515,3.639,0.749,-0.98,-4.995
1334.0,9.215,-8.515,3.639,0.749,-0.98,-4.995
1338.0,9.215,-8.515,3.639,0.749,-0.98,-4.995
1342.0,7.75,-6.246,3.921,1.163,-0.948,-4.995
1346.0,7.75,-6.246,3.921,1.163,-0.948,-4.995
1350.0,6.234,-3.578,4.278,1.163,-0.948,-4.995
1354.0,6.234,-3.578,4.278,1.559,-0.972,-4.995
1358.0,6.234,-3.578,4.278,1.559,-0.972,-4.995
1362.0,5.225,-0.173,4.762,1.947,-1.063,-4.995
1366.0,5.225,-0.173,4.762,1.947,-1.063,-4.995
1370.0,4.82,4.227,4.762,1.947,-1.063,-4.995
1373.0,4.82,4.227,4.762,2.376,-1.247,-4.995
1377.0,4.82,4.227,4.762,2.376,-1.247,-4.995
1381.0,5.0,10.44,3.485,2.861,-1.524,-4.995
1385.0,5.0,10.44,3.485,2.861,-1.524,-4.995
1389.0,5.0,10.44,0.121,2.861,-1.524,-4.995
1393.0,5.99,17.893,0.121,3.367,-1.807,-4.995
1397.0,5.99,17.893,0.121,3.367,-1.807,-4.995
1401.0,7.61,19.594,-4.034,3.879,-1.924,-4.964
1405.0,7.61,19.594,-4.034,3.879,-1.924,-4.964
1409.0,7.61,19.594,-8.667,3.879,-1.924,-4.964
1413.0,10.393,19.596,-8.667,4.424,-1.742,-4.193
1417.0,10.393,19.596,-8.667,4.424,-1.742,-4.193
1421.0,12.645,19.596,-13.018,4.903,-1.169,-2.543
1425.0,12.645,19.596,-13.018,4.903,-1.169,-2.543
1429.0,13.122,19.596,-15.788,4.903,-0.316,-0.714
1433.0,13.122,19.596,-15.788,4.966,-0.316,-0.714
1437.0,13.122,19.596,-15.788,4.966,-0.316,-0.714
1442.0,12.992,19.596,-16.535,4.424,0.605,1.048
1445.0,12.992,19.596,-16.535,4.424,0.605,1.048
1449.0,11.816,19.596,-14.604,3.122,1.392,2.438
1453.0,11.816,19.596,-14.604,3.122,1.392,2.438
1457.0,11.816,19.596,-14.604,3.122,1.392,2.438
1461.0,9.879,19.596,-12.047,1.508,2.012,3.439
1465.0,9.879,19.596,-12.047,1.508,2.012,3.439
1469.0,8.574,19.596,-10.189,-0.021,2.528,4.201
1473.0,8.574,19.596,-10.189,-0.021,2.528,4.201
1477.0,8.574,19.596,-10.189,-0.021,2.528,4.201
