deltaTime,Acc_X,Acc_Y,Acc_Z,Gyro_X,Gyro_Y,Gyro_Z
0.0,-8.994,-1.887,4.126,-0.087,-0.184,0.123
3.0,-8.994,-1.887,4.126,-0.153,-0.174,0.155
6.0,-8.994,-1.887,4.126,-0.153,-0.174,0.155
9.0,-8.994,-1.887,4.126,-0.153,-0.174,0.155
12.0,-8.856,-1.799,4.366,-0.219,-0.158,0.187
15.0,-8.856,-1.799,4.366,-0.219,-0.158,0.187
18.0,-8.856,-1.799,4.366,-0.219,-0.158,0.187
21.0,-8.844,-1.758,4.359,-0.288,-0.147,0.201
24.0,-8.844,-1.758,4.359,-0.288,-0.147,0.201
27.0,-8.844,-1.758,4.359,-0.288,-0.147,0.201
30.0,-9.083,-1.815,4.35,-0.288,-0.144,0.207
33.0,-9.083,-1.815,4.35,-0.353,-0.144,0.207
37.0,-9.083,-1.815,4.35,-0.353,-0.144,0.207
41.0,-9.313,-1.905,4.162,-0.394,-0.152,0.211
45.0,-9.313,-1.905,4.162,-0.394,-0.152,0.211
48.0,-9.313,-1.905,4.162,-0.394,-0.152,0.211
52.0,-9.397,-1.952,4.033,-0.421,-0.172,0.216
56.0,-9.397,-1.952,4.033,-0.421,-0.172,0.216
60.0,-9.468,-2.164,4.211,-0.444,-0.196,0.224
64.0,-9.468,-2.164,4.211,-0.444,-0.196,0.224
67.0,-9.468,-2.164,4.211,-0.444,-0.196,0.224
71.0,-9.473,-2.396,4.559,-0.438,-0.221,0.238
75.0,-9.473,-2.396,4.559,-0.438,-0.221,0.238
79.0,-9.371,-2.625,4.997,-0.438,-0.221,0.238
83.0,-9.371,-2.625,4.997,-0.413,-0.24,0.241
87.0,-9.371,-2.625,4.997,-0.413,-0.24,0.241
90.0,-9.371,-3.112,5.451,-0.361,-0.26,0.221
94.0,-9.371,-3.112,5.451,-0.361,-0.26,0.221
98.0,-9.371,-3.112,5.451,-0.361,-0.26,0.221
102.0,-9.407,-3.776,5.714,-0.241,-0.285,0.168
106.0,-9.407,-3.776,5.714,-0.241,-0.285,0.168
110.0,-9.59,-4.356,5.964,-0.045,-0.323,0.079
114.0,-9.59,-4.356,5.964,-0.045,-0.323,0.079
117.0,-9.59,-4.356,5.964,-0.045,-0.323,0.079
121.0,-10.038,-4.282,5.844,0.167,-0.377,-0.041
125.0,-10.038,-4.282,5.844,0.167,-0.377,-0.041
129.0,-10.749,-4.992,5.985,0.36,-0.416,-0.171
133.0,-10.749,-4.992,5.985,0.36,-0.416,-0.171
137.0,-10.749,-4.992,5.985,0.36,-0.416,-0.171
141.0,-11.222,-5.277,6.391,0.618,-0.493,-0.273
145.0,-11.222,-5.277,6.391,0.618,-0.493,-0.273
149.0,-11.475,-5.449,6.636,0.893,-0.66,-0.396
153.0,-11.475,-5.449,6.636,0.893,-0.66,-0.396
157.0,-11.475,-5.449,6.636,0.893,-0.66,-0.396
161.0,-11.652,-5.045,6.785,1.118,-0.837,-0.574
165.0,-11.652,-5.045,6.785,1.118,-0.837,-0.574
169.0,-11.806,-4.371,7.239,1.246,-1.098,-0.804
173.0,-11.806,-4.371,7.239,1.246,-1.098,-0.804
177.0,-11.806,-4.126,7.865,1.246,-1.098,-0.804
181.0,-12.212,-4.126,7.865,1.262,-1.373,-1.019
185.0,-12.212,-4.126,7.865,1.262,-1.373,-1.019
189.0,-12.928,-3.985,8.566,1.25,-1.654,-1.215
193.0,-12.928,-3.985,8.566,1.25,-1.654,-1.215
197.0,-13.787,-3.901,9.06,1.25,-1.654,-1.215
201.0,-13.787,-3.901,9.06,1.214,-1.959,-1.407
205.0,-13.787,-3.901,9.06,1.214,-1.959,-1.407
209.0,-14.523,-3.932,9.649,1.157,-2.288,-1.596
213.0,-14.523,-3.932,9.649,1.157,-2.288,-1.596
217.0,-15.035,-4.172,10.184,1.157,-2.288,-1.772
221.0,-15.035,-4.172,10.184,1.082,-2.631,-1.772
225.0,-15.035,-4.172,10.184,1.082,-2.631,-1.772
229.0,-15.169,-4.473,10.543,0.995,-2.965,-1.937
234.0,-15.169,-4.473,10.543,0.995,-2.965,-1.937
238.0,-14.913,-4.955,11.217,0.903,-3.266,-2.083
242.0,-14.913,-4.955,11.217,0.903,-3.266,-2.083
246.0,-14.913,-4.955,11.217,0.903,-3.266,-2.083
250.0,-14.645,-5.784,12.199,0.811,-3.543,-2.208
254.0,-14.645,-5.784,12.199,0.811,-3.543,-2.208
258.0,-14.265,-6.696,13.077,0.753,-3.843,-2.343
262.0,-14.265,-6.696,13.077,0.753,-3.843,-2.343
266.0,-14.265,-7.208,13.811,0.753,-3.843,-2.343
270.0,-14.071,-7.208,13.811,0.736,-4.163,-2.506
274.0,-14.071,-7.208,13.811,0.736,-4.163,-2.506
278.0,-13.795,-7.363,14.17,0.783,-4.517,-2.674
282.0,-13.795,-7.363,14.17,0.783,-4.517,-2.674
287.0,-13.207,-7.335,14.289,0.783,-4.852,-2.829
291.0,-13.207,-7.335,14.289,0.896,-4.852,-2.829
295.0,-13.207,-7.335,14.289,0.896,-4.852,-2.829
299.0,-12.314,-7.205,14.359,1.08,-4.989,-2.947
303.0,-12.314,-7.205,14.359,1.08,-4.989,-2.947
307.0,-11.283,-7.277,14.453,1.308,-4.992,-3.028
311.0,-11.283,-7.277,14.453,1.308,-4.992,-3.028
315.0,-11.283,-7.277,14.453,1.308,-4.992,-3.028
319.0,-10.461,-7.201,14.243,1.544,-4.992,-3.108
323.0,-10.461,-7.201,14.243,1.544,-4.992,-3.108
327.0,-9.435,-6.949,14.124,1.762,-4.992,-3.168
331.0,-9.435,-6.949,14.124,1.762,-4.992,-3.168
335.0,-8.192,-6.699,14.457,1.762,-4.992,-3.168
339.0,-8.192,-6.699,14.457,1.931,-4.992,-3.198
343.0,-8.192,-6.699,14.457,1.931,-4.992,-3.198
347.0,-7.114,-6.382,14.707,2.058,-4.992,-3.224
351.0,-7.114,-6.382,14.707,2.058,-4.992,-3.224
355.0,-6.233,-6.573,14.892,2.058,-4.992,-3.224
359.0,-6.233,-6.573,14.892,2.183,-4.992,-3.267
363.0,-6.233,-6.573,14.892,2.183,-4.992,-3.267
367.0,-5.568,-6.888,14.635,2.334,-4.992,-3.331
371.0,-5.568,-6.888,14.635,2.334,-4.992,-3.331
375.0,-4.528,-7.402,14.207,2.334,-4.992,-3.418
379.0,-4.528,-7.402,14.207,2.512,-4.992,-3.418
383.0,-4.528,-7.402,14.207,2.512,-4.992,-3.418
387.0,-3.438,-8.068,13.671,2.701,-4.992,-3.545
391.0,-3.438,-8.068,13.671,2.701,-4.992,-3.545
395.0,-2.533,-8.403,12.66,2.886,-4.992,-3.704
399.0,-2.533,-8.403,12.66,2.886,-4.992,-3.704
403.0,-2.533,-8.403,12.66,2.886,-4.992,-3.704
407.0,-1.417,-8.368,11.517,3.053,-4.992,-3.862
411.0,-1.417,-8.368,11.517,3.053,-4.992,-3.862
415.0,-0.334,-8.173,10.446,3.196,-4.992,-4.029
419.0,-0.334,-8.173,10.446,3.196,-4.992,-4.029
423.0,-0.334,-8.173,10.446,3.196,-4.992,-4.029
427.0,0.553,-7.897,9.488,3.304,-4.992,-4.209
431.0,0.553,-7.897,9.488,3.304,-4.992,-4.209
435.0,0.998,-7.348,8.411,3.382,-4.992,-4.387
439.0,0.998,-7.348,8.411,3.382,-4.992,-4.387
442.0,0.998,-7.348,8.411,3.382,-4.992,-4.387
446.0,1.424,-6.93,7.259,3.436,-4.992,-4.545
450.0,1.424,-6.93,7.259,3.436,-4.992,-4.545
454.0,1.63,-6.4,6.205,3.436,-4.992,-4.545
458.0,1.63,-6.4,6.205,3.462,-4.992,-4.679
462.0,1.63,-6.4,6.205,3.462,-4.992,-4.679
465.0,1.557,-6.021,5.433,3.458,-4.992,-4.776
469.0,1.557,-6.021,5.433,3.458,-4.992,-4.776
473.0,1.557,-6.021,5.433,3.458,-4.992,-4.776
477.0,1.256,-6.031,4.957,3.431,-4.992,-4.844
481.0,1.256,-6.031,4.957,3.431,-4.992,-4.844
484.0,0.748,-6.072,4.602,3.403,-4.961,-4.896
488.0,0.748,-6.072,4.602,3.403,-4.961,-4.896
492.0,0.748,-6.072,4.602,3.403,-4.961,-4.896
496.0,-0.019,-6.187,4.176,3.395,-4.785,-4.916
500.0,-0.019,-6.187,4.176,3.395,-4.785,-4.916
504.0,-0.812,-6.394,3.418,3.417,-4.59,-4.897
508.0,-0.812,-6.394,3.418,3.417,-4.59,-4.897
512.0,-0.812,-6.394,3.418,3.417,-4.59,-4.897
515.0,-1.353,-6.394,2.469,3.475,-4.409,-4.856
519.0,-1.353,-6.394,2.469,3.475,-4.409,-4.856
523.0,-1.82,-5.894,1.621,3.475,-4.409,-4.8
527.0,-1.82,-5.894,1.621,3.571,-4.219,-4.8
531.0,-1.82,-5.894,1.621,3.571,-4.219,-4.8
535.0,-2.302,-5.003,0.791,3.707,-4.027,-4.711
539.0,-2.302,-5.003,0.791,3.707,-4.027,-4.711
543.0,-2.79,-3.575,-0.103,3.707,-4.027,-4.711
547.0,-2.79,-3.575,-0.103,3.869,-3.822,-4.574
551.0,-2.79,-3.575,-0.103,3.869,-3.822,-4.574
555.0,-3.02,-1.957,-1.001,4.047,-3.616,-4.369
559.0,-3.02,-1.957,-1.001,4.047,-3.616,-4.369
563.0,-2.953,0.285,-2.057,4.047,-3.404,-4.128
567.0,-2.953,0.285,-2.057,4.222,-3.404,-4.128
571.0,-2.953,0.285,-2.057,4.222,-3.404,-4.128
574.0,-2.733,3.884,-3.697,4.373,-3.153,-3.819
578.0,-2.733,3.884,-3.697,4.373,-3.153,-3.819
582.0,-1.815,7.918,-5.566,4.373,-3.153,-3.819
586.0,-1.815,7.918,-5.566,4.487,-2.827,-3.384
590.0,-1.815,7.918,-5.566,4.487,-2.827,-3.384
594.0,-0.41,11.847,-7.34,4.548,-2.392,-2.832
598.0,-0.41,11.847,-7.34,4.548,-2.392,-2.832
602.0,1.244,15.426,-8.509,4.548,-2.392,-2.832
606.0,1.244,15.426,-8.509,4.582,-1.85,-2.112
610.0,1.244,15.426,-8.509,4.582,-1.85,-2.112
614.0,2.718,17.635,-8.924,4.622,-1.235,-1.222
618.0,2.718,17.635,-8.924,4.622,-1.235,-1.222
622.0,2.718,19.054,-8.664,4.622,-1.235,-1.222
625.0,3.441,19.054,-8.664,4.62,-0.6,-0.238
629.0,3.441,19.054,-8.664,4.62,-0.6,-0.238
633.0,3.64,19.593,-8.414,4.543,0.009,0.756
637.0,3.64,19.593,-8.414,4.543,0.009,0.756
641.0,3.64,19.593,-8.414,4.543,0.009,0.756
644.0,3.712,19.596,-8.02,4.409,0.586,1.728
648.0,3.712,19.596,-8.02,4.409,0.586,1.728
652.0,4.028,19.596,-7.962,4.217,1.133,2.66
656.0,4.028,19.596,-7.962,4.217,1.133,2.66
659.0,4.028,19.596,-7.962,4.217,1.133,2.66
663.0,4.752,19.513,-7.776,3.964,1.67,3.472
667.0,4.752,19.513,-7.776,3.964,1.67,3.472
671.0,4.752,19.513,-7.15,3.964,1.67,3.472
674.0,5.512,18.293,-7.15,3.599,2.188,4.116
678.0,5.512,18.293,-7.15,3.599,2.188,4.116
682.0,5.832,16.728,-6.348,3.068,2.661,4.6
686.0,5.832,16.728,-6.348,3.068,2.661,4.6
689.0,5.832,16.728,-6.348,3.068,2.661,4.6
693.0,5.678,14.72,-5.288,2.301,3.057,4.909
697.0,5.678,14.72,-5.288,2.301,3.057,4.909
700.0,5.678,11.816,-4.068,2.301,3.057,4.909
704.0,5.04,11.816,-4.068,1.384,3.376,5.011
708.0,5.04,11.816,-4.068,1.384,3.376,5.011
712.0,3.623,8.882,-3.021,0.502,3.612,5.013
715.0,3.623,8.882,-3.021,0.502,3.612,5.013
719.0,3.623,8.882,-3.021,0.502,3.612,5.013
723.0,1.282,6.217,-2.246,-0.274,3.747,5.013
726.0,1.282,6.217,-2.246,-0.274,3.747,5.013
730.0,1.282,3.749,-1.193,-0.274,3.747,5.013
734.0,-1.52,3.749,-1.193,-0.998,3.744,4.999
738.0,-1.52,3.749,-1.193,-0.998,3.744,4.999
741.0,-4.464,0.768,0.88,-1.753,3.538,4.812
745.0,-4.464,0.768,0.88,-1.753,3.538,4.812
749.0,-4.464,0.768,0.88,-1.753,3.538,4.812
753.0,-7.339,-3.281,4.361,-2.604,3.09,4.289
756.0,-7.339,-3.281,4.361,-2.604,3.09,4.289
760.0,-10.978,-7.567,7.366,-2.604,2.392,3.377
764.0,-10.978,-7.567,7.366,-3.534,2.392,3.377
768.0,-10.978,-7.567,7.366,-3.534,2.392,3.377
772.0,-15.459,-10.839,7.864,-4.42,1.446,2.166
776.0,-15.459,-10.839,7.864,-4.42,1.446,2.166
780.0,-18.876,-12.735,6.68,-4.42,0.421,0.873
784.0,-18.876,-12.735,6.68,-4.957,0.421,0.873
788.0,-18.876,-12.735,6.68,-4.957,0.421,0.873
792.0,-18.156,-14.984,5.849,-5.013,-0.53,-0.403
796.0,-18.156,-14.984,5.849,-5.013,-0.53,-0.403
800.0,-12.339,-16.856,5.127,-5.001,-1.39,-1.649
804.0,-12.339,-16.856,5.127,-5.001,-1.39,-1.649
809.0,-12.339,-16.856,5.127,-5.001,-1.39,-1.649
813.0,-5.648,-16.759,3.953,-4.742,-1.978,-2.84
817.0,-5.648,-16.759,3.953,-4.742,-1.978,-2.84
821.0,-0.394,-15.403,2.903,-4.171,-2.186,-3.834
825.0,-0.394,-15.403,2.903,-4.171,-2.186,-3.834
829.0,3.119,-13.594,2.158,-4.171,-2.186,-4.605
833.0,3.119,-13.594,2.158,-3.475,-2.152,-4.605
837.0,3.119,-13.594,2.158,-3.475,-2.152,-4.605
841.0,5.249,-11.465,1.688,-2.664,-2.03,-4.977
845.0,5.249,-11.465,1.688,-2.664,-2.03,-4.977
849.0,5.821,-9.172,1.555,-2.664,-1.82,-4.995
853.0,5.821,-9.172,1.555,-1.75,-1.82,-4.995
857.0,5.821,-9.172,1.555,-1.75,-1.82,-4.995
861.0,5.248,-7.095,1.747,-0.777,-1.577,-4.995
865.0,5.248,-7.095,1.747,-0.777,-1.577,-4.995
869.0,4.082,-4.872,2.208,-0.777,-1.577,-4.995
872.0,4.082,-4.872,2.208,0.21,-1.348,-4.995
876.0,4.082,-4.872,2.208,0.21,-1.348,-4.995
880.0,2.937,-2.077,2.836,1.229,-1.185,-4.995
884.0,2.937,-2.077,2.836,1.229,-1.185,-4.995
888.0,2.937,-2.077,2.903,1.229,-1.185,-4.995
892.0,2.303,1.362,2.903,2.299,-1.14,-4.995
895.0,2.303,1.362,2.903,2.299,-1.14,-4.995
899.0,2.434,5.816,2.033,3.358,-1.189,-4.995
903.0,2.434,5.816,2.033,3.358,-1.189,-4.995
907.0,2.434,5.816,2.033,3.358,-1.189,-4.995
910.0,3.029,11.378,0.172,4.306,-1.29,-4.995
914.0,3.029,11.378,0.172,4.306,-1.29,-4.995
918.0,3.937,17.652,-2.294,4.306,-1.29,-4.995
922.0,3.937,17.652,-2.294,4.909,-1.413,-4.995
926.0,3.937,17.652,-2.294,4.909,-1.413,-4.995
930.0,5.693,19.592,-5.463,4.995,-1.49,-4.983
934.0,5.693,19.592,-5.463,4.995,-1.49,-4.983
937.0,8.637,19.596,-8.94,4.995,-1.49,-4.983
941.0,8.637,19.596,-8.94,4.995,-1.366,-4.521
945.0,8.637,19.596,-8.94,4.995,-1.366,-4.521
949.0,10.108,19.596,-12.035,4.995,-0.962,-3.441
953.0,10.108,19.596,-12.035,4.995,-0.962,-3.441
957.0,10.022,19.596,-14.435,4.995,-0.962,-3.441
961.0,10.022,19.596,-14.435,4.993,-0.318,-2.242
965.0,10.022,19.596,-14.435,4.993,-0.318,-2.242
970.0,8.844,19.596,-16.195,4.607,0.425,-0.919
973.0,8.844,19.596,-16.195,4.607,0.425,-0.919
977.0,7.26,19.596,-15.885,4.607,1.118,0.352
981.0,7.26,19.596,-15.885,3.188,1.118,0.352
985.0,7.26,19.596,-15.885,3.188,1.118,0.352
989.0,5.96,19.596,-13.448,1.538,1.619,1.365
993.0,5.96,19.596,-13.448,1.538,1.619,1.365
996.0,5.96,19.596,-10.499,1.538,1.619,1.365
1000.0,5.428,19.596,-10.499,0.116,1.948,2.221
1004.0,5.428,19.596,-10.499,0.116,1.948,2.221
1008.0,5.288,19.596,-9.072,-0.907,2.202,2.964
1012.0,5.288,19.596,-9.072,-0.907,2.202,2.964
1016.0,5.288,19.596,-9.072,-0.907,2.202,2.964
1020.0,5.238,19.596,-8.343,-1.497,2.471,3.68
1024.0,5.238,19.596,-8.343,-1.497,2.471,3.68
1028.0,5.535,19.506,-7.407,-1.731,2.742,4.415
1032.0,5.535,19.506,-7.407,-1.731,2.742,4.415
1035.0,5.535,19.506,-7.407,-1.731,2.742,4.415
1039.0,5.71,17.406,-6.226,-1.775,2.992,4.941
1043.0,5.71,17.406,-6.226,-1.775,2.992,4.941
1047.0,5.317,14.407,-4.862,-1.734,3.208,5.013
1051.0,5.317,14.407,-4.862,-1.734,3.208,5.013
1055.0,5.317,14.407,-4.862,-1.734,3.208,5.013
1059.0,4.386,11.27,-3.44,-1.648,3.373,5.013
1063.0,4.386,11.27,-3.44,-1.648,3.373,5.013
1067.0,3.169,8.198,-2.061,-1.566,3.464,5.013
1070.0,3.169,8.198,-2.061,-1.566,3.464,5.013
1074.0,3.169,8.198,-2.061,-1.566,3.464,5.013
1078.0,1.682,5.067,-0.89,-1.54,3.459,5.013
1082.0,1.682,5.067,-0.89,-1.54,3.459,5.013
1086.0,-0.068,1.626,-0.182,-1.54,3.459,5.013
1090.0,-0.068,1.626,-0.182,-1.633,3.341,5.013
1094.0,-0.068,1.626,-0.182,-1.633,3.341,5.013
1097.0,-1.452,-2.255,0.415,-1.888,3.117,5.013
1101.0,-1.452,-2.255,0.415,-1.888,3.117,5.013
1105.0,-3.001,-6.831,2.435,-1.888,3.117,5.013
1109.0,-3.001,-6.831,2.435,-2.347,2.87,5.012
1113.0,-3.001,-6.831,2.435,-2.347,2.87,5.012
1117.0,-6.248,-10.977,4.86,-2.943,2.578,4.683
1121.0,-6.248,-10.977,4.86,-2.943,2.578,4.683
1125.0,-11.14,-13.333,5.999,-2.943,2.578,4.683
1129.0,-11.14,-13.333,5.999,-3.6,2.021,3.386
1133.0,-11.14,-13.333,5.999,-3.6,2.021,3.386
1137.0,-15.962,-14.392,7.083,-4.08,1.222,1.865
1141.0,-15.962,-14.392,7.083,-4.08,1.222,1.865
1145.0,-18.719,-16.15,8.295,-4.22,0.378,0.442
1149.0,-18.719,-16.15,8.295,-4.22,0.378,0.442
1154.0,-18.719,-16.15,8.295,-4.22,0.378,0.442
1158.0,-14.99,-18.593,8.122,-4.041,-0.475,-0.839
1162.0,-14.99,-18.593,8.122,-4.041,-0.475,-0.839
1166.0,-7.143,-18.36,6.173,-3.666,-1.129,-2.055
1170.0,-7.143,-18.36,6.173,-3.666,-1.129,-2.055
1174.0,0.014,-16.574,4.081,-3.666,-1.129,-2.055
1179.0,0.014,-16.574,4.081,-3.176,-1.342,-3.094
1183.0,0.014,-16.574,4.081,-3.176,-1.342,-3.094
1187.0,5.477,-14.756,3.059,-2.538,-1.235,-3.917
1191.0,5.477,-14.756,3.059,-2.538,-1.235,-3.917
1195.0,9.47,-12.878,2.556,-1.703,-1.027,-4.624
1199.0,9.47,-12.878,2.556,-1.703,-1.027,-4.624
1203.0,9.47,-12.878,2.556,-1.703,-1.027,-4.624
1207.0,10.832,-10.752,2.356,-0.737,-0.764,-4.979
1211.0,10.832,-10.752,2.356,-0.737,-0.764,-4.979
1215.0,9.341,-8.05,2.16,0.271,-0.516,-4.995
1219.0,9.341,-8.05,2.16,0.271,-0.516,-4.995
1223.0,9.341,-8.05,2.507,0.271,-0.516,-4.995
1227.0,6.632,-5.256,2.507,1.257,-0.33,-4.995
1231.0,6.632,-5.256,2.507,1.257,-0.33,-4.995
1235.0,4.51,-2.005,3.016,2.203,-0.264,-4.995
1239.0,4.51,-2.005,3.016,2.203,-0.264,-4.995
1243.0,4.51,-2.005,3.016,2.203,-0.264,-4.995
1247.0,3.67,2.693,3.167,3.129,-0.305,-4.995
1251.0,3.67,2.693,3.167,3.129,-0.305,-4.995
1254.0,4.522,8.11,2.733,4.055,-0.404,-4.995
1258.0,4.522,8.11,2.733,4.055,-0.404,-4.995
1262.0,4.522,8.11,2.733,4.055,-0.404,-4.995
1266.0,6.162,13.892,1.785,4.816,-0.548,-4.995
1270.0,6.162,13.892,1.785,4.816,-0.548,-4.995
1274.0,8.018,19.168,-0.507,4.995,-0.76,-4.981
1278.0,8.018,19.168,-0.507,4.995,-0.76,-4.981
1282.0,8.018,19.168,-0.507,4.995,-0.76,-4.981
1286.0,9.724,19.596,-3.333,4.995,-0.896,-4.536
1290.0,9.724,19.596,-3.333,4.995,-0.896,-4.536
1294.0,10.973,19.596,-6.769,4.995,-0.832,-3.492
1298.0,10.973,19.596,-6.769,4.995,-0.832,-3.492
1302.0,10.973,19.596,-6.769,4.995,-0.832,-3.492
1306.0,10.836,19.596,-10.131,4.995,-0.5,-2.317
1310.0,10.836,19.596,-10.131,4.995,-0.5,-2.317
1314.0,9.462,19.596,-13.171,4.995,0.037,-0.983
1318.0,9.462,19.596,-13.171,4.995,0.037,-0.983
1322.0,9.462,19.596,-14.048,4.995,0.037,-0.983
1326.0,8.798,19.596,-14.048,4.748,0.646,0.389
1330.0,8.798,19.596,-14.048,4.748,0.646,0.389
1334.0,8.393,19.596,-12.516,3.263,1.084,1.348
1338.0,8.393,19.596,-12.516,3.263,1.084,1.348
1342.0,8.393,19.596,-10.308,3.263,1.084,1.348
1346.0,7.396,19.596,-10.308,1.432,1.4,2.039
1350.0,7.396,19.596,-10.308,1.432,1.4,2.039
1353.0,6.619,19.596,-8.902,-0.013,1.708,2.647
1357.0,6.619,19.596,-8.902,-0.013,1.708,2.647
1361.0,6.619,19.596,-8.902,-0.013,1.708,2.647
1365.0,6.303,19.596,-7.968,-0.943,2.023,3.243
1369.0,6.303,19.596,-7.968,-0.943,2.023,3.243
1373.0,6.252,19.504,-6.859,-1.501,2.339,3.872
1377.0,6.252,19.504,-6.859,-1.501,2.339,3.872
1381.0,6.252,19.504,-6.859,-1.501,2.339,3.872
1385.0,5.937,17.365,-5.475,-1.807,2.601,4.496
1389.0,5.937,17.365,-5.475,-1.807,2.601,4.496
1393.0,5.109,13.754,-3.591,-1.907,2.788,4.948
1396.0,5.109,13.754,-3.591,-1.907,2.788,4.948
1400.0,5.109,13.754,-3.591,-1.907,2.788,4.948
1404.0,3.808,9.875,-1.648,-1.883,2.881,5.013
1408.0,3.808,9.875,-1.648,-1.883,2.881,5.013
1412.0,2.231,6.334,-0.062,-1.834,2.876,5.013
1416.0,2.231,6.334,-0.062,-1.834,2.876,5.013
1420.0,2.231,6.334,-0.062,-1.834,2.876,5.013
1423.0,0.53,3.17,0.88,-1.848,2.756,5.013
1427.0,0.53,3.17,0.88,-1.848,2.756,5.013
1431.0,0.53,0.24,1.199,-1.848,2.756,5.013
1435.0,-0.651,0.24,1.199,-2.004,2.535,5.013
1438.0,-0.651,0.24,1.199,-2.004,2.535,5.013
1442.0,-1.39,-2.136,1.452,-2.316,2.288,5.013
1446.0,-1.39,-2.136,1.452,-2.316,2.288,5.013
1450.0,-1.39,-2.136,1.452,-2.316,2.288,5.013
1454.0,-2.279,-3.679,1.643,-2.75,2.08,4.93
1458.0,-2.279,-3.679,1.643,-2.75,2.08,4.93
1462.0,-3.824,-5.331,2.275,-3.269,1.897,4.376
1466.0,-3.824,-5.331,2.275,-3.269,1.897,4.376
1470.0,-3.824,-5.331,2.275,-3.269,1.897,4.376
1473.0,-6.239,-7.867,3.79,-3.799,1.581,3.502
1477.0,-6.239,-7.867,3.79,-3.799,1.581,3.502
