deltaTime,Acc_X,Acc_Y,Acc_Z,Gyro_X,Gyro_Y,Gyro_Z
0.0,7.293,6.773,1.63,-0.183,-0.055,0.095
3.0,7.293,6.773,1.63,-0.183,-0.055,0.095
6.0,7.293,6.773,1.63,-0.183,-0.055,0.095
9.0,7.196,6.83,1.883,-0.21,-0.025,0.081
12.0,7.196,6.83,1.883,-0.21,-0.025,0.081
14.0,7.196,6.83,1.883,-0.21,-0.025,0.081
17.0,7.012,6.907,2.1,-0.24,-0.006,0.068
20.0,7.012,6.907,2.1,-0.24,-0.006,0.068
23.0,7.012,6.907,2.1,-0.24,-0.006,0.068
26.0,6.882,6.844,2.216,-0.24,-0.006,0.068
29.0,6.882,6.844,2.216,-0.271,-0.001,0.058
32.0,6.882,6.844,2.216,-0.271,-0.001,0.058
35.0,6.882,6.844,2.216,-0.271,-0.001,0.058
38.0,6.799,6.676,2.292,-0.277,-0.004,0.055
42.0,6.799,6.676,2.292,-0.277,-0.004,0.055
45.0,6.799,6.676,2.292,-0.277,-0.004,0.055
49.0,6.813,6.478,2.326,-0.245,-0.015,0.048
53.0,6.813,6.478,2.326,-0.245,-0.015,0.048
56.0,6.77,6.322,2.407,-0.245,-0.028,0.037
60.0,6.77,6.322,2.407,-0.189,-0.028,0.037
64.0,6.77,6.322,2.407,-0.189,-0.028,0.037
67.0,6.69,6.342,2.486,-0.115,-0.035,0.029
71.0,6.69,6.342,2.486,-0.115,-0.035,0.029
75.0,6.69,6.342,2.486,-0.115,-0.035,0.029
78.0,6.619,6.364,2.597,-0.029,-0.034,0.024
82.0,6.619,6.364,2.597,-0.029,-0.034,0.024
86.0,6.513,6.278,2.847,-0.029,-0.034,0.024
89.0,6.513,6.278,2.847,0.078,-0.028,0.013
93.0,6.513,6.278,2.847,0.078,-0.028,0.013
96.0,6.279,6.24,3.22,0.234,-0.024,0.01
100.0,6.279,6.24,3.22,0.234,-0.024,0.01
103.0,6.279,6.24,3.22,0.234,-0.024,0.01
107.0,5.72,6.082,3.87,0.429,-0.006,0.026
111.0,5.72,6.082,3.87,0.429,-0.006,0.026
114.0,5.72,6.082,3.87,0.429,-0.006,0.026
118.0,5.164,6.933,4.204,0.654,-0.052,0.024
122.0,5.164,6.933,4.204,0.654,-0.052,0.024
125.0,4.757,8.148,4.077,0.654,-0.052,-0.049
129.0,4.757,8.148,4.077,0.72,-0.163,-0.049
133.0,4.757,8.148,4.077,0.72,-0.163,-0.049
137.0,4.592,8.863,3.584,0.593,-0.342,-0.156
140.0,4.592,8.863,3.584,0.593,-0.342,-0.156
144.0,4.592,8.863,3.584,0.593,-0.342,-0.156
148.0,4.448,9.17,2.938,0.38,-0.527,-0.259
151.0,4.448,9.17,2.938,0.38,-0.527,-0.259
155.0,4.475,9.172,2.502,0.38,-0.676,-0.35
159.0,4.475,9.172,2.502,0.178,-0.676,-0.35
163.0,4.475,9.172,2.502,0.178,-0.676,-0.35
166.0,4.638,8.988,2.559,0.023,-0.796,-0.433
170.0,4.638,8.988,2.559,0.023,-0.796,-0.433
174.0,4.638,8.988,2.559,0.023,-0.796,-0.433
178.0,4.656,8.843,2.907,-0.088,-0.911,-0.52
181.0,4.656,8.843,2.907,-0.088,-0.911,-0.52
185.0,4.43,8.855,3.215,-0.159,-1.034,-0.591
189.0,4.43,8.855,3.215,-0.159,-1.034,-0.591
193.0,4.43,8.855,3.215,-0.159,-1.034,-0.591
197.0,4.066,9.044,3.327,-0.191,-1.16,-0.626
201.0,4.066,9.044,3.327,-0.191,-1.16,-0.626
204.0,3.845,9.564,2.972,-0.191,-1.16,-0.593
208.0,3.845,9.564,2.972,-0.182,-1.267,-0.593
212.0,3.845,9.564,2.972,-0.182,-1.267,-0.593
216.0,3.94,10.329,2.043,-0.121,-1.342,-0.455
220.0,3.94,10.329,2.043,-0.121,-1.342,-0.455
224.0,3.94,11.438,0.393,-0.121,-1.342,-0.455
228.0,4.705,11.438,0.393,-0.018,-1.375,-0.217
231.0,4.705,11.438,0.393,-0.018,-1.375,-0.217
235.0,6.43,13.16,-1.95,0.101,-1.322,0.122
239.0,6.43,13.16,-1.95,0.101,-1.322,0.122
243.0,6.43,13.16,-1.95,0.101,-1.322,0.122
247.0,9.044,15.057,-4.418,0.192,-1.138,0.57
251.0,9.044,15.057,-4.418,0.192,-1.138,0.57
254.0,12.023,17.284,-6.537,0.162,-0.822,1.075
258.0,12.023,17.284,-6.537,0.162,-0.822,1.075
262.0,12.023,17.284,-6.537,0.162,-0.822,1.075
266.0,14.665,19.421,-8.804,-0.077,-0.391,1.6
270.0,14.665,19.421,-8.804,-0.077,-0.391,1.6
274.0,15.727,19.596,-9.766,-0.552,0.153,2.164
278.0,15.727,19.596,-9.766,-0.552,0.153,2.164
282.0,15.727,19.596,-9.766,-0.552,0.153,2.164
286.0,14.496,19.596,-8.987,-1.211,0.736,2.788
290.0,14.496,19.596,-8.987,-1.211,0.736,2.788
294.0,11.568,18.584,-7.326,-1.894,1.244,3.406
298.0,11.568,18.584,-7.326,-1.894,1.244,3.406
301.0,11.568,18.584,-7.326,-1.894,1.244,3.406
305.0,8.45,15.966,-5.682,-2.443,1.605,3.969
309.0,8.45,15.966,-5.682,-2.443,1.605,3.969
313.0,6.423,13.3,-4.091,-2.443,1.825,4.509
317.0,6.423,13.3,-4.091,-2.786,1.825,4.509
321.0,6.423,13.3,-4.091,-2.786,1.825,4.509
324.0,5.41,10.426,-2.548,-2.954,1.93,4.939
328.0,5.41,10.426,-2.548,-2.954,1.93,4.939
332.0,5.41,10.426,-1.667,-2.954,1.93,4.939
336.0,4.951,7.478,-1.667,-3.026,1.975,5.013
340.0,4.951,7.478,-1.667,-3.026,1.975,5.013
343.0,4.494,4.715,-1.294,-3.08,2.032,5.013
347.0,4.494,4.715,-1.294,-3.08,2.032,5.013
351.0,4.494,4.715,-1.294,-3.08,2.032,5.013
355.0,3.609,1.863,-0.858,-3.168,2.119,5.013
358.0,3.609,1.863,-0.858,-3.168,2.119,5.013
362.0,2.086,-1.53,0.334,-3.168,2.119,5.013
366.0,2.086,-1.53,0.334,-3.311,2.168,5.013
370.0,2.086,-1.53,0.334,-3.311,2.168,5.013
373.0,0.419,-5.698,2.535,-3.527,2.085,5.013
377.0,0.419,-5.698,2.535,-3.527,2.085,5.013
381.0,0.419,-5.698,2.535,-3.527,2.085,5.013
384.0,-2.383,-9.797,5.333,-3.781,1.859,4.776
388.0,-2.383,-9.797,5.333,-3.781,1.859,4.776
392.0,-6.502,-12.623,7.228,-3.979,1.364,3.726
396.0,-6.502,-12.623,7.228,-3.979,1.364,3.726
400.0,-6.502,-12.623,7.228,-3.979,1.364,3.726
404.0,-9.66,-14.145,7.539,-3.988,0.569,2.447
408.0,-9.66,-14.145,7.539,-3.988,0.569,2.447
412.0,-10.89,-15.603,7.504,-3.988,0.569,1.193
416.0,-10.89,-15.603,7.504,-3.762,-0.221,1.193
420.0,-10.89,-15.603,7.504,-3.762,-0.221,1.193
424.0,-9.632,-17.623,7.347,-3.427,-0.877,-0.028
428.0,-9.632,-17.623,7.347,-3.427,-0.877,-0.028
432.0,-5.721,-19.158,6.348,-3.079,-1.443,-1.253
436.0,-5.721,-19.158,6.348,-3.079,-1.443,-1.253
440.0,-5.721,-19.158,6.348,-3.079,-1.443,-1.253
444.0,-0.971,-18.36,4.815,-2.717,-1.788,-2.448
448.0,-0.971,-18.36,4.815,-2.717,-1.788,-2.448
452.0,3.088,-16.716,3.808,-2.315,-1.851,-3.42
456.0,3.088,-16.716,3.808,-2.315,-1.851,-3.42
460.0,3.088,-16.716,3.528,-2.315,-1.851,-3.42
464.0,5.906,-15.362,3.528,-1.816,-1.789,-4.179
468.0,5.906,-15.362,3.528,-1.816,-1.789,-4.179
472.0,6.94,-13.986,3.401,-1.196,-1.702,-4.807
476.0,6.94,-13.986,3.401,-1.196,-1.702,-4.807
480.0,6.94,-12.293,3.152,-1.196,-1.702,-4.807
484.0,6.244,-12.293,3.152,-0.476,-1.597,-4.994
488.0,6.244,-12.293,3.152,-0.476,-1.597,-4.994
492.0,4.533,-10.437,2.693,0.282,-1.493,-4.995
496.0,4.533,-10.437,2.693,0.282,-1.493,-4.995
500.0,2.93,-8.394,2.519,0.282,-1.493,-4.995
504.0,2.93,-8.394,2.519,1.022,-1.422,-4.995
508.0,2.93,-8.394,2.519,1.022,-1.422,-4.995
512.0,1.954,-6.135,2.655,1.719,-1.397,-4.995
515.0,1.954,-6.135,2.655,1.719,-1.397,-4.995
519.0,1.954,-6.135,2.655,1.719,-1.397,-4.995
523.0,1.63,-3.319,2.976,2.386,-1.418,-4.995
527.0,1.63,-3.319,2.976,2.386,-1.418,-4.995
531.0,1.673,-0.12,3.103,3.08,-1.507,-4.995
534.0,1.673,-0.12,3.103,3.08,-1.507,-4.995
538.0,1.673,-0.12,3.103,3.08,-1.507,-4.995
542.0,1.839,3.962,2.146,3.845,-1.686,-4.995
546.0,1.839,3.962,2.146,3.845,-1.686,-4.995
550.0,1.969,8.662,-0.212,3.845,-1.686,-4.995
553.0,1.969,8.662,-0.212,4.634,-1.933,-4.995
557.0,1.969,8.662,-0.212,4.634,-1.933,-4.995
561.0,2.687,14.324,-3.893,4.985,-2.197,-4.995
565.0,2.687,14.324,-3.893,4.985,-2.197,-4.995
569.0,2.687,14.324,-8.587,4.985,-2.197,-4.995
573.0,4.499,19.244,-8.587,4.995,-2.345,-4.995
577.0,4.499,19.244,-8.587,4.995,-2.345,-4.995
581.0,7.834,19.596,-13.098,4.995,-2.17,-4.777
585.0,7.834,19.596,-13.098,4.995,-2.17,-4.777
589.0,7.834,19.596,-17.207,4.995,-2.17,-4.777
593.0,10.664,19.596,-17.207,4.995,-1.598,-3.647
597.0,10.664,19.596,-17.207,4.995,-1.598,-3.647
601.0,10.898,19.596,-19.545,4.995,-0.746,-2.173
605.0,10.898,19.596,-19.545,4.995,-0.746,-2.173
609.0,9.989,19.596,-19.596,4.995,-0.746,-2.173
613.0,9.989,19.596,-19.596,4.847,0.188,-0.689
617.0,9.989,19.596,-19.596,4.847,0.188,-0.689
621.0,8.85,19.596,-19.596,3.555,1.033,0.416
624.0,8.85,19.596,-19.596,3.555,1.033,0.416
628.0,8.85,19.596,-18.242,3.555,1.033,0.416
632.0,7.425,19.596,-18.242,1.822,1.788,1.272
636.0,7.425,19.596,-18.242,1.822,1.788,1.272
640.0,6.063,19.596,-14.582,0.431,2.443,2.047
644.0,6.063,19.596,-14.582,0.431,2.443,2.047
647.0,6.063,19.596,-14.582,0.431,2.443,2.047
651.0,5.371,19.596,-12.474,-0.571,2.981,2.692
655.0,5.371,19.596,-12.474,-0.571,2.981,2.692
659.0,5.406,19.596,-10.729,-1.251,3.449,3.285
663.0,5.406,19.596,-10.729,-1.251,3.449,3.285
667.0,5.406,19.596,-10.729,-1.251,3.449,3.285
671.0,5.979,18.492,-9.048,-1.629,3.856,3.872
675.0,5.979,18.492,-9.048,-1.629,3.856,3.872
678.0,6.294,15.235,-7.113,-1.747,4.216,4.422
682.0,6.294,15.235,-7.113,-1.747,4.216,4.422
686.0,6.294,15.235,-7.113,-1.747,4.216,4.422
690.0,5.908,11.964,-5.125,-1.669,4.529,4.874
694.0,5.908,11.964,-5.125,-1.669,4.529,4.874
697.0,4.761,8.962,-2.992,-1.669,4.529,4.874
701.0,4.761,8.962,-2.992,-1.472,4.771,5.012
705.0,4.761,8.962,-2.992,-1.472,4.771,5.012
709.0,3.124,6.459,-0.746,-1.242,4.872,5.013
712.0,3.124,6.459,-0.746,-1.242,4.872,5.013
716.0,3.124,6.459,-0.746,-1.242,4.872,5.013
720.0,1.449,4.52,1.102,-1.042,4.799,5.013
724.0,1.449,4.52,1.102,-1.042,4.799,5.013
727.0,0.019,2.579,2.509,-1.042,4.799,5.013
731.0,0.019,2.579,2.509,-0.913,4.58,5.013
734.0,0.019,2.579,2.509,-0.913,4.58,5.013
738.0,-1.105,0.179,3.84,-0.908,4.264,5.013
742.0,-1.105,0.179,3.84,-0.908,4.264,5.013
746.0,-1.105,0.179,3.84,-0.908,4.264,5.013
749.0,-2.503,-2.514,5.688,-1.107,3.894,5.013
753.0,-2.503,-2.514,5.688,-1.107,3.894,5.013
757.0,-5.17,-4.943,8.13,-1.107,3.894,4.987
761.0,-5.17,-4.943,8.13,-1.536,3.436,4.987
765.0,-5.17,-4.943,8.13,-1.536,3.436,4.987
768.0,-8.544,-7.417,9.427,-2.138,2.723,4.474
772.0,-8.544,-7.417,9.427,-2.138,2.723,4.474
776.0,-8.544,-7.417,9.427,-2.138,2.723,4.474
780.0,-11.575,-9.604,8.898,-2.785,1.739,3.441
784.0,-11.575,-9.604,8.898,-2.785,1.739,3.441
788.0,-13.171,-11.844,8.797,-3.359,0.717,2.26
792.0,-13.171,-11.844,8.797,-3.359,0.717,2.26
796.0,-13.171,-11.844,8.797,-3.359,0.717,2.26
800.0,-12.805,-14.187,9.242,-3.764,-0.164,0.905
804.0,-12.805,-14.187,9.242,-3.764,-0.164,0.905
808.0,-9.712,-16.025,9.051,-4.002,-0.974,-0.531
812.0,-9.712,-16.025,9.051,-4.002,-0.974,-0.531
816.0,-5.043,-16.183,8.17,-4.002,-0.974,-0.531
820.0,-5.043,-16.183,8.17,-4.079,-1.561,-1.917
824.0,-5.043,-16.183,8.17,-4.079,-1.561,-1.917
828.0,-0.696,-15.266,7.034,-3.988,-1.843,-3.112
832.0,-0.696,-15.266,7.034,-3.988,-1.843,-3.112
836.0,2.73,-14.536,6.042,-3.69,-1.949,-4.061
840.0,2.73,-14.536,6.042,-3.69,-1.949,-4.061
844.0,2.73,-14.536,6.042,-3.69,-1.949,-4.061
848.0,4.959,-13.708,5.075,-3.16,-1.96,-4.802
852.0,4.959,-13.708,5.075,-3.16,-1.96,-4.802
856.0,5.668,-12.659,4.221,-2.418,-1.885,-4.995
860.0,5.668,-12.659,4.221,-2.418,-1.885,-4.995
864.0,5.668,-12.659,4.221,-2.418,-1.885,-4.995
868.0,4.997,-10.86,3.36,-1.519,-1.751,-4.995
872.0,4.997,-10.86,3.36,-1.519,-1.751,-4.995
876.0,3.769,-8.529,2.734,-0.565,-1.579,-4.995
880.0,3.769,-8.529,2.734,-0.565,-1.579,-4.995
884.0,3.769,-8.529,2.734,-0.565,-1.579,-4.995
888.0,2.876,-5.685,2.735,0.363,-1.404,-4.995
892.0,2.876,-5.685,2.735,0.363,-1.404,-4.995
896.0,2.578,-1.619,2.979,1.286,-1.283,-4.995
899.0,2.578,-1.619,2.979,1.286,-1.283,-4.995
903.0,2.578,-1.619,2.979,1.286,-1.283,-4.995
907.0,3.191,3.572,2.343,2.322,-1.262,-4.995
911.0,3.191,3.572,2.343,2.322,-1.262,-4.995
915.0,3.191,10.22,0.704,2.322,-1.262,-4.995
918.0,4.68,10.22,0.704,3.501,-1.281,-4.995
922.0,4.68,10.22,0.704,3.501,-1.281,-4.995
926.0,6.878,17.907,-2.528,4.625,-1.353,-4.995
930.0,6.878,17.907,-2.528,4.625,-1.353,-4.995
934.0,6.878,17.907,-2.528,4.625,-1.353,-4.995
938.0,9.729,19.594,-6.104,4.992,-1.451,-4.965
942.0,9.729,19.594,-6.104,4.992,-1.451,-4.965
946.0,12.404,19.596,-10.364,4.995,-1.339,-4.288
950.0,12.404,19.596,-10.364,4.995,-1.339,-4.288
954.0,12.404,19.596,-14.748,4.995,-1.339,-4.288
958.0,13.993,19.596,-14.748,4.995,-0.867,-2.928
962.0,13.993,19.596,-14.748,4.995,-0.867,-2.928
966.0,12.568,19.596,-17.716,4.995,-0.071,-1.392
970.0,12.568,19.596,-17.716,4.995,-0.071,-1.392
974.0,10.085,19.596,-19.445,4.995,-0.071,0.263
978.0,10.085,19.596,-19.445,4.995,0.871,0.263
982.0,10.085,19.596,-19.445,4.995,0.871,0.263
986.0,8.783,19.596,-19.475,4.807,1.689,1.645
990.0,8.783,19.596,-19.475,4.807,1.689,1.645
994.0,8.635,19.596,-16.854,4.807,1.689,1.645
997.0,8.635,19.596,-16.854,3.293,2.28,2.436
1001.0,8.635,19.596,-16.854,3.293,2.28,2.436
1005.0,8.827,19.596,-13.141,1.361,2.775,3.007
1009.0,8.827,19.596,-13.141,1.361,2.775,3.007
1013.0,8.827,19.596,-13.141,1.361,2.775,3.007
1017.0,8.481,19.596,-10.796,-0.087,3.277,3.493
1021.0,8.481,19.596,-10.796,-0.087,3.277,3.493
1025.0,7.763,19.432,-8.965,-1.088,3.782,3.903
1029.0,7.763,19.432,-8.965,-1.088,3.782,3.903
1033.0,7.763,19.432,-8.965,-1.088,3.782,3.903
1037.0,6.726,16.864,-6.935,-1.799,4.215,4.281
1040.0,6.726,16.864,-6.935,-1.799,4.215,4.281
1044.0,5.214,13.079,-4.549,-2.234,4.505,4.648
1048.0,5.214,13.079,-4.549,-2.234,4.505,4.648
1052.0,5.214,13.079,-4.549,-2.234,4.505,4.648
1056.0,3.407,9.526,-2.21,-2.416,4.612,4.95
1060.0,3.407,9.526,-2.21,-2.416,4.612,4.95
1064.0,1.578,6.51,-0.214,-2.442,4.55,5.013
1068.0,1.578,6.51,-0.214,-2.442,4.55,5.013
1071.0,1.578,6.51,-0.214,-2.442,4.55,5.013
1075.0,-0.049,3.735,1.141,-2.412,4.341,5.013
1079.0,-0.049,3.735,1.141,-2.412,4.341,5.013
1083.0,-1.506,0.67,2.682,-2.412,4.341,5.013
1087.0,-1.506,0.67,2.682,-2.407,4.021,5.013
1090.0,-1.506,0.67,2.682,-2.407,4.021,5.013
1094.0,-2.792,-3.092,5.051,-2.48,3.627,5.013
1098.0,-2.792,-3.092,5.051,-2.48,3.627,5.013
1102.0,-2.792,-6.887,7.717,-2.48,3.627,5.013
1106.0,-4.744,-6.887,7.717,-2.629,3.162,4.979
1110.0,-4.744,-6.887,7.717,-2.629,3.162,4.979
1114.0,-7.792,-9.477,9.135,-2.802,2.512,4.418
1118.0,-7.792,-9.477,9.135,-2.802,2.512,4.418
1122.0,-7.792,-9.477,9.468,-2.802,2.512,4.418
1126.0,-11.387,-11.275,9.468,-2.922,1.639,3.386
1130.0,-11.387,-11.275,9.468,-2.922,1.639,3.386
1134.0,-14.033,-14.413,9.687,-2.948,0.693,2.246
1138.0,-14.033,-14.413,9.687,-2.948,0.693,2.246
1142.0,-14.148,-17.512,9.416,-2.948,0.693,2.246
1146.0,-14.148,-17.512,9.416,-2.823,-0.168,0.886
1150.0,-14.148,-17.512,9.416,-2.823,-0.168,0.886
1154.0,-10.333,-18.903,8.768,-2.611,-0.937,-0.555
1159.0,-10.333,-18.903,8.768,-2.611,-0.937,-0.555
1163.0,-4.61,-17.339,7.583,-2.38,-1.5,-1.838
1167.0,-4.61,-17.339,7.583,-2.38,-1.5,-1.838
1171.0,-4.61,-14.92,6.617,-2.38,-1.5,-1.838
1175.0,0.3,-14.92,6.617,-2.113,-1.756,-2.842
1179.0,0.3,-14.92,6.617,-2.113,-1.756,-2.842
1183.0,3.888,-13.512,6.485,-1.745,-1.878,-3.641
1188.0,3.888,-13.512,6.485,-1.745,-1.878,-3.641
1192.0,6.351,-12.105,6.024,-1.231,-2.026,-4.378
1196.0,6.351,-12.105,6.024,-1.231,-2.026,-4.378
1200.0,6.351,-12.105,6.024,-1.231,-2.026,-4.378
1204.0,7.146,-10.426,5.076,-0.623,-2.123,-4.915
1208.0,7.146,-10.426,5.076,-0.623,-2.123,-4.915
1212.0,6.436,-8.559,3.904,0.026,-2.137,-4.995
1216.0,6.436,-8.559,3.904,0.026,-2.137,-4.995
1220.0,6.436,-8.559,3.904,0.026,-2.137,-4.995
1224.0,4.948,-6.491,2.962,0.664,-2.079,-4.995
1228.0,4.948,-6.491,2.962,0.664,-2.079,-4.995
1232.0,3.803,-3.915,2.422,1.302,-2.011,-4.995
1235.0,3.803,-3.915,2.422,1.302,-2.011,-4.995
1239.0,3.803,-3.915,2.422,1.302,-2.011,-4.995
1243.0,3.582,-0.531,1.817,1.991,-1.957,-4.995
1247.0,3.582,-0.531,1.817,1.991,-1.957,-4.995
1251.0,4.015,3.62,0.754,2.791,-1.914,-4.995
1255.0,4.015,3.62,0.754,2.791,-1.914,-4.995
1259.0,4.015,3.62,0.754,2.791,-1.914,-4.995
1263.0,4.802,7.725,-0.676,3.682,-1.9,-4.995
1266.0,4.802,7.725,-0.676,3.682,-1.9,-4.995
1270.0,5.52,12.221,-2.681,3.682,-1.9,-4.995
1274.0,5.52,12.221,-2.681,4.506,-1.955,-4.995
1278.0,5.52,12.221,-2.681,4.506,-1.955,-4.995
1282.0,6.334,16.754,-5.569,4.956,-2.048,-4.995
1286.0,6.334,16.754,-5.569,4.956,-2.048,-4.995
1290.0,7.711,19.449,-9.156,4.956,-1.988,-4.874
1294.0,7.711,19.449,-9.156,4.995,-1.988,-4.874
1298.0,7.711,19.449,-9.156,4.995,-1.988,-4.874
1302.0,9.309,19.596,-13.556,4.995,-1.653,-4.02
1306.0,9.309,19.596,-13.556,4.995,-1.653,-4.02
1310.0,8.971,19.596,-17.743,4.995,-1.025,-2.742
1315.0,8.971,19.596,-17.743,4.995,-1.025,-2.742
1319.0,8.971,19.596,-17.743,4.995,-1.025,-2.742
1323.0,8.526,19.596,-19.576,4.841,-0.263,-1.362
1327.0,8.526,19.596,-19.576,4.841,-0.263,-1.362
1331.0,9.136,19.596,-19.596,3.52,0.386,-0.28
1335.0,9.136,19.596,-19.596,3.52,0.386,-0.28
1339.0,9.136,19.596,-18.903,3.52,0.386,-0.28
1343.0,9.683,19.596,-18.903,1.566,0.999,0.568
1347.0,9.683,19.596,-18.903,1.566,0.999,0.568
1351.0,8.968,19.596,-16.123,-0.044,1.703,1.386
1355.0,8.968,19.596,-16.123,-0.044,1.703,1.386
1359.0,8.968,19.596,-14.04,-0.044,1.703,1.386
1363.0,7.465,19.596,-14.04,-1.129,2.382,2.107
1367.0,7.465,19.596,-14.04,-1.129,2.382,2.107
1371.0,6.617,19.596,-12.695,-1.845,2.969,2.805
1375.0,6.617,19.596,-12.695,-1.845,2.969,2.805
1379.0,6.567,19.464,-10.867,-1.845,2.969,2.805
1383.0,6.567,19.464,-10.867,-2.212,3.454,3.535
1387.0,6.567,19.464,-10.867,-2.212,3.454,3.535
1391.0,6.584,16.991,-8.892,-2.249,3.846,4.239
1394.0,6.584,16.991,-8.892,-2.249,3.846,4.239
1398.0,6.257,13.763,-7.01,-2.249,3.846,4.239
1402.0,6.257,13.763,-7.01,-2.054,4.184,4.821
1406.0,6.257,13.763,-7.01,-2.054,4.184,4.821
1410.0,5.499,10.72,-4.945,-1.759,4.49,5.011
1414.0,5.499,10.72,-4.945,-1.759,4.49,5.011
1418.0,5.499,8.162,-2.812,-1.759,4.49,5.011
1422.0,4.317,8.162,-2.812,-1.479,4.723,5.013
1426.0,4.317,8.162,-2.812,-1.479,4.723,5.013
1429.0,2.738,6.017,-0.779,-1.286,4.833,5.013
1433.0,2.738,6.017,-0.779,-1.286,4.833,5.013
1437.0,2.738,6.017,-0.779,-1.286,4.833,5.013
1441.0,0.891,4.0,0.882,-1.207,4.793,5.013
1445.0,0.891,4.0,0.882,-1.207,4.793,5.013
1448.0,-1.261,1.611,2.669,-1.286,4.609,5.013
1452.0,-1.261,1.611,2.669,-1.286,4.609,5.013
1456.0,-1.261,1.611,2.669,-1.286,4.609,5.013
1460.0,-3.66,-1.277,5.378,-1.596,4.285,5.013
