deltaTime,Acc_X,Acc_Y,Acc_Z,Gyro_X,Gyro_Y,Gyro_Z
0.0,5.697,7.803,2.483,-0.128,0.162,0.103
3.0,5.761,7.752,2.654,-0.143,0.157,0.098
6.0,5.761,7.752,2.654,-0.143,0.157,0.098
8.0,5.761,7.752,2.654,-0.143,0.157,0.098
11.0,5.761,7.712,2.775,-0.143,0.157,0.098
14.0,5.673,7.712,2.775,-0.168,0.165,0.091
17.0,5.673,7.712,2.775,-0.168,0.165,0.091
20.0,5.673,7.712,2.775,-0.168,0.165,0.091
23.0,5.561,7.717,2.922,-0.206,0.171,0.072
26.0,5.561,7.717,2.922,-0.206,0.171,0.072
29.0,5.561,7.717,2.922,-0.206,0.171,0.072
32.0,5.544,7.764,2.991,-0.256,0.171,0.044
35.0,5.544,7.764,2.991,-0.256,0.171,0.044
38.0,5.544,7.764,2.991,-0.256,0.171,0.044
41.0,5.522,7.691,3.13,-0.256,0.171,0.044
44.0,5.522,7.691,3.13,-0.318,0.174,0.006
48.0,5.522,7.691,3.13,-0.318,0.174,0.006
51.0,5.425,7.532,3.334,-0.318,0.174,0.006
55.0,5.425,7.532,3.334,-0.371,0.168,-0.038
58.0,5.425,7.532,3.334,-0.371,0.168,-0.038
62.0,5.365,7.498,3.547,-0.41,0.145,-0.078
66.0,5.365,7.498,3.547,-0.41,0.145,-0.078
69.0,5.365,7.498,3.547,-0.41,0.145,-0.078
73.0,5.213,7.451,3.811,-0.447,0.122,-0.105
77.0,5.213,7.451,3.811,-0.447,0.122,-0.105
80.0,5.213,7.451,4.01,-0.447,0.122,-0.105
84.0,5.151,7.519,4.01,-0.462,0.089,-0.115
88.0,5.151,7.519,4.01,-0.462,0.089,-0.115
91.0,5.06,7.573,4.206,-0.472,0.059,-0.122
95.0,5.06,7.573,4.206,-0.472,0.059,-0.122
99.0,5.06,7.573,4.206,-0.472,0.059,-0.122
102.0,5.15,7.448,4.489,-0.456,0.029,-0.126
106.0,5.15,7.448,4.489,-0.456,0.029,-0.126
110.0,5.15,7.448,4.489,-0.456,0.029,-0.126
113.0,5.153,7.244,4.88,-0.386,0.014,-0.129
117.0,5.153,7.244,4.88,-0.386,0.014,-0.129
121.0,4.947,6.915,5.38,-0.242,0.022,-0.132
125.0,4.947,6.915,5.38,-0.242,0.022,-0.132
128.0,4.947,6.915,5.38,-0.242,0.022,-0.132
132.0,4.542,6.878,5.944,0.014,0.016,-0.142
136.0,4.542,6.878,5.944,0.014,0.016,-0.142
139.0,4.542,6.878,5.944,0.014,0.016,-0.142
143.0,4.168,6.473,6.61,0.341,-0.049,-0.162
147.0,4.168,6.473,6.61,0.341,-0.049,-0.162
150.0,3.89,7.217,6.907,0.75,-0.171,-0.17
154.0,3.89,7.217,6.907,0.75,-0.171,-0.17
158.0,3.89,7.217,6.907,0.75,-0.171,-0.17
162.0,3.107,8.84,6.797,1.014,-0.332,-0.229
165.0,3.107,8.84,6.797,1.014,-0.332,-0.229
169.0,3.107,8.84,6.472,1.014,-0.332,-0.229
173.0,2.676,9.825,6.472,1.061,-0.559,-0.268
177.0,2.676,9.825,6.472,1.061,-0.559,-0.268
180.0,2.478,10.366,6.033,1.002,-0.807,-0.258
184.0,2.478,10.366,6.033,1.002,-0.807,-0.258
188.0,2.478,10.366,6.033,1.002,-0.807,-0.258
192.0,2.424,10.638,5.619,0.899,-1.042,-0.223
196.0,2.424,10.638,5.619,0.899,-1.042,-0.223
199.0,2.302,10.691,5.417,0.899,-1.042,-0.182
203.0,2.302,10.691,5.417,0.777,-1.261,-0.182
207.0,2.302,10.691,5.417,0.777,-1.261,-0.182
211.0,2.034,10.653,5.376,0.64,-1.482,-0.137
215.0,2.034,10.653,5.376,0.64,-1.482,-0.137
218.0,2.034,10.653,5.42,0.64,-1.482,-0.137
222.0,1.737,10.561,5.42,0.488,-1.718,-0.092
226.0,1.737,10.561,5.42,0.488,-1.718,-0.092
230.0,1.537,10.372,5.466,0.339,-1.968,-0.045
234.0,1.537,10.372,5.466,0.339,-1.968,-0.045
238.0,1.537,10.372,5.466,0.339,-1.968,-0.045
241.0,1.516,10.04,5.402,0.21,-2.219,0.007
245.0,1.516,10.04,5.402,0.21,-2.219,0.007
249.0,1.67,9.638,5.176,0.21,-2.447,0.069
253.0,1.67,9.638,5.176,0.111,-2.447,0.069
256.0,1.67,9.638,5.176,0.111,-2.447,0.069
260.0,1.949,9.117,4.82,0.056,-2.642,0.13
263.0,1.949,9.117,4.82,0.056,-2.642,0.13
267.0,1.949,9.117,4.82,0.056,-2.642,0.13
271.0,2.324,8.63,4.278,0.046,-2.804,0.174
274.0,2.324,8.63,4.278,0.046,-2.804,0.174
278.0,2.781,8.316,3.578,0.046,-2.804,0.174
282.0,2.781,8.316,3.578,0.073,-2.917,0.202
285.0,2.781,8.316,3.578,0.073,-2.917,0.202
289.0,3.166,8.227,2.796,0.147,-2.988,0.228
293.0,3.166,8.227,2.796,0.147,-2.988,0.228
296.0,3.166,8.227,2.796,0.147,-2.988,0.228
300.0,3.542,8.218,1.792,0.259,-3.027,0.269
304.0,3.542,8.218,1.792,0.259,-3.027,0.269
307.0,3.542,8.218,1.792,0.259,-3.027,0.269
311.0,3.943,8.226,0.619,0.385,-3.032,0.325
314.0,3.943,8.226,0.619,0.385,-3.032,0.325
318.0,4.503,8.369,-0.645,0.514,-2.993,0.387
322.0,4.503,8.369,-0.645,0.514,-2.993,0.387
326.0,4.503,8.369,-0.645,0.514,-2.993,0.387
329.0,5.06,8.547,-1.774,0.646,-2.904,0.459
333.0,5.06,8.547,-1.774,0.646,-2.904,0.459
337.0,5.06,8.547,-1.774,0.646,-2.904,0.459
341.0,5.533,8.862,-2.897,0.775,-2.774,0.544
344.0,5.533,8.862,-2.897,0.775,-2.774,0.544
348.0,6.068,9.838,-4.743,0.911,-2.591,0.672
352.0,6.068,9.838,-4.743,0.911,-2.591,0.672
355.0,6.068,9.838,-4.743,0.911,-2.591,0.672
359.0,7.114,11.506,-7.4,1.068,-2.307,0.896
363.0,7.114,11.506,-7.4,1.068,-2.307,0.896
367.0,8.868,13.655,-10.461,1.068,-2.307,0.896
371.0,8.868,13.655,-10.461,1.238,-1.874,1.227
375.0,8.868,13.655,-10.461,1.238,-1.874,1.227
379.0,10.952,15.556,-12.782,1.365,-1.276,1.668
383.0,10.952,15.556,-12.782,1.365,-1.276,1.668
387.0,10.952,16.655,-13.687,1.365,-1.276,1.668
391.0,12.725,16.655,-13.687,1.388,-0.552,2.201
395.0,12.725,16.655,-13.687,1.388,-0.552,2.201
399.0,13.745,17.178,-13.697,1.316,0.2,2.758
402.0,13.745,17.178,-13.697,1.316,0.2,2.758
406.0,13.475,17.584,-13.118,1.316,0.2,2.758
410.0,13.475,17.584,-13.118,1.181,0.96,3.325
414.0,13.475,17.584,-13.118,1.181,0.96,3.325
418.0,12.368,18.073,-12.51,1.057,1.696,3.936
422.0,12.368,18.073,-12.51,1.057,1.696,3.936
426.0,12.368,18.073,-11.508,1.057,1.696,3.936
430.0,11.41,17.655,-11.508,0.962,2.365,4.593
434.0,11.41,17.655,-11.508,0.962,2.365,4.593
438.0,10.749,15.651,-10.064,0.85,2.949,4.986
441.0,10.749,15.651,-10.064,0.85,2.949,4.986
445.0,10.749,15.651,-10.064,0.85,2.949,4.986
449.0,10.072,12.505,-8.309,0.679,3.46,5.013
453.0,10.072,12.505,-8.309,0.679,3.46,5.013
457.0,9.074,9.147,-6.192,0.434,3.912,5.013
461.0,9.074,9.147,-6.192,0.434,3.912,5.013
464.0,9.074,9.147,-6.192,0.434,3.912,5.013
468.0,7.544,6.036,-4.156,0.111,4.262,5.013
472.0,7.544,6.036,-4.156,0.111,4.262,5.013
475.0,7.544,6.036,-3.117,0.111,4.262,5.013
479.0,5.548,3.313,-3.117,-0.317,4.477,5.013
483.0,5.548,3.313,-3.117,-0.317,4.477,5.013
486.0,3.53,1.114,-2.943,-0.901,4.61,5.013
490.0,3.53,1.114,-2.943,-0.901,4.61,5.013
494.0,3.53,1.114,-2.943,-0.901,4.61,5.013
497.0,0.287,-1.019,-1.005,-1.641,4.684,4.89
501.0,0.287,-1.019,-1.005,-1.641,4.684,4.89
505.0,-5.073,-4.275,3.581,-1.641,4.684,4.89
509.0,-5.073,-4.275,3.581,-2.542,4.449,4.197
513.0,-5.073,-4.275,3.581,-2.542,4.449,4.197
517.0,-11.33,-7.999,7.042,-3.514,3.646,3.2
520.0,-11.33,-7.999,7.042,-3.514,3.646,3.2
524.0,-11.33,-7.999,7.042,-3.514,3.646,3.2
528.0,-16.42,-11.387,8.611,-4.368,2.445,2.017
532.0,-16.42,-11.387,8.611,-4.368,2.445,2.017
536.0,-19.461,-13.943,9.401,-4.916,1.208,0.731
540.0,-19.461,-13.943,9.401,-4.916,1.208,0.731
544.0,-19.461,-13.943,8.407,-4.916,1.208,0.731
548.0,-18.491,-16.693,8.407,-5.013,-0.027,-0.497
552.0,-18.491,-16.693,8.407,-5.013,-0.027,-0.497
557.0,-12.202,-17.888,6.602,-5.013,-1.082,-1.698
561.0,-12.202,-17.888,6.602,-5.013,-1.082,-1.698
565.0,-5.076,-16.945,4.57,-5.013,-1.756,-2.833
569.0,-5.076,-16.945,4.57,-5.013,-1.756,-2.833
573.0,-5.076,-16.945,4.57,-5.013,-1.756,-2.833
577.0,0.656,-15.638,3.463,-4.91,-2.025,-3.754
581.0,0.656,-15.638,3.463,-4.91,-2.025,-3.754
585.0,4.875,-14.997,3.221,-4.365,-2.035,-4.521
589.0,4.875,-14.997,3.221,-4.365,-2.035,-4.521
593.0,4.875,-14.997,3.221,-4.365,-2.035,-4.521
597.0,7.591,-13.792,3.029,-3.47,-1.991,-4.965
601.0,7.591,-13.792,3.029,-3.47,-1.991,-4.965
605.0,7.957,-12.22,2.917,-2.389,-1.866,-4.995
609.0,7.957,-12.22,2.917,-2.389,-1.866,-4.995
613.0,7.957,-12.22,2.917,-2.389,-1.866,-4.995
617.0,6.483,-10.187,2.705,-1.219,-1.695,-4.995
621.0,6.483,-10.187,2.705,-1.219,-1.695,-4.995
625.0,4.165,-7.834,2.718,-0.091,-1.514,-4.995
629.0,4.165,-7.834,2.718,-0.091,-1.514,-4.995
633.0,4.165,-7.834,2.718,-0.091,-1.514,-4.995
637.0,2.353,-5.285,3.034,0.967,-1.396,-4.995
641.0,2.353,-5.285,3.034,0.967,-1.396,-4.995
644.0,1.493,-2.03,3.219,2.02,-1.38,-4.995
648.0,1.493,-2.03,3.219,2.02,-1.38,-4.995
652.0,1.493,-2.03,3.219,2.02,-1.38,-4.995
656.0,1.426,1.963,2.399,3.145,-1.478,-4.995
660.0,1.426,1.963,2.399,3.145,-1.478,-4.995
663.0,1.889,7.008,0.322,3.145,-1.658,-4.995
667.0,1.889,7.008,0.322,4.29,-1.658,-4.995
671.0,1.889,7.008,0.322,4.29,-1.658,-4.995
675.0,2.609,13.381,-3.255,4.951,-1.87,-4.995
678.0,2.609,13.381,-3.255,4.951,-1.87,-4.995
682.0,2.609,13.381,-7.741,4.951,-1.87,-4.995
686.0,4.356,18.995,-7.741,4.995,-2.055,-4.995
690.0,4.356,18.995,-7.741,4.995,-2.055,-4.995
694.0,7.517,19.595,-12.964,4.995,-2.007,-4.923
698.0,7.517,19.595,-12.964,4.995,-2.007,-4.923
702.0,7.517,19.595,-18.074,4.995,-2.007,-4.923
706.0,10.65,19.596,-18.074,4.995,-1.48,-3.956
710.0,10.65,19.596,-18.074,4.995,-1.48,-3.956
714.0,11.171,19.596,-19.591,4.995,-0.526,-2.262
718.0,11.171,19.596,-19.591,4.995,-0.526,-2.262
722.0,10.448,19.596,-19.596,4.995,-0.526,-2.262
726.0,10.448,19.596,-19.596,4.989,0.532,-0.662
730.0,10.448,19.596,-19.596,4.989,0.532,-0.662
734.0,8.548,19.596,-19.596,4.289,1.428,0.522
738.0,8.548,19.596,-19.596,4.289,1.428,0.522
742.0,7.42,19.596,-19.571,4.289,1.428,0.522
746.0,7.42,19.596,-19.571,2.307,2.212,1.594
750.0,7.42,19.596,-19.571,2.307,2.212,1.594
754.0,6.76,19.596,-17.181,0.483,2.864,2.593
757.0,6.76,19.596,-17.181,0.483,2.864,2.593
761.0,6.76,19.596,-17.181,0.483,2.864,2.593
765.0,6.012,19.596,-13.921,-0.855,3.373,3.355
769.0,6.012,19.596,-13.921,-0.855,3.373,3.355
773.0,5.578,19.596,-11.151,-1.763,3.812,3.95
777.0,5.578,19.596,-11.151,-1.763,3.812,3.95
781.0,5.578,19.596,-11.151,-1.763,3.812,3.95
785.0,5.288,17.898,-8.229,-2.369,4.165,4.452
788.0,5.288,17.898,-8.229,-2.369,4.165,4.452
792.0,4.747,13.638,-5.627,-2.721,4.399,4.85
796.0,4.747,13.638,-5.627,-2.721,4.399,4.85
800.0,4.747,13.638,-5.627,-2.721,4.399,4.85
804.0,3.676,9.641,-3.447,-2.845,4.527,5.009
807.0,3.676,9.641,-3.447,-2.845,4.527,5.009
811.0,2.049,6.191,-1.645,-2.845,4.527,5.009
815.0,2.049,6.191,-1.645,-2.819,4.552,5.013
819.0,2.049,6.191,-1.645,-2.819,4.552,5.013
822.0,-0.018,2.898,-0.118,-2.771,4.448,5.013
826.0,-0.018,2.898,-0.118,-2.771,4.448,5.013
830.0,-0.018,2.898,-0.118,-2.771,4.448,5.013
834.0,-1.935,-0.36,1.329,-2.801,4.185,5.013
838.0,-1.935,-0.36,1.329,-2.801,4.185,5.013
841.0,-3.796,-3.47,3.503,-2.94,3.792,5.001
845.0,-3.796,-3.47,3.503,-2.94,3.792,5.001
849.0,-3.796,-3.47,3.503,-2.94,3.792,5.001
853.0,-6.483,-6.817,6.483,-3.215,3.286,4.677
857.0,-6.483,-6.817,6.483,-3.215,3.286,4.677
861.0,-9.734,-10.278,8.431,-3.215,3.286,4.677
864.0,-9.734,-10.278,8.431,-3.626,2.544,3.867
868.0,-9.734,-10.278,8.431,-3.626,2.544,3.867
872.0,-12.626,-12.901,8.394,-4.017,1.557,2.71
876.0,-12.626,-12.901,8.394,-4.017,1.557,2.71
880.0,-14.681,-14.969,8.301,-4.017,1.557,2.71
884.0,-14.681,-14.969,8.301,-4.332,0.53,1.403
888.0,-14.681,-14.969,8.301,-4.332,0.53,1.403
892.0,-14.316,-16.665,7.903,-4.438,-0.383,0.077
896.0,-14.316,-16.665,7.903,-4.438,-0.383,0.077
900.0,-10.549,-17.294,7.062,-4.438,-1.171,-1.214
905.0,-10.549,-17.294,7.062,-4.393,-1.171,-1.214
909.0,-10.549,-17.294,7.062,-4.393,-1.171,-1.214
913.0,-5.206,-16.218,5.999,-4.211,-1.743,-2.375
917.0,-5.206,-16.218,5.999,-4.211,-1.743,-2.375
921.0,0.095,-14.77,5.009,-3.891,-2.003,-3.317
925.0,0.095,-14.77,5.009,-3.891,-2.003,-3.317
929.0,0.095,-14.77,5.009,-3.891,-2.003,-3.317
933.0,4.669,-13.204,4.443,-3.373,-2.026,-4.098
937.0,4.669,-13.204,4.443,-3.373,-2.026,-4.098
941.0,8.224,-11.484,3.903,-2.609,-1.959,-4.762
945.0,8.224,-11.484,3.903,-2.609,-1.959,-4.762
949.0,8.224,-11.484,3.4,-2.609,-1.959,-4.762
953.0,9.597,-9.617,3.4,-1.646,-1.798,-4.992
957.0,9.597,-9.617,3.4,-1.646,-1.798,-4.992
961.0,8.301,-7.29,2.868,-0.59,-1.604,-4.995
965.0,8.301,-7.29,2.868,-0.59,-1.604,-4.995
969.0,8.301,-7.29,2.707,-0.59,-1.604,-4.995
972.0,5.725,-4.506,2.707,0.48,-1.432,-4.995
976.0,5.725,-4.506,2.707,0.48,-1.432,-4.995
980.0,4.003,-1.281,2.36,1.603,-1.358,-4.995
984.0,4.003,-1.281,2.36,1.603,-1.358,-4.995
988.0,4.003,-1.281,2.36,1.603,-1.358,-4.995
992.0,3.669,4.865,1.112,2.804,-1.354,-4.995
995.0,3.669,4.865,1.112,2.804,-1.354,-4.995
999.0,4.905,12.011,-1.136,2.804,-1.37,-4.995
1003.0,4.905,12.011,-1.136,4.059,-1.37,-4.995
1007.0,4.905,12.011,-1.136,4.059,-1.37,-4.995
1011.0,7.402,17.816,-3.443,4.901,-1.361,-4.983
1015.0,7.402,17.816,-3.443,4.901,-1.361,-4.983
1019.0,10.256,19.593,-6.596,4.995,-1.32,-4.569
1023.0,10.256,19.593,-6.596,4.995,-1.32,-4.569
1027.0,10.256,19.593,-6.596,4.995,-1.32,-4.569
1031.0,12.261,19.596,-10.146,4.995,-1.085,-3.465
1035.0,12.261,19.596,-10.146,4.995,-1.085,-3.465
1039.0,12.632,19.596,-12.943,4.995,-0.544,-2.033
1044.0,12.632,19.596,-12.943,4.995,-0.544,-2.033
1048.0,12.632,19.596,-15.585,4.995,-0.544,-2.033
1052.0,11.174,19.596,-15.585,4.995,0.216,-0.57
1056.0,11.174,19.596,-15.585,4.995,0.216,-0.57
1060.0,9.966,19.596,-18.005,4.974,1.02,0.734
1064.0,9.966,19.596,-18.005,4.974,1.02,0.734
1068.0,10.144,19.596,-17.397,4.974,1.02,1.712
1072.0,10.144,19.596,-17.397,4.227,1.753,1.712
1076.0,10.144,19.596,-17.397,4.227,1.753,1.712
1080.0,10.293,19.596,-14.981,2.536,2.337,2.363
1084.0,10.293,19.596,-14.981,2.536,2.337,2.363
1088.0,10.039,19.596,-13.147,2.536,2.829,2.862
1092.0,10.039,19.596,-13.147,0.894,2.829,2.862
1096.0,10.039,19.596,-13.147,0.894,2.829,2.862
1100.0,9.565,19.596,-11.377,-0.482,3.322,3.338
1104.0,9.565,19.596,-11.377,-0.482,3.322,3.338
1108.0,8.668,19.438,-8.98,-1.553,3.783,3.835
1112.0,8.668,19.438,-8.98,-1.553,3.783,3.835
1116.0,8.668,19.438,-8.98,-1.553,3.783,3.835
1120.0,7.187,16.229,-6.153,-2.265,4.119,4.328
1124.0,7.187,16.229,-6.153,-2.265,4.119,4.328
1127.0,5.275,11.981,-3.511,-2.265,4.292,4.781
1131.0,5.275,11.981,-3.511,-2.619,4.292,4.781
1135.0,5.275,11.981,-3.511,-2.619,4.292,4.781
1139.0,3.364,8.467,-1.315,-2.709,4.31,5.003
1143.0,3.364,8.467,-1.315,-2.709,4.31,5.003
1147.0,1.715,5.373,0.539,-2.709,4.31,5.003
1151.0,1.715,5.373,0.539,-2.68,4.183,5.013
1154.0,1.715,5.373,0.539,-2.68,4.183,5.013
1158.0,0.444,2.495,1.707,-2.642,3.923,5.013
1162.0,0.444,2.495,1.707,-2.642,3.923,5.013
1165.0,0.444,2.495,1.707,-2.642,3.923,5.013
1169.0,-0.325,-0.279,2.061,-2.668,3.595,5.013
1173.0,-0.325,-0.279,2.061,-2.668,3.595,5.013
1177.0,-1.592,-2.998,3.135,-2.792,3.267,5.013
1181.0,-1.592,-2.998,3.135,-2.792,3.267,5.013
1185.0,-1.592,-2.998,3.135,-2.792,3.267,5.013
1189.0,-4.161,-5.673,5.216,-3.017,2.901,4.966
1193.0,-4.161,-5.673,5.216,-3.017,2.901,4.966
1197.0,-7.211,-8.734,6.388,-3.017,2.331,4.398
1200.0,-7.211,-8.734,6.388,-3.269,2.331,4.398
1204.0,-7.211,-8.734,6.388,-3.269,2.331,4.398
1208.0,-10.555,-11.281,6.781,-3.429,1.491,3.346
1212.0,-10.555,-11.281,6.781,-3.429,1.491,3.346
1216.0,-13.177,-13.303,6.75,-3.429,0.507,2.128
1220.0,-13.177,-13.303,6.75,-3.429,0.507,2.128
1225.0,-13.177,-13.303,6.75,-3.429,0.507,2.128
1229.0,-14.0,-15.438,7.861,-3.264,-0.386,0.788
1233.0,-14.0,-15.438,7.861,-3.264,-0.386,0.788
1237.0,-11.417,-16.27,7.486,-2.993,-1.154,-0.599
1241.0,-11.417,-16.27,7.486,-2.993,-1.154,-0.599
1245.0,-6.529,-15.487,6.654,-2.993,-1.154,-0.599
1250.0,-6.529,-15.487,6.654,-2.765,-1.732,-1.903
1254.0,-6.529,-15.487,6.654,-2.765,-1.732,-1.903
1258.0,-1.618,-13.676,5.26,-2.549,-1.991,-3.022
1262.0,-1.618,-13.676,5.26,-2.549,-1.991,-3.022
1266.0,2.335,-12.111,4.215,-2.309,-2.004,-3.917
1270.0,2.335,-12.111,4.215,-2.309,-2.004,-3.917
1274.0,2.335,-12.111,4.215,-2.309,-2.004,-3.917
1279.0,5.304,-10.516,3.434,-1.939,-1.939,-4.67
1283.0,5.304,-10.516,3.434,-1.939,-1.939,-4.67
1287.0,6.724,-9.084,2.924,-1.453,-1.806,-4.987
1291.0,6.724,-9.084,2.924,-1.453,-1.806,-4.987
1295.0,6.26,-8.002,2.612,-1.453,-1.806,-4.987
1299.0,6.26,-8.002,2.612,-0.883,-1.641,-4.995
1303.0,6.26,-8.002,2.612,-0.883,-1.641,-4.995
1307.0,4.591,-6.96,2.359,-0.277,-1.477,-4.995
1311.0,4.591,-6.96,2.359,-0.277,-1.477,-4.995
1315.0,2.696,-5.173,2.362,-0.277,-1.477,-4.995
1319.0,2.696,-5.173,2.362,0.344,-1.328,-4.995
1323.0,2.696,-5.173,2.362,0.344,-1.328,-4.995
1326.0,1.552,-1.482,2.569,1.036,-1.231,-4.995
1330.0,1.552,-1.482,2.569,1.036,-1.231,-4.995
1334.0,2.132,4.201,1.635,1.036,-1.231,-4.995
1338.0,2.132,4.201,1.635,1.942,-1.227,-4.995
1342.0,2.132,4.201,1.635,1.942,-1.227,-4.995
1346.0,4.408,10.765,-0.297,3.053,-1.207,-4.995
1350.0,4.408,10.765,-0.297,3.053,-1.207,-4.995
1354.0,4.408,17.542,-2.664,3.053,-1.207,-4.995
1358.0,7.637,17.542,-2.664,4.167,-1.15,-4.995
1362.0,7.637,17.542,-2.664,4.167,-1.15,-4.995
1366.0,10.803,19.592,-5.665,4.901,-1.115,-4.869
1370.0,10.803,19.592,-5.665,4.901,-1.115,-4.869
1374.0,13.293,19.596,-9.438,4.901,-1.115,-3.935
1378.0,13.293,19.596,-9.438,4.995,-0.943,-3.935
1382.0,13.293,19.596,-9.438,4.995,-0.943,-3.935
1386.0,14.102,19.596,-13.01,4.995,-0.458,-2.503
1390.0,14.102,19.596,-13.01,4.995,-0.458,-2.503
1394.0,13.402,19.596,-16.027,4.995,0.286,-0.885
1399.0,13.402,19.596,-16.027,4.995,0.286,-0.885
1403.0,13.402,19.596,-16.027,4.995,0.286,-0.885
1407.0,12.039,19.596,-18.133,4.995,1.17,0.737
1411.0,12.039,19.596,-18.133,4.995,1.17,0.737
1415.0,10.926,19.596,-18.52,4.928,2.059,2.075
1419.0,10.926,19.596,-18.52,4.928,2.059,2.075
1423.0,10.926,19.596,-16.29,4.928,2.059,2.075
1427.0,10.537,19.596,-16.29,3.886,2.734,2.865
1431.0,10.537,19.596,-16.29,3.886,2.734,2.865
1435.0,10.764,19.596,-13.591,2.102,3.255,3.359
1439.0,10.764,19.596,-13.591,2.102,3.255,3.359
1443.0,10.764,19.596,-11.107,2.102,3.255,3.359
1447.0,10.499,19.596,-11.107,0.532,3.778,3.775
1451.0,10.499,19.596,-11.107,0.532,3.778,3.775
1455.0,9.203,19.31,-8.505,-0.69,4.272,4.129
1458.0,9.203,19.31,-8.505,-0.69,4.272,4.129
