deltaTime,Acc_X,Acc_Y,Acc_Z,Gyro_X,Gyro_Y,Gyro_Z
0.0,-8.942,-1.865,4.51,-0.27,-0.127,-0.135
3.0,-8.942,-1.865,4.51,-0.27,-0.127,-0.135
6.0,-8.776,-1.957,4.545,-0.313,-0.138,-0.157
9.0,-8.776,-1.957,4.545,-0.313,-0.138,-0.157
12.0,-8.776,-1.957,4.545,-0.313,-0.138,-0.157
15.0,-8.898,-2.377,4.739,-0.343,-0.133,-0.183
18.0,-8.898,-2.377,4.739,-0.343,-0.133,-0.183
21.0,-8.898,-2.377,4.739,-0.343,-0.133,-0.183
24.0,-9.129,-2.664,5.064,-0.343,-0.133,-0.183
27.0,-9.129,-2.664,5.064,-0.333,-0.127,-0.226
30.0,-9.129,-2.664,5.064,-0.333,-0.127,-0.226
34.0,-9.429,-2.8,5.353,-0.333,-0.127,-0.284
38.0,-9.429,-2.8,5.353,-0.302,-0.148,-0.284
42.0,-9.429,-2.8,5.353,-0.302,-0.148,-0.284
46.0,-9.624,-3.013,5.626,-0.269,-0.189,-0.339
49.0,-9.624,-3.013,5.626,-0.269,-0.189,-0.339
53.0,-9.689,-3.116,5.982,-0.269,-0.189,-0.339
57.0,-9.689,-3.116,5.982,-0.221,-0.227,-0.375
61.0,-9.689,-3.116,5.982,-0.221,-0.227,-0.375
65.0,-9.639,-3.191,6.51,-0.154,-0.262,-0.399
69.0,-9.639,-3.191,6.51,-0.154,-0.262,-0.399
73.0,-9.639,-3.233,7.108,-0.154,-0.262,-0.399
77.0,-9.581,-3.233,7.108,-0.064,-0.321,-0.432
81.0,-9.581,-3.233,7.108,-0.064,-0.321,-0.432
85.0,-9.744,-3.249,7.461,0.043,-0.432,-0.479
88.0,-9.744,-3.249,7.461,0.043,-0.432,-0.479
92.0,-9.744,-3.249,7.461,0.043,-0.432,-0.479
96.0,-9.995,-2.937,7.567,0.156,-0.594,-0.526
100.0,-9.995,-2.937,7.567,0.156,-0.594,-0.526
104.0,-9.991,-2.859,7.801,0.209,-0.773,-0.583
108.0,-9.991,-2.859,7.801,0.209,-0.773,-0.583
112.0,-9.991,-2.859,7.801,0.209,-0.773,-0.583
115.0,-10.078,-3.425,8.515,0.269,-0.936,-0.608
119.0,-10.078,-3.425,8.515,0.269,-0.936,-0.608
123.0,-9.952,-3.644,9.181,0.43,-1.128,-0.646
127.0,-9.952,-3.644,9.181,0.43,-1.128,-0.646
131.0,-9.952,-3.644,9.181,0.43,-1.128,-0.646
135.0,-10.001,-3.229,9.84,0.594,-1.319,-0.737
139.0,-10.001,-3.229,9.84,0.594,-1.319,-0.737
143.0,-10.644,-2.061,10.506,0.606,-1.538,-0.909
147.0,-10.644,-2.061,10.506,0.606,-1.538,-0.909
151.0,-10.644,-2.061,10.506,0.606,-1.538,-0.909
155.0,-11.83,-1.824,11.129,0.426,-1.854,-1.09
159.0,-11.83,-1.824,11.129,0.426,-1.854,-1.09
164.0,-12.666,-1.971,11.563,0.226,-2.238,-1.225
168.0,-12.666,-1.971,11.563,0.226,-2.238,-1.225
172.0,-12.878,-2.313,11.918,0.226,-2.238,-1.225
176.0,-12.878,-2.313,11.918,0.058,-2.618,-1.321
180.0,-12.878,-2.313,11.918,0.058,-2.618,-1.321
184.0,-12.584,-2.844,12.059,-0.097,-2.968,-1.39
188.0,-12.584,-2.844,12.059,-0.097,-2.968,-1.39
192.0,-12.047,-3.627,12.11,-0.24,-3.276,-1.47
196.0,-12.047,-3.627,12.11,-0.24,-3.276,-1.47
201.0,-12.047,-3.627,12.11,-0.24,-3.276,-1.47
205.0,-11.516,-4.491,12.398,-0.365,-3.554,-1.585
209.0,-11.516,-4.491,12.398,-0.365,-3.554,-1.585
213.0,-11.258,-5.35,12.814,-0.474,-3.798,-1.74
217.0,-11.258,-5.35,12.814,-0.474,-3.798,-1.74
221.0,-11.261,-6.297,13.231,-0.474,-4.027,-1.926
226.0,-11.261,-6.297,13.231,-0.545,-4.027,-1.926
230.0,-11.261,-6.297,13.231,-0.545,-4.027,-1.926
234.0,-11.27,-7.143,13.697,-0.546,-4.264,-2.145
238.0,-11.27,-7.143,13.697,-0.546,-4.264,-2.145
242.0,-10.991,-7.848,14.005,-0.465,-4.511,-2.379
246.0,-10.991,-7.848,14.005,-0.465,-4.511,-2.379
251.0,-10.4,-8.295,13.955,-0.465,-4.511,-2.379
255.0,-10.4,-8.295,13.955,-0.332,-4.74,-2.607
259.0,-10.4,-8.295,13.955,-0.332,-4.74,-2.607
263.0,-9.486,-8.351,13.692,-0.205,-4.928,-2.827
267.0,-9.486,-8.351,13.692,-0.205,-4.928,-2.827
271.0,-8.448,-8.315,13.522,-0.134,-4.991,-3.037
275.0,-8.448,-8.315,13.522,-0.134,-4.991,-3.037
279.0,-8.448,-8.315,13.522,-0.134,-4.991,-3.037
284.0,-7.401,-8.056,13.172,-0.129,-4.992,-3.237
288.0,-7.401,-8.056,13.172,-0.129,-4.992,-3.237
292.0,-6.209,-8.104,12.88,-0.181,-4.992,-3.423
296.0,-6.209,-8.104,12.88,-0.181,-4.992,-3.423
300.0,-6.209,-8.294,12.404,-0.181,-4.992,-3.423
304.0,-5.09,-8.294,12.404,-0.258,-4.992,-3.614
308.0,-5.09,-8.294,12.404,-0.258,-4.992,-3.614
312.0,-3.967,-8.591,11.645,-0.288,-4.992,-3.814
316.0,-3.967,-8.591,11.645,-0.288,-4.992,-3.814
320.0,-2.801,-9.255,11.1,-0.288,-4.992,-4.011
324.0,-2.801,-9.255,11.1,-0.233,-4.992,-4.011
328.0,-2.801,-9.255,11.1,-0.233,-4.992,-4.011
333.0,-2.085,-10.071,10.621,-0.071,-4.992,-4.226
337.0,-2.085,-10.071,10.621,-0.071,-4.992,-4.226
341.0,-1.445,-10.959,10.289,0.202,-4.992,-4.473
345.0,-1.445,-10.959,10.289,0.202,-4.992,-4.473
349.0,-1.445,-10.959,9.817,0.202,-4.992,-4.473
353.0,-0.79,-11.334,9.817,0.549,-4.992,-4.739
357.0,-0.79,-11.334,9.817,0.549,-4.992,-4.739
361.0,-0.025,-11.162,9.177,0.928,-4.992,-4.951
365.0,-0.025,-11.162,9.177,0.928,-4.992,-4.951
369.0,-0.025,-10.791,8.585,0.928,-4.992,-4.951
373.0,0.809,-10.791,8.585,1.289,-4.992,-4.995
377.0,0.809,-10.791,8.585,1.289,-4.992,-4.995
381.0,1.45,-10.067,8.06,1.587,-4.992,-4.995
385.0,1.45,-10.067,8.06,1.587,-4.992,-4.995
389.0,1.45,-10.067,7.411,1.587,-4.992,-4.995
392.0,1.878,-9.087,7.411,1.81,-4.992,-4.995
396.0,1.878,-9.087,7.411,1.81,-4.992,-4.995
400.0,2.218,-8.319,6.795,1.97,-4.992,-4.995
404.0,2.218,-8.319,6.795,1.97,-4.992,-4.995
408.0,2.218,-8.319,6.795,1.97,-4.992,-4.995
412.0,2.274,-7.464,6.249,2.091,-4.943,-4.995
415.0,2.274,-7.464,6.249,2.091,-4.943,-4.995
419.0,2.299,-6.542,5.751,2.208,-4.728,-4.995
423.0,2.299,-6.542,5.751,2.208,-4.728,-4.995
427.0,2.299,-6.542,5.751,2.208,-4.728,-4.995
431.0,2.395,-5.745,5.278,2.322,-4.451,-4.995
434.0,2.395,-5.745,5.278,2.322,-4.451,-4.995
438.0,2.445,-5.018,4.762,2.322,-4.451,-4.995
442.0,2.445,-5.018,4.762,2.416,-4.156,-4.995
446.0,2.445,-5.018,4.762,2.416,-4.156,-4.995
450.0,2.364,-4.354,4.364,2.483,-3.847,-4.995
454.0,2.364,-4.354,4.364,2.483,-3.847,-4.995
457.0,2.364,-4.354,4.364,2.483,-3.847,-4.995
461.0,2.093,-3.674,4.143,2.525,-3.541,-4.995
465.0,2.093,-3.674,4.143,2.525,-3.541,-4.995
469.0,1.7,-3.069,3.992,2.557,-3.262,-4.995
473.0,1.7,-3.069,3.992,2.557,-3.262,-4.995
477.0,1.7,-3.069,3.992,2.557,-3.262,-4.995
480.0,1.385,-2.662,3.763,2.594,-3.011,-4.995
484.0,1.385,-2.662,3.763,2.594,-3.011,-4.995
488.0,1.21,-2.384,3.435,2.594,-2.777,-4.995
492.0,1.21,-2.384,3.435,2.636,-2.777,-4.995
496.0,1.21,-2.384,3.435,2.636,-2.777,-4.995
499.0,0.855,-1.784,3.333,2.689,-2.54,-4.995
503.0,0.855,-1.784,3.333,2.689,-2.54,-4.995
507.0,0.855,-1.784,3.657,2.689,-2.54,-4.995
511.0,0.165,-0.915,3.657,2.776,-2.323,-4.995
515.0,0.165,-0.915,3.657,2.776,-2.323,-4.995
519.0,-0.604,0.349,3.921,2.914,-2.178,-4.984
522.0,-0.604,0.349,3.921,2.914,-2.178,-4.984
526.0,-0.604,0.349,3.921,2.914,-2.178,-4.984
530.0,-1.232,2.319,3.999,3.106,-2.106,-4.804
534.0,-1.232,2.319,3.999,3.106,-2.106,-4.804
538.0,-1.348,4.767,3.617,3.341,-2.092,-4.419
541.0,-1.348,4.767,3.617,3.341,-2.092,-4.419
545.0,-1.348,4.767,3.617,3.341,-2.092,-4.419
549.0,-0.462,7.303,2.367,3.587,-2.083,-3.93
553.0,-0.462,7.303,2.367,3.587,-2.083,-3.93
557.0,0.925,9.893,0.651,3.587,-2.083,-3.93
560.0,0.925,9.893,0.651,3.801,-1.995,-3.369
564.0,0.925,9.893,0.651,3.801,-1.995,-3.369
568.0,1.909,12.372,-0.833,3.959,-1.794,-2.722
572.0,1.909,12.372,-0.833,3.959,-1.794,-2.722
576.0,1.909,12.372,-0.833,3.959,-1.794,-2.722
580.0,2.502,14.728,-2.12,4.062,-1.502,-1.935
584.0,2.502,14.728,-2.12,4.062,-1.502,-1.935
587.0,3.042,16.657,-3.01,4.115,-1.116,-0.99
591.0,3.042,16.657,-3.01,4.115,-1.116,-0.99
595.0,3.042,16.657,-3.01,4.115,-1.116,-0.99
599.0,3.705,18.098,-3.427,4.128,-0.662,0.014
603.0,3.705,18.098,-3.427,4.128,-0.662,0.014
607.0,4.452,19.245,-3.747,4.124,-0.182,1.003
611.0,4.452,19.245,-3.747,4.124,-0.182,1.003
614.0,4.452,19.245,-3.747,4.124,-0.182,1.003
618.0,5.206,19.595,-3.883,4.078,0.306,1.969
622.0,5.206,19.595,-3.883,4.078,0.306,1.969
626.0,5.981,19.457,-3.914,4.078,0.306,1.969
629.0,5.981,19.457,-3.914,3.951,0.796,2.89
633.0,5.981,19.457,-3.914,3.951,0.796,2.89
637.0,6.748,18.421,-3.769,3.729,1.29,3.698
641.0,6.748,18.421,-3.769,3.729,1.29,3.698
644.0,6.748,18.421,-3.769,3.729,1.29,3.698
648.0,7.21,17.562,-3.487,3.376,1.786,4.349
652.0,7.21,17.562,-3.487,3.376,1.786,4.349
656.0,7.54,16.449,-3.35,3.376,1.786,4.83
659.0,7.54,16.449,-3.35,2.824,2.253,4.83
663.0,7.54,16.449,-3.35,2.824,2.253,4.83
667.0,7.423,14.451,-2.7,2.074,2.687,5.008
671.0,7.423,14.451,-2.7,2.074,2.687,5.008
674.0,7.423,14.451,-2.7,2.074,2.687,5.008
678.0,6.48,11.504,-1.332,1.222,3.036,5.013
682.0,6.48,11.504,-1.332,1.222,3.036,5.013
685.0,4.468,8.438,-0.079,1.222,3.251,5.013
689.0,4.468,8.438,-0.079,0.371,3.251,5.013
693.0,4.468,8.438,-0.079,0.371,3.251,5.013
696.0,1.85,5.602,0.532,-0.448,3.308,5.013
700.0,1.85,5.602,0.532,-0.448,3.308,5.013
704.0,1.85,5.602,0.532,-0.448,3.308,5.013
707.0,-1.067,2.578,1.077,-1.288,3.221,5.013
711.0,-1.067,2.578,1.077,-1.288,3.221,5.013
715.0,-3.674,-1.493,2.473,-1.288,3.221,5.012
719.0,-3.674,-1.493,2.473,-2.194,2.999,5.012
722.0,-3.674,-1.493,2.473,-2.194,2.999,5.012
726.0,-6.811,-6.263,4.585,-3.134,2.652,4.753
730.0,-6.811,-6.263,4.585,-3.134,2.652,4.753
734.0,-6.811,-6.263,4.585,-3.134,2.652,4.753
738.0,-11.636,-10.306,5.526,-4.02,2.054,3.717
742.0,-11.636,-10.306,5.526,-4.02,2.054,3.717
746.0,-17.124,-12.834,5.433,-4.676,1.216,2.364
750.0,-17.124,-12.834,5.433,-4.676,1.216,2.364
754.0,-17.124,-12.834,5.825,-4.676,1.216,2.364
758.0,-19.593,-16.774,5.825,-4.908,0.364,0.937
762.0,-19.593,-16.774,5.825,-4.908,0.364,0.937
766.0,-19.034,-19.573,6.306,-4.687,-0.535,-0.574
770.0,-19.034,-19.573,6.306,-4.687,-0.535,-0.574
774.0,-12.294,-19.6,5.728,-4.687,-0.535,-2.157
778.0,-12.294,-19.6,5.728,-4.125,-1.335,-2.157
782.0,-12.294,-19.6,5.728,-4.125,-1.335,-2.157
786.0,-4.602,-19.6,4.082,-3.313,-1.756,-3.527
791.0,-4.602,-19.6,4.082,-3.313,-1.756,-3.527
795.0,0.528,-19.054,2.712,-2.402,-1.786,-4.532
799.0,0.528,-19.054,2.712,-2.402,-1.786,-4.532
803.0,0.528,-19.054,2.712,-2.402,-1.786,-4.532
807.0,3.115,-16.297,1.725,-1.456,-1.665,-4.976
811.0,3.115,-16.297,1.725,-1.456,-1.665,-4.976
815.0,3.438,-13.023,1.253,-0.504,-1.469,-4.995
819.0,3.438,-13.023,1.253,-0.504,-1.469,-4.995
823.0,3.438,-13.023,1.253,-0.504,-1.469,-4.995
827.0,2.536,-9.793,1.286,0.41,-1.253,-4.995
830.0,2.536,-9.793,1.286,0.41,-1.253,-4.995
834.0,1.595,-7.076,1.673,1.246,-1.098,-4.995
838.0,1.595,-7.076,1.673,1.246,-1.098,-4.995
842.0,1.595,-7.076,1.673,1.246,-1.098,-4.995
846.0,1.161,-4.169,2.27,2.017,-1.023,-4.995
850.0,1.161,-4.169,2.27,2.017,-1.023,-4.995
853.0,1.388,0.136,2.438,2.81,-1.031,-4.995
857.0,1.388,0.136,2.438,2.81,-1.031,-4.995
861.0,1.388,0.136,2.438,2.81,-1.031,-4.995
865.0,2.442,5.517,1.377,3.727,-1.121,-4.995
868.0,2.442,5.517,1.377,3.727,-1.121,-4.995
872.0,2.442,5.517,1.377,3.727,-1.121,-4.995
876.0,4.747,11.335,-0.632,4.645,-1.175,-4.995
880.0,4.747,11.335,-0.632,4.645,-1.175,-4.995
884.0,7.604,18.108,-3.099,4.99,-1.174,-4.995
887.0,7.604,18.108,-3.099,4.99,-1.174,-4.995
891.0,7.604,18.108,-3.099,4.99,-1.174,-4.995
895.0,10.971,19.594,-5.691,4.995,-1.162,-4.949
899.0,10.971,19.594,-5.691,4.995,-1.162,-4.949
903.0,14.417,19.596,-8.867,4.995,-1.008,-4.229
907.0,14.417,19.596,-8.867,4.995,-1.008,-4.229
911.0,14.417,19.596,-8.867,4.995,-1.008,-4.229
915.0,15.62,19.596,-11.657,4.995,-0.595,-2.911
919.0,15.62,19.596,-11.657,4.995,-0.595,-2.911
923.0,13.613,19.596,-14.322,4.995,0.045,-1.492
927.0,13.613,19.596,-14.322,4.995,0.045,-1.492
931.0,13.613,19.596,-15.668,4.995,0.045,-1.492
935.0,11.087,19.596,-15.668,4.693,0.827,-0.003
939.0,11.087,19.596,-15.668,4.693,0.827,-0.003
943.0,9.979,19.596,-13.991,2.86,1.482,1.176
947.0,9.979,19.596,-13.991,2.86,1.482,1.176
951.0,9.979,19.596,-13.991,2.86,1.482,1.176
955.0,9.313,19.596,-10.834,0.355,1.884,1.938
959.0,9.313,19.596,-10.834,0.355,1.884,1.938
962.0,8.642,19.596,-8.183,-1.932,2.133,2.604
966.0,8.642,19.596,-8.183,-1.932,2.133,2.604
970.0,8.642,19.596,-8.183,-1.932,2.133,2.604
974.0,7.847,19.596,-6.644,-3.488,2.295,3.275
978.0,7.847,19.596,-6.644,-3.488,2.295,3.275
982.0,7.032,19.539,-5.045,-3.488,2.438,3.995
985.0,7.032,19.539,-5.045,-4.325,2.438,3.995
989.0,7.032,19.539,-5.045,-4.325,2.438,3.995
993.0,5.931,16.792,-3.4,-4.67,2.522,4.684
997.0,5.931,16.792,-3.4,-4.67,2.522,4.684
1001.0,5.931,12.724,-1.999,-4.67,2.522,4.684
1005.0,4.894,12.724,-1.999,-4.626,2.539,5.002
1008.0,4.894,12.724,-1.999,-4.626,2.539,5.002
1012.0,3.903,8.953,-0.908,-4.315,2.538,5.013
1016.0,3.903,8.953,-0.908,-4.315,2.538,5.013
1020.0,3.903,8.953,-0.908,-4.315,2.538,5.013
1024.0,2.986,5.103,0.187,-3.877,2.505,5.013
1028.0,2.986,5.103,0.187,-3.877,2.505,5.013
1031.0,2.105,0.995,1.731,-3.38,2.396,5.013
1035.0,2.105,0.995,1.731,-3.38,2.396,5.013
1039.0,2.105,0.995,1.731,-3.38,2.396,5.013
1042.0,1.003,-2.878,3.066,-2.853,2.163,5.013
1046.0,1.003,-2.878,3.066,-2.853,2.163,5.013
1050.0,-0.038,-5.921,3.346,-2.853,2.163,5.013
1054.0,-0.038,-5.921,3.346,-2.337,1.843,5.013
1058.0,-0.038,-5.921,3.346,-2.337,1.843,5.013
1062.0,-1.283,-8.313,3.728,-1.906,1.55,5.013
1066.0,-1.283,-8.313,3.728,-1.906,1.55,5.013
1070.0,-1.283,-8.313,4.424,-1.906,1.55,5.013
1074.0,-3.397,-10.782,4.424,-1.625,1.337,5.013
1078.0,-3.397,-10.782,4.424,-1.625,1.337,5.013
1082.0,-6.267,-12.717,4.282,-1.464,1.095,4.87
1086.0,-6.267,-12.717,4.282,-1.464,1.095,4.87
1090.0,-6.267,-15.271,4.448,-1.464,1.095,4.87
1094.0,-9.507,-15.271,4.448,-1.287,0.712,3.951
1098.0,-9.507,-15.271,4.448,-1.287,0.712,3.951
1102.0,-11.76,-15.659,3.441,-0.842,0.236,2.636
1106.0,-11.76,-15.659,3.441,-0.842,0.236,2.636
1110.0,-11.609,-16.296,4.301,-0.842,0.236,1.246
1114.0,-11.609,-16.296,4.301,-0.297,-0.195,1.246
1118.0,-11.609,-16.296,4.301,-0.297,-0.195,1.246
1122.0,-8.677,-16.845,5.316,0.255,-0.637,-0.168
1126.0,-8.677,-16.845,5.316,0.255,-0.637,-0.168
1130.0,-4.814,-16.025,5.352,0.689,-0.987,-1.591
1134.0,-4.814,-16.025,5.352,0.689,-0.987,-1.591
1138.0,-4.814,-16.025,5.352,0.689,-0.987,-1.591
1142.0,-1.536,-14.055,4.88,0.924,-1.142,-2.868
1147.0,-1.536,-14.055,4.88,0.924,-1.142,-2.868
1151.0,0.985,-12.069,4.287,0.976,-1.159,-3.885
1155.0,0.985,-12.069,4.287,0.976,-1.159,-3.885
1159.0,0.985,-10.044,3.672,0.976,-1.159,-3.885
1163.0,2.553,-10.044,3.672,0.931,-1.107,-4.676
1167.0,2.553,-10.044,3.672,0.931,-1.107,-4.676
1171.0,3.386,-8.178,3.079,0.866,-1.033,-4.987
1175.0,3.386,-8.178,3.079,0.866,-1.033,-4.987
1178.0,3.672,-6.242,2.539,0.866,-1.033,-4.987
1182.0,3.672,-6.242,2.539,0.829,-0.944,-4.995
1186.0,3.672,-6.242,2.539,0.829,-0.944,-4.995
1190.0,3.55,-4.299,2.137,0.847,-0.848,-4.995
1194.0,3.55,-4.299,2.137,0.847,-0.848,-4.995
1198.0,3.55,-4.299,2.378,0.847,-0.848,-4.995
1202.0,3.233,-2.543,2.378,0.942,-0.772,-4.995
1206.0,3.233,-2.543,2.378,0.942,-0.772,-4.995
1210.0,3.173,-0.589,2.892,1.155,-0.751,-4.995
1214.0,3.173,-0.589,2.892,1.155,-0.751,-4.995
1217.0,3.173,-0.589,2.892,1.155,-0.751,-4.995
1221.0,3.613,2.696,3.014,1.533,-0.777,-4.995
1225.0,3.613,2.696,3.014,1.533,-0.777,-4.995
1229.0,4.826,7.366,2.672,2.091,-0.789,-4.995
1233.0,4.826,7.366,2.672,2.091,-0.789,-4.995
1237.0,4.826,7.366,2.672,2.091,-0.789,-4.995
1240.0,6.706,12.222,2.16,2.762,-0.757,-4.995
1244.0,6.706,12.222,2.16,2.762,-0.757,-4.995
1248.0,8.327,17.764,1.173,3.42,-0.736,-4.995
1252.0,8.327,17.764,1.173,3.42,-0.736,-4.995
1256.0,8.327,17.764,1.173,3.42,-0.736,-4.995
1260.0,9.345,19.591,-0.824,3.983,-0.786,-4.862
1264.0,9.345,19.591,-0.824,3.983,-0.786,-4.862
1268.0,10.044,19.596,-3.74,4.413,-0.794,-3.947
1272.0,10.044,19.596,-3.74,4.413,-0.794,-3.947
1276.0,10.044,19.596,-3.74,4.413,-0.794,-3.947
1280.0,10.502,19.596,-6.776,4.729,-0.648,-2.627
1284.0,10.502,19.596,-6.776,4.729,-0.648,-2.627
1288.0,10.984,19.596,-9.943,4.918,-0.305,-1.149
1292.0,10.984,19.596,-9.943,4.918,-0.305,-1.149
1297.0,10.984,19.596,-12.313,4.918,-0.305,-1.149
1301.0,11.796,19.596,-12.313,4.702,0.233,0.425
1305.0,11.796,19.596,-12.313,4.702,0.233,0.425
1309.0,12.597,19.596,-12.495,3.952,0.906,1.795
1313.0,12.597,19.596,-12.495,3.952,0.906,1.795
1317.0,12.494,19.596,-10.293,3.952,0.906,1.795
1321.0,12.494,19.596,-10.293,2.709,1.586,2.765
1325.0,12.494,19.596,-10.293,2.709,1.586,2.765
1329.0,11.331,19.596,-8.1,1.249,2.116,3.4
1333.0,11.331,19.596,-8.1,1.249,2.116,3.4
1336.0,9.863,19.596,-6.562,1.249,2.116,3.4
1340.0,9.863,19.596,-6.562,-0.133,2.52,3.896
1344.0,9.863,19.596,-6.562,-0.133,2.52,3.896
1348.0,8.715,19.57,-5.09,-1.238,2.844,4.388
1352.0,8.715,19.57,-5.09,-1.238,2.844,4.388
1356.0,8.715,17.125,-3.357,-1.238,2.844,4.388
1360.0,7.701,17.125,-3.357,-2.0,3.079,4.851
1364.0,7.701,17.125,-3.357,-2.0,3.079,4.851
1368.0,6.436,12.715,-1.708,-2.465,3.216,5.012
1372.0,6.436,12.715,-1.708,-2.465,3.216,5.012
1375.0,6.436,12.715,-0.316,-2.465,3.216,5.012
1379.0,4.854,8.66,-0.316,-2.724,3.258,5.013
1383.0,4.854,8.66,-0.316,-2.724,3.258,5.013
1387.0,3.136,5.25,0.66,-2.873,3.204,5.013
1391.0,3.136,5.25,0.66,-2.873,3.204,5.013
1394.0,3.136,5.25,0.66,-2.873,3.204,5.013
1398.0,1.671,2.709,1.001,-2.989,3.07,5.013
1402.0,1.671,2.709,1.001,-2.989,3.07,5.013
1406.0,0.504,0.694,0.94,-2.989,3.07,5.013
1409.0,0.504,0.694,0.94,-3.102,2.909,5.013
1413.0,0.504,0.694,0.94,-3.102,2.909,5.013
1417.0,-1.138,-1.491,1.566,-3.237,2.752,5.013
1421.0,-1.138,-1.491,1.566,-3.237,2.752,5.013
1425.0,-1.138,-1.491,1.566,-3.237,2.752,5.013
1429.0,-3.922,-4.521,3.671,-3.45,2.537,5.013
1432.0,-3.922,-4.521,3.671,-3.45,2.537,5.013
1436.0,-7.185,-8.725,5.401,-3.739,2.142,4.974
1440.0,-7.185,-8.725,5.401,-3.739,2.142,4.974
1444.0,-7.185,-8.725,5.401,-3.739,2.142,4.974
1448.0,-10.801,-12.348,5.29,-3.97,1.489,4.299
1452.0,-10.801,-12.348,5.29,-3.97,1.489,4.299
1456.0,-14.115,-16.115,5.197,-3.903,0.668,2.985
1460.0,-14.115,-16.115,5.197,-3.903,0.668,2.985
1464.0,-14.115,-16.115,4.611,-3.903,0.668,2.985
1469.0,-14.967,-17.025,4.611,-3.271,-0.025,1.523
1473.0,-14.967,-17.025,4.611,-3.271,-0.025,1.523
1477.0,-11.54,-17.375,5.724,-2.374,-0.603,0.104
