deltaTime,Acc_X,Acc_Y,Acc_Z,Gyro_X,Gyro_Y,Gyro_Z
0.0,-7.608,-1.947,4.877,0.444,-0.844,-0.622
3.0,-7.413,-1.993,4.82,0.444,-0.844,-0.622
6.0,-7.413,-1.993,4.82,0.468,-0.853,-0.635
9.0,-7.413,-1.993,4.82,0.468,-0.853,-0.635
12.0,-7.413,-1.993,4.82,0.468,-0.853,-0.635
15.0,-7.289,-2.12,4.896,0.464,-0.859,-0.656
18.0,-7.289,-2.12,4.896,0.464,-0.859,-0.656
21.0,-7.289,-2.12,4.896,0.464,-0.859,-0.656
24.0,-7.155,-2.273,5.032,0.447,-0.855,-0.679
27.0,-7.155,-2.273,5.032,0.447,-0.855,-0.679
30.0,-7.155,-2.273,5.032,0.447,-0.855,-0.679
34.0,-7.092,-2.288,4.939,0.428,-0.837,-0.69
37.0,-7.092,-2.288,4.939,0.428,-0.837,-0.69
41.0,-7.092,-2.288,4.939,0.428,-0.837,-0.69
45.0,-7.732,-2.2,4.738,0.38,-0.786,-0.649
49.0,-7.732,-2.2,4.738,0.38,-0.786,-0.649
53.0,-8.977,-2.273,4.57,0.38,-0.786,-0.649
56.0,-8.977,-2.273,4.57,0.294,-0.708,-0.523
60.0,-8.977,-2.273,4.57,0.294,-0.708,-0.523
64.0,-9.703,-2.464,4.595,0.194,-0.635,-0.352
68.0,-9.703,-2.464,4.595,0.194,-0.635,-0.352
72.0,-9.703,-2.464,4.595,0.194,-0.635,-0.352
76.0,-9.267,-2.764,5.237,0.091,-0.605,-0.225
79.0,-9.267,-2.764,5.237,0.091,-0.605,-0.225
83.0,-8.307,-3.408,6.009,0.009,-0.64,-0.218
87.0,-8.307,-3.408,6.009,0.009,-0.64,-0.218
91.0,-8.307,-3.408,6.009,0.009,-0.64,-0.218
95.0,-7.576,-4.071,6.218,0.006,-0.705,-0.315
98.0,-7.576,-4.071,6.218,0.006,-0.705,-0.315
102.0,-7.079,-4.529,5.763,0.006,-0.739,-0.422
106.0,-7.079,-4.529,5.763,0.107,-0.739,-0.422
110.0,-7.079,-4.529,5.763,0.107,-0.739,-0.422
114.0,-6.766,-4.878,5.52,0.276,-0.689,-0.467
118.0,-6.766,-4.878,5.52,0.276,-0.689,-0.467
122.0,-6.717,-5.073,5.578,0.276,-0.689,-0.467
126.0,-6.717,-5.073,5.578,0.478,-0.574,-0.45
130.0,-6.717,-5.073,5.578,0.478,-0.574,-0.45
133.0,-6.699,-4.717,5.74,0.676,-0.438,-0.421
137.0,-6.699,-4.717,5.74,0.676,-0.438,-0.421
141.0,-6.967,-4.11,6.045,0.676,-0.438,-0.421
145.0,-6.967,-4.11,6.045,0.801,-0.329,-0.409
149.0,-6.967,-4.11,6.045,0.801,-0.329,-0.409
153.0,-7.658,-3.777,6.333,0.82,-0.284,-0.4
157.0,-7.658,-3.777,6.333,0.82,-0.284,-0.4
161.0,-7.658,-3.777,6.564,0.82,-0.284,-0.4
165.0,-8.362,-3.964,6.564,0.762,-0.301,-0.374
169.0,-8.362,-3.964,6.564,0.762,-0.301,-0.374
173.0,-8.499,-4.73,6.697,0.7,-0.36,-0.328
176.0,-8.499,-4.73,6.697,0.7,-0.36,-0.328
180.0,-8.499,-4.73,6.697,0.7,-0.36,-0.328
184.0,-7.872,-5.626,6.551,0.702,-0.416,-0.301
188.0,-7.872,-5.626,6.551,0.702,-0.416,-0.301
192.0,-7.068,-6.114,6.504,0.794,-0.431,-0.338
196.0,-7.068,-6.114,6.504,0.794,-0.431,-0.338
200.0,-7.068,-6.114,6.504,0.794,-0.431,-0.338
204.0,-6.526,-5.72,6.398,0.95,-0.427,-0.445
208.0,-6.526,-5.72,6.398,0.95,-0.427,-0.445
212.0,-6.403,-4.813,6.335,1.079,-0.423,-0.595
216.0,-6.403,-4.813,6.335,1.079,-0.423,-0.595
219.0,-6.403,-4.813,6.335,1.079,-0.423,-0.595
223.0,-6.547,-3.809,6.311,1.147,-0.449,-0.744
227.0,-6.547,-3.809,6.311,1.147,-0.449,-0.744
231.0,-6.629,-2.73,6.066,1.126,-0.509,-0.839
235.0,-6.629,-2.73,6.066,1.126,-0.509,-0.839
239.0,-6.629,-2.73,6.066,1.126,-0.509,-0.839
243.0,-6.544,-1.743,5.751,1.025,-0.523,-0.875
247.0,-6.544,-1.743,5.751,1.025,-0.523,-0.875
251.0,-6.339,-1.516,5.589,0.831,-0.529,-0.865
255.0,-6.339,-1.516,5.589,0.831,-0.529,-0.865
258.0,-6.339,-1.516,5.589,0.831,-0.529,-0.865
262.0,-6.133,-1.662,5.416,0.619,-0.523,-0.844
266.0,-6.133,-1.662,5.416,0.619,-0.523,-0.844
270.0,-5.992,-2.101,5.356,0.619,-0.487,-0.823
274.0,-5.992,-2.101,5.356,0.431,-0.487,-0.823
278.0,-5.992,-2.101,5.356,0.431,-0.487,-0.823
282.0,-5.913,-3.014,6.181,0.304,-0.393,-0.793
286.0,-5.913,-3.014,6.181,0.304,-0.393,-0.793
290.0,-7.378,-4.574,6.094,0.304,-0.393,-0.77
294.0,-7.378,-4.574,6.094,0.446,-0.321,-0.77
298.0,-7.378,-4.574,6.094,0.446,-0.321,-0.77
301.0,-7.402,-3.112,5.865,0.745,-0.342,-0.708
305.0,-7.402,-3.112,5.865,0.745,-0.342,-0.708
309.0,-7.306,-2.73,5.784,0.745,-0.342,-0.708
313.0,-7.306,-2.73,5.784,0.751,-0.297,-0.656
317.0,-7.306,-2.73,5.784,0.751,-0.297,-0.656
321.0,-7.01,-3.271,5.745,0.637,-0.251,-0.569
325.0,-7.01,-3.271,5.745,0.637,-0.251,-0.569
329.0,-7.01,-3.723,5.789,0.637,-0.251,-0.569
333.0,-6.407,-3.723,5.789,0.591,-0.172,-0.474
337.0,-6.407,-3.723,5.789,0.591,-0.172,-0.474
341.0,-6.062,-3.773,5.836,0.612,-0.089,-0.418
344.0,-6.062,-3.773,5.836,0.612,-0.089,-0.418
348.0,-6.062,-3.773,5.856,0.612,-0.089,-0.418
352.0,-6.517,-3.769,5.856,0.633,-0.007,-0.378
356.0,-6.517,-3.769,5.856,0.633,-0.007,-0.378
360.0,-6.948,-3.711,5.939,0.629,0.055,-0.339
364.0,-6.948,-3.711,5.939,0.629,0.055,-0.339
368.0,-6.948,-3.711,5.939,0.629,0.055,-0.339
372.0,-7.067,-3.608,6.044,0.607,0.073,-0.304
375.0,-7.067,-3.608,6.044,0.607,0.073,-0.304
379.0,-7.37,-3.687,6.068,0.609,0.059,-0.268
383.0,-7.37,-3.687,6.068,0.609,0.059,-0.268
387.0,-7.37,-3.687,6.068,0.609,0.059,-0.268
391.0,-7.693,-3.752,6.005,0.654,0.031,-0.228
394.0,-7.693,-3.752,6.005,0.654,0.031,-0.228
398.0,-7.471,-3.776,5.841,0.654,0.031,-0.192
402.0,-7.471,-3.776,5.841,0.709,0.001,-0.192
406.0,-7.471,-3.776,5.841,0.709,0.001,-0.192
410.0,-7.009,-3.76,5.703,0.751,-0.026,-0.174
414.0,-7.009,-3.76,5.703,0.751,-0.026,-0.174
418.0,-7.009,-3.76,5.738,0.751,-0.026,-0.174
421.0,-6.755,-3.577,5.738,0.765,-0.038,-0.187
425.0,-6.755,-3.577,5.738,0.765,-0.038,-0.187
429.0,-6.699,-3.37,5.862,0.735,-0.037,-0.218
433.0,-6.699,-3.37,5.862,0.735,-0.037,-0.218
437.0,-6.699,-3.37,5.862,0.735,-0.037,-0.218
441.0,-6.82,-3.363,6.071,0.666,-0.032,-0.245
445.0,-6.82,-3.363,6.071,0.666,-0.032,-0.245
449.0,-7.08,-3.483,6.316,0.61,-0.042,-0.266
453.0,-7.08,-3.483,6.316,0.61,-0.042,-0.266
457.0,-7.08,-3.483,6.316,0.61,-0.042,-0.266
460.0,-7.333,-3.452,6.424,0.582,-0.076,-0.288
464.0,-7.333,-3.452,6.424,0.582,-0.076,-0.288
468.0,-7.472,-3.315,6.51,0.56,-0.124,-0.318
472.0,-7.472,-3.315,6.51,0.56,-0.124,-0.318
476.0,-7.472,-3.315,6.51,0.56,-0.124,-0.318
480.0,-7.364,-3.159,6.671,0.522,-0.173,-0.355
484.0,-7.364,-3.159,6.671,0.522,-0.173,-0.355
488.0,-7.205,-3.243,6.471,0.499,-0.214,-0.37
492.0,-7.205,-3.243,6.471,0.499,-0.214,-0.37
496.0,-7.205,-3.243,6.471,0.499,-0.214,-0.37
500.0,-6.993,-3.212,6.271,0.511,-0.233,-0.37
503.0,-6.993,-3.212,6.271,0.511,-0.233,-0.37
507.0,-6.825,-3.143,6.163,0.533,-0.223,-0.349
511.0,-6.825,-3.143,6.163,0.533,-0.223,-0.349
515.0,-6.825,-3.143,6.163,0.533,-0.223,-0.349
519.0,-6.772,-3.016,6.126,0.553,-0.203,-0.311
523.0,-6.772,-3.016,6.126,0.553,-0.203,-0.311
527.0,-6.879,-2.9,6.281,0.544,-0.17,-0.282
531.0,-6.879,-2.9,6.281,0.544,-0.17,-0.282
535.0,-6.879,-2.9,6.281,0.544,-0.17,-0.282
539.0,-7.022,-2.798,6.39,0.511,-0.154,-0.264
543.0,-7.022,-2.798,6.39,0.511,-0.154,-0.264
546.0,-7.122,-2.803,6.505,0.511,-0.154,-0.259
550.0,-7.122,-2.803,6.505,0.464,-0.161,-0.259
554.0,-7.122,-2.803,6.505,0.464,-0.161,-0.259
558.0,-7.147,-2.795,6.492,0.414,-0.177,-0.266
562.0,-7.147,-2.795,6.492,0.414,-0.177,-0.266
566.0,-7.193,-2.696,6.527,0.414,-0.177,-0.266
570.0,-7.193,-2.696,6.527,0.361,-0.181,-0.275
574.0,-7.193,-2.696,6.527,0.361,-0.181,-0.275
578.0,-7.175,-2.607,6.538,0.303,-0.173,-0.28
582.0,-7.175,-2.607,6.538,0.303,-0.173,-0.28
585.0,-7.085,-2.478,6.647,0.303,-0.173,-0.28
589.0,-7.085,-2.478,6.647,0.249,-0.155,-0.271
593.0,-7.085,-2.478,6.647,0.249,-0.155,-0.271
597.0,-6.978,-2.362,6.868,0.203,-0.131,-0.253
601.0,-6.978,-2.362,6.868,0.203,-0.131,-0.253
605.0,-6.978,-2.362,7.146,0.203,-0.131,-0.253
609.0,-6.908,-2.328,7.146,0.165,-0.117,-0.237
613.0,-6.908,-2.328,7.146,0.165,-0.117,-0.237
617.0,-6.823,-2.367,7.465,0.141,-0.123,-0.224
621.0,-6.823,-2.367,7.465,0.141,-0.123,-0.224
625.0,-6.823,-2.367,7.465,0.141,-0.123,-0.224
628.0,-6.802,-2.467,7.673,0.129,-0.144,-0.217
632.0,-6.802,-2.467,7.673,0.129,-0.144,-0.217
636.0,-6.844,-2.599,7.886,0.126,-0.174,-0.215
640.0,-6.844,-2.599,7.886,0.126,-0.174,-0.215
644.0,-6.844,-2.599,7.886,0.126,-0.174,-0.215
648.0,-6.937,-2.655,8.025,0.131,-0.225,-0.219
652.0,-6.937,-2.655,8.025,0.131,-0.225,-0.219
656.0,-7.003,-2.667,8.121,0.135,-0.302,-0.233
660.0,-7.003,-2.667,8.121,0.135,-0.302,-0.233
664.0,-7.003,-2.667,8.121,0.135,-0.302,-0.233
668.0,-6.96,-2.683,8.268,0.127,-0.391,-0.248
671.0,-6.96,-2.683,8.268,0.127,-0.391,-0.248
675.0,-6.938,-2.741,8.544,0.104,-0.47,-0.27
679.0,-6.938,-2.741,8.544,0.104,-0.47,-0.27
683.0,-6.938,-2.741,8.544,0.104,-0.47,-0.27
687.0,-6.934,-2.758,8.898,0.083,-0.541,-0.287
691.0,-6.934,-2.758,8.898,0.083,-0.541,-0.287
695.0,-6.983,-2.727,9.206,0.08,-0.612,-0.285
699.0,-6.983,-2.727,9.206,0.08,-0.612,-0.285
703.0,-6.983,-2.727,9.206,0.08,-0.612,-0.285
707.0,-7.0,-2.612,9.485,0.07,-0.671,-0.28
710.0,-7.0,-2.612,9.485,0.07,-0.671,-0.28
714.0,-7.119,-2.997,9.812,0.07,-0.742,-0.289
718.0,-7.119,-2.997,9.812,0.039,-0.742,-0.289
722.0,-7.119,-2.997,9.812,0.039,-0.742,-0.289
726.0,-6.968,-3.532,10.205,0.069,-0.836,-0.301
730.0,-6.968,-3.532,10.205,0.069,-0.836,-0.301
734.0,-6.698,-3.925,10.524,0.069,-0.927,-0.318
738.0,-6.698,-3.925,10.524,0.196,-0.927,-0.318
742.0,-6.698,-3.925,10.524,0.196,-0.927,-0.318
746.0,-6.558,-4.053,10.915,0.392,-0.999,-0.337
750.0,-6.558,-4.053,10.915,0.392,-0.999,-0.337
754.0,-6.594,-3.747,11.267,0.594,-1.068,-0.364
758.0,-6.594,-3.747,11.267,0.594,-1.068,-0.364
762.0,-6.594,-3.747,11.267,0.594,-1.068,-0.364
766.0,-6.676,-3.455,11.472,0.73,-1.149,-0.403
770.0,-6.676,-3.455,11.472,0.73,-1.149,-0.403
774.0,-6.839,-3.194,11.837,0.796,-1.234,-0.448
778.0,-6.839,-3.194,11.837,0.796,-1.234,-0.448
782.0,-6.839,-3.194,11.837,0.796,-1.234,-0.448
786.0,-6.936,-2.891,12.095,0.81,-1.332,-0.493
790.0,-6.936,-2.891,12.095,0.81,-1.332,-0.493
794.0,-6.812,-2.614,12.079,0.79,-1.442,-0.534
798.0,-6.812,-2.614,12.079,0.79,-1.442,-0.534
802.0,-6.812,-2.614,12.079,0.79,-1.442,-0.534
806.0,-6.545,-2.606,11.958,0.751,-1.552,-0.569
810.0,-6.545,-2.606,11.958,0.751,-1.552,-0.569
814.0,-6.361,-2.727,11.952,0.713,-1.659,-0.615
818.0,-6.361,-2.727,11.952,0.713,-1.659,-0.615
822.0,-6.361,-2.727,11.952,0.713,-1.659,-0.615
826.0,-6.293,-2.791,11.975,0.693,-1.772,-0.673
830.0,-6.293,-2.791,11.975,0.693,-1.772,-0.673
834.0,-6.27,-2.878,12.005,0.695,-1.898,-0.725
838.0,-6.27,-2.878,12.005,0.695,-1.898,-0.725
842.0,-6.27,-2.878,12.092,0.695,-1.898,-0.725
846.0,-6.201,-2.943,12.092,0.706,-2.039,-0.768
850.0,-6.201,-2.943,12.092,0.706,-2.039,-0.768
854.0,-5.932,-3.072,12.117,0.724,-2.177,-0.804
858.0,-5.932,-3.072,12.117,0.724,-2.177,-0.804
862.0,-5.569,-3.481,12.056,0.724,-2.177,-0.804
866.0,-5.569,-3.481,12.056,0.754,-2.294,-0.834
870.0,-5.569,-3.481,12.056,0.754,-2.294,-0.834
874.0,-5.299,-3.991,11.971,0.815,-2.374,-0.859
878.0,-5.299,-3.991,11.971,0.815,-2.374,-0.859
882.0,-5.186,-4.345,11.953,0.815,-2.374,-0.859
886.0,-5.186,-4.345,11.953,0.931,-2.429,-0.883
890.0,-5.186,-4.345,11.953,0.931,-2.429,-0.883
894.0,-5.207,-4.53,11.929,1.091,-2.474,-0.903
898.0,-5.207,-4.53,11.929,1.091,-2.474,-0.903
902.0,-5.271,-4.591,11.853,1.091,-2.508,-0.923
906.0,-5.271,-4.591,11.853,1.269,-2.508,-0.923
910.0,-5.271,-4.591,11.853,1.269,-2.508,-0.923
914.0,-5.302,-4.664,11.818,1.445,-2.529,-0.95
918.0,-5.302,-4.664,11.818,1.445,-2.529,-0.95
922.0,-5.172,-4.707,11.618,1.628,-2.546,-0.998
926.0,-5.172,-4.707,11.618,1.628,-2.546,-0.998
930.0,-5.172,-4.707,11.618,1.628,-2.546,-0.998
934.0,-4.973,-4.71,11.285,1.828,-2.562,-1.068
938.0,-4.973,-4.71,11.285,1.828,-2.562,-1.068
942.0,-4.688,-4.695,10.856,2.041,-2.585,-1.156
946.0,-4.688,-4.695,10.856,2.041,-2.585,-1.156
950.0,-4.688,-4.695,10.856,2.041,-2.585,-1.156
954.0,-4.284,-4.598,10.342,2.257,-2.591,-1.237
958.0,-4.284,-4.598,10.342,2.257,-2.591,-1.237
962.0,-3.836,-4.528,9.91,2.459,-2.566,-1.296
966.0,-3.836,-4.528,9.91,2.459,-2.566,-1.296
970.0,-3.836,-4.528,9.91,2.459,-2.566,-1.296
973.0,-3.35,-4.678,9.571,2.644,-2.52,-1.351
977.0,-3.35,-4.678,9.571,2.644,-2.52,-1.351
981.0,-3.048,-4.741,9.27,2.825,-2.463,-1.433
985.0,-3.048,-4.741,9.27,2.825,-2.463,-1.433
989.0,-3.048,-4.741,9.27,2.825,-2.463,-1.433
993.0,-2.85,-4.62,9.001,3.01,-2.411,-1.548
997.0,-2.85,-4.62,9.001,3.01,-2.411,-1.548
1001.0,-2.648,-4.644,8.765,3.21,-2.377,-1.67
1005.0,-2.648,-4.644,8.765,3.21,-2.377,-1.67
1009.0,-2.648,-4.644,8.765,3.21,-2.377,-1.67
1013.0,-2.544,-4.698,8.461,3.436,-2.347,-1.763
1017.0,-2.544,-4.698,8.461,3.436,-2.347,-1.763
1021.0,-2.533,-4.848,8.328,3.68,-2.309,-1.813
1025.0,-2.533,-4.848,8.328,3.68,-2.309,-1.813
1029.0,-2.533,-4.848,8.328,3.68,-2.309,-1.813
1033.0,-2.589,-4.69,8.075,3.945,-2.265,-1.831
1037.0,-2.589,-4.69,8.075,3.945,-2.265,-1.831
1041.0,-2.53,-4.293,7.717,4.221,-2.224,-1.827
1045.0,-2.53,-4.293,7.717,4.221,-2.224,-1.827
1049.0,-2.53,-4.293,7.717,4.221,-2.224,-1.827
1053.0,-2.219,-3.91,7.39,4.48,-2.193,-1.813
1057.0,-2.219,-3.91,7.39,4.48,-2.193,-1.813
1061.0,-1.744,-3.429,7.08,4.706,-2.168,-1.816
1065.0,-1.744,-3.429,7.08,4.706,-2.168,-1.816
1069.0,-1.744,-3.429,7.08,4.706,-2.168,-1.816
1073.0,-1.379,-2.908,6.791,4.886,-2.142,-1.855
1077.0,-1.379,-2.908,6.791,4.886,-2.142,-1.855
1081.0,-1.26,-2.728,6.607,4.983,-2.127,-1.925
1085.0,-1.26,-2.728,6.607,4.983,-2.127,-1.925
1089.0,-1.26,-2.728,6.154,4.983,-2.127,-1.925
1093.0,-1.211,-2.292,6.154,4.995,-2.118,-2.008
1097.0,-1.211,-2.292,6.154,4.995,-2.118,-2.008
1101.0,-1.083,-1.626,5.95,4.995,-2.084,-2.08
1105.0,-1.083,-1.626,5.95,4.995,-2.084,-2.08
1109.0,-1.083,-0.897,5.828,4.995,-2.084,-2.08
1113.0,-0.926,-0.897,5.828,4.995,-2.05,-2.14
1117.0,-0.926,-0.897,5.828,4.995,-2.05,-2.14
1121.0,-0.794,-0.084,5.626,4.995,-2.04,-2.184
1125.0,-0.794,-0.084,5.626,4.995,-2.04,-2.184
1129.0,-0.642,0.675,5.27,4.995,-2.04,-2.184
1132.0,-0.642,0.675,5.27,4.985,-2.05,-2.203
1136.0,-0.642,0.675,5.27,4.985,-2.05,-2.203
1140.0,-0.44,1.314,4.859,4.875,-2.064,-2.21
1144.0,-0.44,1.314,4.859,4.875,-2.064,-2.21
1148.0,-0.44,1.797,4.418,4.875,-2.064,-2.21
1152.0,-0.135,1.797,4.418,4.666,-2.077,-2.236
1156.0,-0.135,1.797,4.418,4.666,-2.077,-2.236
1160.0,0.124,2.258,4.037,4.428,-2.091,-2.318
1164.0,0.124,2.258,4.037,4.428,-2.091,-2.318
1167.0,0.124,2.258,4.037,4.428,-2.091,-2.318
1171.0,0.198,2.622,3.808,4.158,-2.112,-2.43
1175.0,0.198,2.622,3.808,4.158,-2.112,-2.43
1179.0,0.214,3.013,3.525,3.852,-2.131,-2.535
1183.0,0.214,3.013,3.525,3.852,-2.131,-2.535
1187.0,0.214,3.013,3.525,3.852,-2.131,-2.535
1190.0,0.148,3.4,3.212,3.519,-2.128,-2.611
1194.0,0.148,3.4,3.212,3.519,-2.128,-2.611
1198.0,0.121,3.743,2.973,3.519,-2.105,-2.649
1202.0,0.121,3.743,2.973,3.172,-2.105,-2.649
1206.0,0.121,3.743,2.973,3.172,-2.105,-2.649
1209.0,0.152,3.951,2.837,2.824,-2.078,-2.674
1213.0,0.152,3.951,2.837,2.824,-2.078,-2.674
1217.0,0.152,4.129,2.684,2.824,-2.078,-2.674
1221.0,0.113,4.129,2.684,2.491,-2.053,-2.703
1225.0,0.113,4.129,2.684,2.491,-2.053,-2.703
1229.0,0.047,4.248,2.545,2.191,-2.023,-2.738
1232.0,0.047,4.248,2.545,2.191,-2.023,-2.738
1236.0,0.047,4.248,2.545,2.191,-2.023,-2.738
1240.0,-0.13,4.504,2.51,1.928,-1.987,-2.761
1244.0,-0.13,4.504,2.51,1.928,-1.987,-2.761
1248.0,-0.414,4.766,2.473,1.715,-1.948,-2.769
1252.0,-0.414,4.766,2.473,1.715,-1.948,-2.769
1256.0,-0.414,4.766,2.473,1.715,-1.948,-2.769
1260.0,-0.793,5.098,2.392,1.564,-1.916,-2.765
1263.0,-0.793,5.098,2.392,1.564,-1.916,-2.765
1267.0,-1.121,5.435,2.201,1.461,-1.889,-2.729
1271.0,-1.121,5.435,2.201,1.461,-1.889,-2.729
1275.0,-1.121,5.435,2.201,1.461,-1.889,-2.729
1279.0,-1.281,5.827,1.9,1.38,-1.858,-2.639
1283.0,-1.281,5.827,1.9,1.38,-1.858,-2.639
1287.0,-1.253,6.203,1.604,1.38,-1.814,-2.497
1291.0,-1.253,6.203,1.604,1.308,-1.814,-2.497
1295.0,-1.253,6.203,1.604,1.308,-1.814,-2.497
1299.0,-1.22,6.655,1.451,1.236,-1.759,-2.341
1302.0,-1.22,6.655,1.451,1.236,-1.759,-2.341
1306.0,-1.347,7.245,1.396,1.236,-1.759,-2.201
1310.0,-1.347,7.245,1.396,1.166,-1.702,-2.201
1314.0,-1.347,7.245,1.396,1.166,-1.702,-2.201
1318.0,-1.738,8.032,1.434,1.103,-1.65,-2.087
1322.0,-1.738,8.032,1.434,1.103,-1.65,-2.087
1326.0,-2.209,8.814,1.465,1.103,-1.65,-2.087
1330.0,-2.209,8.814,1.465,1.042,-1.611,-1.965
1334.0,-2.209,8.814,1.465,1.042,-1.611,-1.965
1338.0,-2.373,9.438,1.368,0.965,-1.581,-1.806
1342.0,-2.373,9.438,1.368,0.965,-1.581,-1.806
1345.0,-2.373,9.907,1.311,0.965,-1.581,-1.806
1349.0,-2.228,9.907,1.311,0.859,-1.527,-1.616
1353.0,-2.228,9.907,1.311,0.859,-1.527,-1.616
1357.0,-2.152,10.336,1.324,0.724,-1.449,-1.428
1361.0,-2.152,10.336,1.324,0.724,-1.449,-1.428
1365.0,-2.152,10.765,1.337,0.724,-1.449,-1.428
1369.0,-2.247,10.765,1.337,0.56,-1.363,-1.242
1373.0,-2.247,10.765,1.337,0.56,-1.363,-1.242
1377.0,-2.394,11.073,1.448,0.37,-1.264,-1.056
1381.0,-2.394,11.073,1.448,0.37,-1.264,-1.056
1385.0,-2.496,11.331,1.657,0.37,-1.264,-1.056
1389.0,-2.496,11.331,1.657,0.164,-1.157,-0.879
1393.0,-2.496,11.331,1.657,0.164,-1.157,-0.879
1397.0,-2.591,11.609,1.959,-0.045,-1.045,-0.709
1401.0,-2.591,11.609,1.959,-0.045,-1.045,-0.709
1405.0,-2.776,11.95,2.358,-0.045,-0.934,-0.532
1409.0,-2.776,11.95,2.358,-0.246,-0.934,-0.532
1413.0,-2.776,11.95,2.358,-0.246,-0.934,-0.532
1418.0,-3.132,12.207,2.693,-0.422,-0.833,-0.333
1422.0,-3.132,12.207,2.693,-0.422,-0.833,-0.333
1426.0,-3.36,12.228,2.812,-0.573,-0.737,-0.101
1430.0,-3.36,12.228,2.812,-0.573,-0.737,-0.101
1434.0,-3.36,12.228,2.812,-0.573,-0.737,-0.101
1438.0,-3.276,12.088,2.955,-0.703,-0.63,0.122
1442.0,-3.276,12.088,2.955,-0.703,-0.63,0.122
1446.0,-3.034,11.853,3.299,-0.817,-0.518,0.303
1450.0,-3.034,11.853,3.299,-0.817,-0.518,0.303
1454.0,-3.034,11.853,3.62,-0.817,-0.518,0.303
1458.0,-2.728,11.653,3.62,-0.909,-0.426,0.433
1462.0,-2.728,11.653,3.62,-0.909,-0.426,0.433
1466.0,-2.339,11.514,3.924,-0.97,-0.356,0.528
1470.0,-2.339,11.514,3.924,-0.97,-0.356,0.528
1474.0,-2.339,11.259,4.375,-0.97,-0.356,0.528
1478.0,-1.902,11.259,4.375,-0.993,-0.294,0.603
1482.0,-1.902,11.259,4.375,-0.993,-0.294,0.603
1486.0,-1.641,11.015,4.716,-0.958,-0.24,0.661
1490.0,-1.641,11.015,4.716,-0.958,-0.24,0.661
1494.0,-1.296,10.813,4.937,-0.958,-0.24,0.661
1498.0,-1.296,10.813,4.937,-0.883,-0.211,0.745
1502.0,-1.296,10.813,4.937,-0.883,-0.211,0.745
1506.0,-0.785,10.42,5.124,-0.8,-0.187,0.862
1510.0,-0.785,10.42,5.124,-0.8,-0.187,0.862
1514.0,-0.346,9.933,5.261,-0.8,-0.155,0.961
1518.0,-0.346,9.933,5.261,-0.719,-0.155,0.961
1522.0,-0.346,9.933,5.261,-0.719,-0.155,0.961
1525.0,-0.211,9.615,5.425,-0.623,-0.122,0.995
1529.0,-0.211,9.615,5.425,-0.623,-0.122,0.995
1533.0,-0.299,9.595,5.489,-0.623,-0.122,0.995
1537.0,-0.299,9.595,5.489,-0.502,-0.102,0.983
1541.0,-0.299,9.595,5.489,-0.502,-0.102,0.983
1545.0,-0.327,9.664,5.634,-0.367,-0.086,0.974
1549.0,-0.327,9.664,5.634,-0.367,-0.086,0.974
1553.0,-0.363,9.804,5.928,-0.367,-0.086,0.974
1557.0,-0.363,9.804,5.928,-0.226,-0.067,0.979
1561.0,-0.363,9.804,5.928,-0.226,-0.067,0.979
1565.0,-0.521,10.091,6.072,-0.088,-0.061,1.008
1569.0,-0.521,10.091,6.072,-0.088,-0.061,1.008
1573.0,-0.521,10.385,6.12,-0.088,-0.061,1.008
1577.0,-0.738,10.385,6.12,0.024,-0.066,1.073
1580.0,-0.738,10.385,6.12,0.024,-0.066,1.073
1584.0,-0.879,10.51,6.043,0.092,-0.079,1.161
1588.0,-0.879,10.51,6.043,0.092,-0.079,1.161
1592.0,-0.879,10.51,6.034,0.092,-0.079,1.161
1596.0,-0.863,10.549,6.034,0.12,-0.088,1.25
1600.0,-0.863,10.549,6.034,0.12,-0.088,1.25
1604.0,-0.943,10.644,6.12,0.129,-0.087,1.313
1608.0,-0.943,10.644,6.12,0.129,-0.087,1.313
1612.0,-0.943,10.644,6.12,0.129,-0.087,1.313
1616.0,-1.138,10.884,6.174,0.142,-0.09,1.365
1620.0,-1.138,10.884,6.174,0.142,-0.09,1.365
1623.0,-1.304,11.188,6.172,0.156,-0.096,1.439
1627.0,-1.304,11.188,6.172,0.156,-0.096,1.439
1631.0,-1.304,11.188,6.172,0.156,-0.096,1.439
1635.0,-1.328,11.407,6.142,0.171,-0.098,1.538
1639.0,-1.328,11.407,6.142,0.171,-0.098,1.538
1643.0,-1.43,11.617,6.1,0.195,-0.091,1.621
1647.0,-1.43,11.617,6.1,0.195,-0.091,1.621
1651.0,-1.43,11.617,6.1,0.195,-0.091,1.621
1655.0,-1.643,11.922,6.001,0.222,-0.089,1.697
1659.0,-1.643,11.922,6.001,0.222,-0.089,1.697
1662.0,-1.702,12.111,5.909,0.235,-0.088,1.808
1666.0,-1.702,12.111,5.909,0.235,-0.088,1.808
1670.0,-1.702,12.111,5.909,0.235,-0.088,1.808
1674.0,-1.635,12.08,5.963,0.231,-0.07,1.951
1678.0,-1.635,12.08,5.963,0.231,-0.07,1.951
1682.0,-1.721,12.052,5.992,0.231,-0.045,2.103
1686.0,-1.721,12.052,5.992,0.231,-0.045,2.103
1690.0,-1.721,12.052,5.992,0.231,-0.045,2.103
1694.0,-1.801,12.026,5.911,0.232,-0.026,2.275
1698.0,-1.801,12.026,5.911,0.232,-0.026,2.275
1702.0,-1.745,11.933,5.877,0.226,-0.006,2.471
1705.0,-1.745,11.933,5.877,0.226,-0.006,2.471
1709.0,-1.745,11.933,5.877,0.226,-0.006,2.471
1713.0,-1.627,11.871,5.904,0.217,0.012,2.66
1717.0,-1.627,11.871,5.904,0.217,0.012,2.66
1721.0,-1.566,11.87,5.874,0.217,0.012,2.839
1725.0,-1.566,11.87,5.874,0.215,0.019,2.839
1729.0,-1.566,11.87,5.874,0.215,0.019,2.839
1732.0,-1.476,11.77,5.798,0.212,0.025,3.018
1736.0,-1.476,11.77,5.798,0.212,0.025,3.018
1740.0,-1.476,11.77,5.798,0.212,0.025,3.018
1744.0,-1.506,11.693,5.74,0.204,0.032,3.197
1748.0,-1.506,11.693,5.74,0.204,0.032,3.197
1751.0,-1.543,11.472,5.587,0.188,0.037,3.388
1755.0,-1.543,11.472,5.587,0.188,0.037,3.388
1759.0,-1.543,11.472,5.587,0.188,0.037,3.388
1763.0,-1.636,11.281,5.562,0.171,0.051,3.568
1767.0,-1.636,11.281,5.562,0.171,0.051,3.568
1771.0,-1.695,10.994,5.518,0.171,0.069,3.735
1774.0,-1.695,10.994,5.518,0.163,0.069,3.735
1778.0,-1.695,10.994,5.518,0.163,0.069,3.735
1782.0,-1.556,10.704,5.709,0.163,0.081,3.908
1786.0,-1.556,10.704,5.709,0.163,0.081,3.908
1790.0,-1.556,10.362,5.842,0.163,0.081,3.908
1793.0,-1.302,10.362,5.842,0.177,0.079,4.087
1797.0,-1.302,10.362,5.842,0.177,0.079,4.087
1801.0,-0.924,9.972,5.859,0.201,0.078,4.258
1805.0,-0.924,9.972,5.859,0.201,0.078,4.258
1809.0,-0.924,9.972,5.859,0.201,0.078,4.258
1812.0,-0.549,9.462,5.85,0.221,0.09,4.4
1816.0,-0.549,9.462,5.85,0.221,0.09,4.4
1820.0,-0.104,8.882,5.87,0.221,0.09,4.507
1823.0,-0.104,8.882,5.87,0.227,0.112,4.507
1827.0,-0.104,8.882,5.87,0.227,0.112,4.507
1831.0,0.256,8.186,5.803,0.225,0.148,4.552
1835.0,0.256,8.186,5.803,0.225,0.148,4.552
1838.0,0.256,8.186,5.803,0.225,0.148,4.552
1842.0,0.525,7.628,5.721,0.214,0.201,4.529
1846.0,0.525,7.628,5.721,0.214,0.201,4.529
1849.0,0.54,7.358,5.775,0.214,0.201,4.529
1853.0,0.54,7.358,5.775,0.197,0.262,4.479
1856.0,0.54,7.358,5.775,0.197,0.262,4.479
1860.0,0.452,7.293,5.855,0.178,0.318,4.454
1864.0,0.452,7.293,5.855,0.178,0.318,4.454
1867.0,0.452,7.293,5.855,0.178,0.318,4.454
1871.0,0.394,7.275,6.066,0.163,0.363,4.479
1875.0,0.394,7.275,6.066,0.163,0.363,4.479
1878.0,0.394,7.275,6.051,0.163,0.363,4.479
1882.0,0.589,6.891,6.051,0.162,0.384,4.549
1886.0,0.589,6.891,6.051,0.162,0.384,4.549
1889.0,1.03,6.306,5.917,0.166,0.404,4.621
1893.0,1.03,6.306,5.917,0.166,0.404,4.621
1897.0,1.03,6.306,5.917,0.166,0.404,4.621
1900.0,1.366,5.952,5.918,0.172,0.438,4.667
1904.0,1.366,5.952,5.918,0.172,0.438,4.667
1908.0,1.366,5.952,5.918,0.172,0.438,4.667
1911.0,1.698,5.599,5.737,0.166,0.474,4.722
1915.0,1.698,5.599,5.737,0.166,0.474,4.722
1918.0,2.075,5.183,5.486,0.166,0.474,4.795
1922.0,2.075,5.183,5.486,0.139,0.53,4.795
1926.0,2.075,5.183,5.486,0.139,0.53,4.795
1929.0,2.364,4.746,5.314,0.096,0.607,4.87
1933.0,2.364,4.746,5.314,0.096,0.607,4.87
1937.0,2.364,4.746,5.314,0.096,0.607,4.87
1940.0,2.483,4.417,5.226,0.04,0.682,4.941
1944.0,2.483,4.417,5.226,0.04,0.682,4.941
1948.0,2.483,4.044,5.107,0.04,0.682,4.941
1951.0,2.552,4.044,5.107,-0.033,0.747,5.001
1955.0,2.552,4.044,5.107,-0.033,0.747,5.001
1959.0,2.595,3.727,5.131,-0.13,0.809,5.013
1962.0,2.595,3.727,5.131,-0.13,0.809,5.013
1966.0,2.595,3.727,5.131,-0.13,0.809,5.013
1970.0,2.539,3.21,5.022,-0.25,0.864,5.013
1974.0,2.539,3.21,5.022,-0.25,0.864,5.013
1977.0,2.525,2.442,4.615,-0.25,0.864,5.013
1981.0,2.525,2.442,4.615,-0.403,0.917,5.013
1985.0,2.525,2.442,4.615,-0.403,0.917,5.013
1989.0,2.441,1.67,4.268,-0.594,0.987,5.013
1992.0,2.441,1.67,4.268,-0.594,0.987,5.013
1996.0,2.441,1.67,4.268,-0.594,0.987,5.013
2000.0,2.367,1.074,4.165,-0.819,1.062,5.013
2004.0,2.367,1.074,4.165,-0.819,1.062,5.013
2007.0,2.247,0.51,4.156,-0.819,1.062,5.013
2011.0,2.247,0.51,4.156,-1.069,1.145,5.013
2015.0,2.247,0.51,4.156,-1.069,1.145,5.013
2018.0,1.923,-0.154,4.143,-1.349,1.24,5.013
2022.0,1.923,-0.154,4.143,-1.349,1.24,5.013
2026.0,1.923,-0.154,4.143,-1.349,1.24,5.013
2030.0,0.864,-1.01,4.336,-1.674,1.322,5.013
2034.0,0.864,-1.01,4.336,-1.674,1.322,5.013
2038.0,-0.875,-2.005,4.424,-2.05,1.282,5.013
2041.0,-0.875,-2.005,4.424,-2.05,1.282,5.013
2045.0,-0.875,-2.005,4.424,-2.05,1.282,5.013
2049.0,-2.768,-3.221,4.339,-2.484,1.061,5.013
2053.0,-2.768,-3.221,4.339,-2.484,1.061,5.013
2057.0,-4.291,-4.786,3.781,-2.955,0.706,5.013
2061.0,-4.291,-4.786,3.781,-2.955,0.706,5.013
2065.0,-4.291,-4.786,3.781,-2.955,0.706,5.013
2069.0,-5.174,-6.48,3.044,-3.368,0.349,5.013
2073.0,-5.174,-6.48,3.044,-3.368,0.349,5.013
2077.0,-5.462,-8.309,2.536,-3.653,0.089,5.013
2081.0,-5.462,-8.309,2.536,-3.653,0.089,5.013
2084.0,-5.462,-8.309,2.536,-3.653,0.089,5.013
2088.0,-5.501,-10.065,2.447,-3.818,-0.102,5.008
2092.0,-5.501,-10.065,2.447,-3.818,-0.102,5.008
2097.0,-5.362,-11.482,2.431,-3.87,-0.316,4.914
2101.0,-5.362,-11.482,2.431,-3.87,-0.316,4.914
2105.0,-5.362,-11.482,2.431,-3.87,-0.316,4.914
2109.0,-4.661,-13.002,2.115,-3.831,-0.591,4.693
2113.0,-4.661,-13.002,2.115,-3.831,-0.591,4.693
2117.0,-3.6,-13.878,1.598,-3.735,-0.875,4.369
2121.0,-3.6,-13.878,1.598,-3.735,-0.875,4.369
2125.0,-3.6,-13.878,1.046,-3.735,-0.875,4.369
2129.0,-2.331,-13.829,1.046,-3.616,-1.126,3.966
2133.0,-2.331,-13.829,1.046,-3.616,-1.126,3.966
2137.0,-0.936,-13.242,0.772,-3.512,-1.34,3.577
2141.0,-0.936,-13.242,0.772,-3.512,-1.34,3.577
2145.0,0.452,-12.754,0.096,-3.512,-1.34,3.262
2149.0,0.452,-12.754,0.096,-3.387,-1.505,3.262
2153.0,0.452,-12.754,0.096,-3.387,-1.505,3.262
2157.0,1.939,-12.615,-0.388,-3.182,-1.563,3.047
2162.0,1.939,-12.615,-0.388,-3.182,-1.563,3.047
2166.0,3.455,-13.604,-0.319,-2.802,-1.521,2.949
2170.0,3.455,-13.604,-0.319,-2.802,-1.521,2.949
2174.0,3.455,-13.604,-0.319,-2.802,-1.521,2.949
2178.0,4.706,-15.088,0.048,-2.198,-1.442,2.876
2182.0,4.706,-15.088,0.048,-2.198,-1.442,2.876
2186.0,5.323,-16.288,0.43,-1.383,-1.337,2.747
2190.0,5.323,-16.288,0.43,-1.383,-1.337,2.747
2194.0,5.323,-16.288,0.43,-1.383,-1.337,2.747
2198.0,5.332,-16.853,0.551,-0.464,-1.201,2.57
2202.0,5.332,-16.853,0.551,-0.464,-1.201,2.57
2206.0,4.339,-16.807,0.41,0.385,-0.99,2.364
2210.0,4.339,-16.807,0.41,0.385,-0.99,2.364
2214.0,4.339,-16.807,0.41,0.385,-0.99,2.364
2218.0,4.024,-16.152,0.435,1.098,-0.923,2.139
2221.0,4.024,-16.152,0.435,1.098,-0.923,2.139
2225.0,4.02,-15.335,0.586,1.541,-0.848,1.909
2229.0,4.02,-15.335,0.586,1.541,-0.848,1.909
2233.0,4.02,-15.335,0.586,1.541,-0.848,1.909
2237.0,4.022,-14.576,0.529,1.732,-0.751,1.642
2241.0,4.022,-14.576,0.529,1.732,-0.751,1.642
2245.0,4.198,-13.792,0.337,1.705,-0.67,1.35
2249.0,4.198,-13.792,0.337,1.705,-0.67,1.35
2253.0,4.198,-13.792,0.337,1.705,-0.67,1.35
2257.0,4.487,-12.983,0.333,1.502,-0.583,1.061
2260.0,4.487,-12.983,0.333,1.502,-0.583,1.061
2264.0,4.884,-12.299,0.716,1.178,-0.502,0.801
2268.0,4.884,-12.299,0.716,1.178,-0.502,0.801
2272.0,4.884,-12.299,0.716,1.178,-0.502,0.801
2276.0,5.237,-11.902,1.156,0.79,-0.446,0.581
2280.0,5.237,-11.902,1.156,0.79,-0.446,0.581
2284.0,5.431,-11.769,1.414,0.399,-0.411,0.395
2288.0,5.431,-11.769,1.414,0.399,-0.411,0.395
2292.0,5.431,-11.769,1.414,0.399,-0.411,0.395
2296.0,5.508,-11.822,1.532,0.054,-0.379,0.236
2300.0,5.508,-11.822,1.532,0.054,-0.379,0.236
2303.0,5.494,-11.922,1.826,0.054,-0.337,0.102
2307.0,5.494,-11.922,1.826,-0.209,-0.337,0.102
2311.0,5.494,-11.922,1.826,-0.209,-0.337,0.102
2315.0,5.403,-12.073,2.172,-0.375,-0.304,-0.004
2319.0,5.403,-12.073,2.172,-0.375,-0.304,-0.004
2323.0,5.262,-12.166,2.294,-0.428,-0.285,-0.097
2328.0,5.262,-12.166,2.294,-0.428,-0.285,-0.097
2332.0,5.262,-12.166,2.294,-0.428,-0.285,-0.097
2336.0,5.116,-12.022,2.508,-0.374,-0.264,-0.188
2340.0,5.116,-12.022,2.508,-0.374,-0.264,-0.188
2344.0,5.029,-11.781,2.697,-0.243,-0.246,-0.254
2348.0,5.029,-11.781,2.697,-0.243,-0.246,-0.254
2352.0,5.029,-11.781,2.638,-0.243,-0.246,-0.254
2356.0,4.87,-11.462,2.638,-0.056,-0.233,-0.312
2360.0,4.87,-11.462,2.638,-0.056,-0.233,-0.312
2364.0,4.626,-10.898,2.425,0.178,-0.209,-0.384
2368.0,4.626,-10.898,2.425,0.178,-0.209,-0.384
2372.0,4.289,-9.829,2.168,0.178,-0.209,-0.384
2376.0,4.289,-9.829,2.168,0.439,-0.159,-0.438
2380.0,4.289,-9.829,2.168,0.439,-0.159,-0.438
2384.0,3.937,-8.16,1.832,0.728,-0.069,-0.407
2388.0,3.937,-8.16,1.832,0.728,-0.069,-0.407
2392.0,3.937,-6.176,1.663,0.728,-0.069,-0.407
2396.0,4.149,-6.176,1.663,1.059,0.044,-0.214
2400.0,4.149,-6.176,1.663,1.059,0.044,-0.214
2403.0,5.241,-4.644,1.787,1.428,0.15,0.172
2407.0,5.241,-4.644,1.787,1.428,0.15,0.172
2411.0,5.241,-4.644,1.787,1.428,0.15,0.172
2415.0,6.343,-3.962,1.983,1.835,0.284,0.698
2418.0,6.343,-3.962,1.983,1.835,0.284,0.698
2422.0,6.522,-4.282,1.808,1.835,0.437,1.235
2426.0,6.522,-4.282,1.808,2.269,0.437,1.235
2429.0,6.522,-4.282,1.808,2.269,0.437,1.235
2433.0,5.758,-5.107,1.482,2.679,0.599,1.632
2437.0,5.758,-5.107,1.482,2.679,0.599,1.632
2441.0,5.758,-5.107,1.482,2.679,0.599,1.632
2444.0,4.518,-5.562,1.307,3.024,0.777,1.817
2448.0,4.518,-5.562,1.307,3.024,0.777,1.817
2452.0,3.199,-5.295,1.226,3.298,0.965,1.863
2456.0,3.199,-5.295,1.226,3.298,0.965,1.863
2459.0,3.199,-5.295,1.226,3.298,0.965,1.863
2463.0,2.207,-4.653,1.079,3.521,1.157,1.898
2467.0,2.207,-4.653,1.079,3.521,1.157,1.898
2471.0,2.207,-4.653,0.861,3.521,1.157,1.898
2474.0,1.687,-3.968,0.861,3.725,1.369,1.984
2478.0,1.687,-3.968,0.861,3.725,1.369,1.984
2482.0,1.46,-3.458,0.881,3.951,1.617,2.122
2485.0,1.46,-3.458,0.881,3.951,1.617,2.122
2489.0,1.46,-3.458,0.881,3.951,1.617,2.122
2493.0,1.48,-3.418,0.905,4.217,1.871,2.277
2497.0,1.48,-3.418,0.905,4.217,1.871,2.277
2500.0,1.48,-3.692,0.766,4.217,1.871,2.277
2504.0,1.386,-3.692,0.766,4.535,2.117,2.394
2508.0,1.386,-3.692,0.766,4.535,2.117,2.394
2512.0,1.01,-4.214,0.523,4.882,2.339,2.444
2515.0,1.01,-4.214,0.523,4.882,2.339,2.444
2519.0,1.01,-4.214,0.523,4.882,2.339,2.444
2523.0,0.449,-4.511,0.22,4.995,2.545,2.421
2527.0,0.449,-4.511,0.22,4.995,2.545,2.421
2530.0,-0.182,-4.57,0.007,4.995,2.545,2.421
2534.0,-0.182,-4.57,0.007,4.995,2.749,2.369
2538.0,-0.182,-4.57,0.007,4.995,2.749,2.369
2542.0,-0.743,-4.449,-0.284,4.995,2.943,2.312
2546.0,-0.743,-4.449,-0.284,4.995,2.943,2.312
2550.0,-0.743,-4.449,-0.736,4.995,2.943,2.312
2553.0,-1.111,-4.281,-0.736,4.995,3.139,2.223
2557.0,-1.111,-4.281,-0.736,4.995,3.139,2.223
2561.0,-1.339,-3.912,-1.315,4.995,3.365,2.084
2565.0,-1.339,-3.912,-1.315,4.995,3.365,2.084
2569.0,-1.339,-3.912,-1.315,4.995,3.365,2.084
2573.0,-1.475,-3.54,-1.898,4.995,3.645,1.912
2577.0,-1.475,-3.54,-1.898,4.995,3.645,1.912
2581.0,-1.717,-3.27,-2.23,4.995,3.975,1.702
2585.0,-1.717,-3.27,-2.23,4.995,3.975,1.702
2589.0,-1.717,-3.27,-2.23,4.995,3.975,1.702
2593.0,-2.259,-3.26,-2.352,4.995,4.317,1.425
2596.0,-2.259,-3.26,-2.352,4.995,4.317,1.425
2600.0,-3.259,-3.552,-2.447,4.995,4.618,1.047
2604.0,-3.259,-3.552,-2.447,4.995,4.618,1.047
2608.0,-3.259,-3.552,-2.447,4.995,4.618,1.047
2612.0,-4.758,-3.875,-2.749,4.995,4.842,0.52
2616.0,-4.758,-3.875,-2.749,4.995,4.842,0.52
2620.0,-6.599,-3.84,-3.008,4.995,4.981,-0.156
2624.0,-6.599,-3.84,-3.008,4.995,4.981,-0.156
2628.0,-6.599,-3.84,-3.008,4.995,4.981,-0.156
2632.0,-8.276,-3.69,-3.341,4.995,5.013,-0.92
2636.0,-8.276,-3.69,-3.341,4.995,5.013,-0.92
2640.0,-9.75,-2.912,-3.869,4.995,5.005,-1.699
2644.0,-9.75,-2.912,-3.869,4.995,5.005,-1.699
2648.0,-9.75,-2.912,-3.869,4.995,5.005,-1.699
2652.0,-11.218,-1.356,-4.321,4.995,4.98,-2.38
2656.0,-11.218,-1.356,-4.321,4.995,4.98,-2.38
2660.0,-12.26,-0.134,-4.664,4.995,4.938,-2.873
2664.0,-12.26,-0.134,-4.664,4.995,4.938,-2.873
2668.0,-12.26,1.244,-4.651,4.995,4.938,-2.873
2672.0,-13.199,1.244,-4.651,4.995,4.892,-3.209
2676.0,-13.199,1.244,-4.651,4.995,4.892,-3.209
2680.0,-13.81,2.294,-4.498,4.995,4.841,-3.397
2684.0,-13.81,2.294,-4.498,4.995,4.841,-3.397
2688.0,-14.087,2.855,-4.062,4.995,4.841,-3.397
2692.0,-14.087,2.855,-4.062,4.995,4.777,-3.498
2696.0,-14.087,2.855,-4.062,4.995,4.777,-3.498
2700.0,-14.299,3.4,-3.398,4.995,4.693,-3.59
2704.0,-14.299,3.4,-3.398,4.995,4.693,-3.59
2708.0,-14.576,3.891,-2.707,4.995,4.693,-3.692
2712.0,-14.576,3.891,-2.707,4.995,4.581,-3.692
2716.0,-14.576,3.891,-2.707,4.995,4.581,-3.692
2720.0,-15.22,4.117,-1.88,4.995,4.423,-3.812
2724.0,-15.22,4.117,-1.88,4.995,4.423,-3.812
2728.0,-16.263,4.097,-1.137,4.995,4.201,-3.969
2732.0,-16.263,4.097,-1.137,4.995,4.201,-3.969
2736.0,-16.263,4.097,-1.137,4.995,4.201,-3.969
2740.0,-17.615,3.829,-0.576,4.995,3.923,-4.181
2744.0,-17.615,3.829,-0.576,4.995,3.923,-4.181
2748.0,-19.153,3.662,-0.059,4.995,3.594,-4.445
2752.0,-19.153,3.662,-0.059,4.995,3.594,-4.445
2756.0,-19.153,3.662,-0.059,4.995,3.594,-4.445
2760.0,-19.6,3.96,0.196,4.995,3.212,-4.717
2764.0,-19.6,3.96,0.196,4.995,3.212,-4.717
2768.0,-19.6,4.839,0.062,4.924,2.803,-4.907
2772.0,-19.6,4.839,0.062,4.924,2.803,-4.907
2776.0,-19.6,4.839,0.062,4.924,2.803,-4.907
2779.0,-19.6,5.602,-0.179,4.519,2.416,-4.95
2783.0,-19.6,5.602,-0.179,4.519,2.416,-4.95
2787.0,-19.6,6.276,-0.363,3.991,2.095,-4.897
2791.0,-19.6,6.276,-0.363,3.991,2.095,-4.897
2795.0,-19.6,6.276,-0.363,3.991,2.095,-4.897
2799.0,-19.6,6.634,-0.323,3.433,1.845,-4.786
2803.0,-19.6,6.634,-0.323,3.433,1.845,-4.786
2807.0,-19.6,6.696,-0.091,2.864,1.645,-4.663
2811.0,-19.6,6.696,-0.091,2.864,1.645,-4.663
2815.0,-19.6,6.696,-0.091,2.864,1.645,-4.663
2819.0,-19.6,6.705,0.287,2.297,1.475,-4.564
2823.0,-19.6,6.705,0.287,2.297,1.475,-4.564
2827.0,-19.6,6.607,0.701,1.744,1.294,-4.479
2831.0,-19.6,6.607,0.701,1.744,1.294,-4.479
2835.0,-19.6,6.607,0.701,1.744,1.294,-4.479
2839.0,-19.6,6.464,1.001,1.206,1.08,-4.382
2843.0,-19.6,6.464,1.001,1.206,1.08,-4.382
2847.0,-19.6,6.368,1.242,0.687,0.835,-4.263
2851.0,-19.6,6.368,1.242,0.687,0.835,-4.263
2855.0,-19.6,6.368,1.242,0.687,0.835,-4.263
2858.0,-19.6,6.291,1.338,0.186,0.571,-4.119
2862.0,-19.6,6.291,1.338,0.186,0.571,-4.119
2866.0,-19.6,6.175,1.28,-0.298,0.32,-3.969
2870.0,-19.6,6.175,1.28,-0.298,0.32,-3.969
2874.0,-19.6,6.175,1.28,-0.298,0.32,-3.969
2878.0,-19.191,6.072,1.263,-0.765,0.113,-3.831
2882.0,-19.191,6.072,1.263,-0.765,0.113,-3.831
2886.0,-18.253,5.924,1.299,-1.221,-0.044,-3.696
2890.0,-18.253,5.924,1.299,-1.221,-0.044,-3.696
2894.0,-18.253,5.924,1.299,-1.221,-0.044,-3.696
2898.0,-17.223,5.708,1.415,-1.666,-0.154,-3.542
2903.0,-17.223,5.708,1.415,-1.666,-0.154,-3.542
2907.0,-16.281,5.535,1.689,-2.099,-0.215,-3.365
2911.0,-16.281,5.535,1.689,-2.099,-0.215,-3.365
2915.0,-16.281,5.535,1.934,-2.099,-0.215,-3.365
2919.0,-15.438,5.241,1.934,-2.505,-0.243,-3.158
2923.0,-15.438,5.241,1.934,-2.505,-0.243,-3.158
2927.0,-14.727,5.195,2.103,-2.886,-0.251,-2.929
2931.0,-14.727,5.195,2.103,-2.886,-0.251,-2.929
2935.0,-13.909,5.0,2.151,-2.886,-0.24,-2.687
2939.0,-13.909,5.0,2.151,-3.272,-0.24,-2.687
2943.0,-13.909,5.0,2.151,-3.272,-0.24,-2.687
2947.0,-13.155,7.966,1.119,-3.692,-0.203,-2.438
2952.0,-13.155,7.966,1.119,-3.692,-0.203,-2.438
2956.0,-12.799,14.965,-1.816,-4.434,-0.082,-2.036
2960.0,-12.799,14.965,-1.816,-4.434,-0.082,-2.036
2964.0,-12.799,14.965,-2.702,-4.434,-0.082,-2.036
2968.0,-13.159,17.192,-2.702,-4.99,0.099,-1.533
2973.0,-13.159,17.192,-2.702,-4.99,0.099,-1.533
2977.0,-12.306,10.291,-1.427,-5.013,0.159,-1.392
2981.0,-12.306,10.291,-1.427,-5.013,0.159,-1.392
2985.0,-9.625,3.63,0.282,-5.013,0.091,-1.514
2989.0,-9.625,3.63,0.282,-5.013,0.091,-1.514
2993.0,-9.625,3.63,0.282,-5.013,0.091,-1.514
2997.0,-9.458,0.289,0.807,-5.013,0.046,-1.567
