deltaTime,Acc_X,Acc_Y,Acc_Z,Gyro_X,Gyro_Y,Gyro_Z
0.0,-10.613,-2.017,1.154,0.584,-0.173,-0.402
3.0,-10.613,-2.017,1.154,0.584,-0.173,-0.402
6.0,-10.613,-2.017,0.731,0.584,-0.173,-0.402
9.0,-10.242,-1.93,0.731,0.553,-0.204,-0.354
12.0,-10.242,-1.93,0.731,0.553,-0.204,-0.354
15.0,-10.242,-1.93,0.731,0.553,-0.204,-0.354
18.0,-9.821,-1.926,0.428,0.493,-0.198,-0.307
21.0,-9.821,-1.926,0.428,0.493,-0.198,-0.307
24.0,-9.821,-1.926,0.428,0.493,-0.198,-0.307
27.0,-9.527,-1.954,0.358,0.416,-0.156,-0.269
30.0,-9.527,-1.954,0.358,0.416,-0.156,-0.269
33.0,-9.527,-1.954,0.358,0.416,-0.156,-0.269
37.0,-9.396,-2.048,0.618,0.333,-0.089,-0.245
41.0,-9.396,-2.048,0.618,0.333,-0.089,-0.245
45.0,-9.396,-2.048,0.618,0.333,-0.089,-0.245
49.0,-9.434,-2.136,1.182,0.262,-0.019,-0.237
52.0,-9.434,-2.136,1.182,0.262,-0.019,-0.237
56.0,-9.726,-2.213,1.644,0.215,0.019,-0.237
60.0,-9.726,-2.213,1.644,0.215,0.019,-0.237
64.0,-9.726,-2.213,1.644,0.215,0.019,-0.237
67.0,-10.056,-2.296,2.004,0.185,0.011,-0.231
71.0,-10.056,-2.296,2.004,0.185,0.011,-0.231
75.0,-10.392,-2.463,2.029,0.185,0.011,-0.231
79.0,-10.392,-2.463,2.029,0.167,-0.025,-0.211
83.0,-10.392,-2.463,2.029,0.167,-0.025,-0.211
87.0,-10.487,-2.741,1.879,0.166,-0.059,-0.173
91.0,-10.487,-2.741,1.879,0.166,-0.059,-0.173
95.0,-10.487,-2.861,1.674,0.166,-0.059,-0.173
98.0,-10.475,-2.861,1.674,0.189,-0.076,-0.123
102.0,-10.475,-2.861,1.674,0.189,-0.076,-0.123
106.0,-10.347,-2.937,1.568,0.21,-0.078,-0.071
110.0,-10.347,-2.937,1.568,0.21,-0.078,-0.071
114.0,-10.347,-2.869,1.45,0.21,-0.078,-0.071
118.0,-9.872,-2.869,1.45,0.226,-0.083,-0.037
122.0,-9.872,-2.869,1.45,0.226,-0.083,-0.037
126.0,-9.513,-2.6,1.356,0.224,-0.095,-0.032
130.0,-9.513,-2.6,1.356,0.224,-0.095,-0.032
134.0,-9.513,-2.6,1.098,0.224,-0.095,-0.032
138.0,-9.38,-2.23,1.098,0.179,-0.112,-0.047
142.0,-9.38,-2.23,1.098,0.179,-0.112,-0.047
146.0,-9.371,-1.945,0.861,0.081,-0.114,-0.065
150.0,-9.371,-1.945,0.861,0.081,-0.114,-0.065
153.0,-9.371,-1.945,0.861,0.081,-0.114,-0.065
157.0,-9.27,-1.966,0.983,-0.038,-0.089,-0.075
161.0,-9.27,-1.966,0.983,-0.038,-0.089,-0.075
165.0,-9.051,-2.111,1.216,-0.129,-0.058,-0.085
169.0,-9.051,-2.111,1.216,-0.129,-0.058,-0.085
173.0,-9.051,-2.111,1.787,-0.129,-0.058,-0.085
177.0,-8.868,-2.304,1.787,-0.182,-0.011,-0.097
181.0,-8.868,-2.304,1.787,-0.182,-0.011,-0.097
185.0,-8.853,-2.505,2.606,-0.199,0.036,-0.106
189.0,-8.853,-2.505,2.606,-0.199,0.036,-0.106
193.0,-8.853,-2.505,3.384,-0.199,0.036,-0.106
197.0,-9.087,-2.819,3.384,-0.19,0.063,-0.114
201.0,-9.087,-2.819,3.384,-0.19,0.063,-0.114
205.0,-9.555,-3.087,3.884,-0.142,0.058,-0.116
209.0,-9.555,-3.087,3.884,-0.142,0.058,-0.116
213.0,-9.555,-3.087,3.884,-0.142,0.058,-0.116
217.0,-10.263,-3.205,3.982,-0.063,0.032,-0.116
221.0,-10.263,-3.205,3.982,-0.063,0.032,-0.116
225.0,-10.703,-3.303,3.959,0.024,0.013,-0.108
228.0,-10.703,-3.303,3.959,0.024,0.013,-0.108
232.0,-10.703,-3.303,3.959,0.024,0.013,-0.108
236.0,-10.716,-3.227,3.757,0.115,-0.0,-0.104
240.0,-10.716,-3.227,3.757,0.115,-0.0,-0.104
244.0,-10.449,-3.461,3.872,0.189,-0.013,-0.126
248.0,-10.449,-3.461,3.872,0.189,-0.013,-0.126
252.0,-10.449,-3.461,3.923,0.189,-0.013,-0.126
256.0,-10.391,-3.785,3.923,0.314,-0.033,-0.152
260.0,-10.391,-3.785,3.923,0.314,-0.033,-0.152
264.0,-9.996,-3.958,3.966,0.527,-0.056,-0.166
268.0,-9.996,-3.958,3.966,0.527,-0.056,-0.166
272.0,-9.996,-3.958,4.018,0.527,-0.056,-0.166
276.0,-9.494,-3.676,4.018,0.793,-0.046,-0.195
280.0,-9.494,-3.676,4.018,0.793,-0.046,-0.195
284.0,-9.082,-2.518,4.099,0.986,0.009,-0.281
288.0,-9.082,-2.518,4.099,0.986,0.009,-0.281
291.0,-9.082,-2.518,4.099,0.986,0.009,-0.281
295.0,-9.447,-2.115,4.059,0.968,0.076,-0.436
299.0,-9.447,-2.115,4.059,0.968,0.076,-0.436
303.0,-10.387,-2.091,3.938,0.881,0.001,-0.56
307.0,-10.387,-2.091,3.938,0.881,0.001,-0.56
311.0,-10.387,-2.091,3.938,0.881,0.001,-0.56
315.0,-11.308,-2.492,4.055,0.826,-0.249,-0.631
319.0,-11.308,-2.492,4.055,0.826,-0.249,-0.631
323.0,-11.921,-2.852,4.315,0.887,-0.655,-0.658
327.0,-11.921,-2.852,4.315,0.887,-0.655,-0.658
331.0,-11.921,-2.852,4.315,0.887,-0.655,-0.658
335.0,-11.831,-2.517,4.903,0.985,-1.092,-0.638
339.0,-11.831,-2.517,4.903,0.985,-1.092,-0.638
343.0,-11.518,-2.291,5.216,1.011,-1.402,-0.64
347.0,-11.518,-2.291,5.216,1.011,-1.402,-0.64
351.0,-11.518,-2.291,5.216,1.011,-1.402,-0.64
355.0,-11.21,-2.072,5.398,0.944,-1.602,-0.667
359.0,-11.21,-2.072,5.398,0.944,-1.602,-0.667
363.0,-10.709,-2.011,6.154,0.786,-1.767,-0.715
367.0,-10.709,-2.011,6.154,0.786,-1.767,-0.715
370.0,-10.709,-2.011,6.154,0.786,-1.767,-0.715
374.0,-9.874,-2.277,7.443,0.6,-1.976,-0.813
378.0,-9.874,-2.277,7.443,0.6,-1.976,-0.813
382.0,-9.397,-2.627,8.487,0.461,-2.239,-1.006
386.0,-9.397,-2.627,8.487,0.461,-2.239,-1.006
390.0,-9.397,-2.627,8.487,0.461,-2.239,-1.006
394.0,-9.977,-2.763,8.908,0.406,-2.511,-1.267
398.0,-9.977,-2.763,8.908,0.406,-2.511,-1.267
402.0,-11.744,-2.806,8.66,0.397,-2.73,-1.502
406.0,-11.744,-2.806,8.66,0.397,-2.73,-1.502
410.0,-11.744,-2.806,8.66,0.397,-2.73,-1.502
414.0,-13.475,-3.187,8.317,0.376,-2.849,-1.605
418.0,-13.475,-3.187,8.317,0.376,-2.849,-1.605
422.0,-14.091,-4.092,8.776,0.311,-2.914,-1.562
426.0,-14.091,-4.092,8.776,0.311,-2.914,-1.562
430.0,-14.091,-4.092,8.776,0.311,-2.914,-1.562
434.0,-14.377,-5.524,9.679,0.217,-3.026,-1.475
438.0,-14.377,-5.524,9.679,0.217,-3.026,-1.475
442.0,-14.619,-6.982,10.772,0.15,-3.178,-1.467
446.0,-14.619,-6.982,10.772,0.15,-3.178,-1.467
450.0,-14.619,-8.119,11.872,0.15,-3.178,-1.467
454.0,-14.218,-8.119,11.872,0.167,-3.341,-1.594
458.0,-14.218,-8.119,11.872,0.167,-3.341,-1.594
462.0,-14.136,-9.023,12.38,0.297,-3.526,-1.83
466.0,-14.136,-9.023,12.38,0.297,-3.526,-1.83
470.0,-14.517,-9.722,12.048,0.297,-3.74,-2.103
474.0,-14.517,-9.722,12.048,0.552,-3.74,-2.103
478.0,-14.517,-9.722,12.048,0.552,-3.74,-2.103
483.0,-14.894,-10.607,10.938,0.92,-3.983,-2.32
487.0,-14.894,-10.607,10.938,0.92,-3.983,-2.32
491.0,-15.017,-11.699,9.936,1.376,-4.233,-2.429
495.0,-15.017,-11.699,9.936,1.376,-4.233,-2.429
499.0,-15.017,-11.699,9.127,1.376,-4.233,-2.429
503.0,-14.93,-12.654,9.127,1.903,-4.484,-2.448
507.0,-14.93,-12.654,9.127,1.903,-4.484,-2.448
511.0,-14.536,-13.43,8.642,2.444,-4.716,-2.444
515.0,-14.536,-13.43,8.642,2.444,-4.716,-2.444
519.0,-13.892,-13.594,8.76,2.444,-4.716,-2.489
524.0,-13.892,-13.594,8.76,2.917,-4.904,-2.489
528.0,-13.892,-13.594,8.76,2.917,-4.904,-2.489
532.0,-13.081,-13.385,8.908,3.302,-4.989,-2.604
536.0,-13.081,-13.385,8.908,3.302,-4.989,-2.604
540.0,-12.382,-12.872,8.801,3.616,-4.992,-2.767
544.0,-12.382,-12.872,8.801,3.616,-4.992,-2.767
548.0,-12.382,-12.872,8.801,3.616,-4.992,-2.767
552.0,-11.676,-12.069,8.39,3.861,-4.992,-2.949
556.0,-11.676,-12.069,8.39,3.861,-4.992,-2.949
560.0,-10.773,-11.004,7.78,4.036,-4.992,-3.106
564.0,-10.773,-11.004,7.78,4.036,-4.992,-3.106
568.0,-10.773,-10.198,7.146,4.036,-4.992,-3.106
572.0,-10.017,-10.198,7.146,4.142,-4.992,-3.213
577.0,-10.017,-10.198,7.146,4.142,-4.992,-3.213
581.0,-9.25,-9.417,6.117,4.201,-4.992,-3.269
585.0,-9.25,-9.417,6.117,4.201,-4.992,-3.269
588.0,-8.373,-9.011,5.292,4.201,-4.992,-3.269
592.0,-8.373,-9.011,5.292,4.222,-4.992,-3.272
596.0,-8.373,-9.011,5.292,4.222,-4.992,-3.272
600.0,-7.358,-8.691,4.294,4.224,-4.992,-3.246
604.0,-7.358,-8.691,4.294,4.224,-4.992,-3.246
608.0,-6.332,-8.582,3.893,4.224,-4.992,-3.246
612.0,-6.332,-8.582,3.893,4.236,-4.992,-3.212
616.0,-6.332,-8.582,3.893,4.236,-4.992,-3.212
620.0,-5.601,-8.397,3.51,4.28,-4.942,-3.19
624.0,-5.601,-8.397,3.51,4.28,-4.942,-3.19
628.0,-5.601,-8.397,3.567,4.28,-4.942,-3.19
631.0,-5.088,-8.246,3.567,4.382,-4.743,-3.184
635.0,-5.088,-8.246,3.567,4.382,-4.743,-3.184
639.0,-4.874,-8.017,3.573,4.555,-4.535,-3.207
643.0,-4.874,-8.017,3.573,4.555,-4.535,-3.207
647.0,-4.874,-8.017,3.573,4.555,-4.535,-3.207
651.0,-4.644,-7.408,3.084,4.783,-4.341,-3.233
655.0,-4.644,-7.408,3.084,4.783,-4.341,-3.233
659.0,-4.301,-6.654,2.513,4.968,-4.15,-3.223
663.0,-4.301,-6.654,2.513,4.968,-4.15,-3.223
667.0,-4.301,-6.654,2.513,4.968,-4.15,-3.223
670.0,-3.974,-5.59,1.758,4.995,-3.98,-3.167
674.0,-3.974,-5.59,1.758,4.995,-3.98,-3.167
678.0,-3.371,-4.35,1.019,4.995,-3.822,-3.082
682.0,-3.371,-4.35,1.019,4.995,-3.822,-3.082
686.0,-3.371,-4.35,1.019,4.995,-3.822,-3.082
690.0,-2.712,-3.033,0.622,4.995,-3.658,-3.001
694.0,-2.712,-3.033,0.622,4.995,-3.658,-3.001
698.0,-2.187,-1.803,0.382,4.995,-3.502,-2.943
702.0,-2.187,-1.803,0.382,4.995,-3.502,-2.943
706.0,-2.187,-1.803,0.382,4.995,-3.502,-2.943
710.0,-1.821,-0.605,0.31,4.915,-3.354,-2.907
713.0,-1.821,-0.605,0.31,4.915,-3.354,-2.907
717.0,-1.484,0.577,0.275,4.579,-3.214,-2.871
721.0,-1.484,0.577,0.275,4.579,-3.214,-2.871
725.0,-1.484,0.577,0.275,4.579,-3.214,-2.871
729.0,-1.074,1.63,0.23,4.131,-3.07,-2.822
733.0,-1.074,1.63,0.23,4.131,-3.07,-2.822
736.0,-0.533,2.549,0.291,4.131,-3.07,-2.822
740.0,-0.533,2.549,0.291,3.626,-2.912,-2.751
744.0,-0.533,2.549,0.291,3.626,-2.912,-2.751
748.0,0.019,3.301,0.45,3.096,-2.747,-2.656
752.0,0.019,3.301,0.45,3.096,-2.747,-2.656
755.0,0.019,3.301,0.45,3.096,-2.747,-2.656
759.0,0.605,3.802,0.595,2.586,-2.569,-2.544
763.0,0.605,3.802,0.595,2.586,-2.569,-2.544
767.0,1.196,4.184,0.725,2.125,-2.38,-2.424
770.0,1.196,4.184,0.725,2.125,-2.38,-2.424
774.0,1.196,4.184,0.725,2.125,-2.38,-2.424
778.0,1.694,4.507,0.897,1.722,-2.178,-2.303
782.0,1.694,4.507,0.897,1.722,-2.178,-2.303
785.0,1.694,4.507,0.897,1.722,-2.178,-2.303
789.0,2.071,4.93,1.129,1.381,-1.96,-2.173
793.0,2.071,4.93,1.129,1.381,-1.96,-2.173
796.0,2.119,5.492,1.388,1.105,-1.739,-2.014
800.0,2.119,5.492,1.388,1.105,-1.739,-2.014
804.0,2.119,5.492,1.388,1.105,-1.739,-2.014
808.0,2.04,6.339,1.671,0.891,-1.536,-1.807
811.0,2.04,6.339,1.671,0.891,-1.536,-1.807
815.0,2.04,6.339,1.843,0.891,-1.536,-1.807
819.0,2.085,7.22,1.843,0.731,-1.353,-1.551
823.0,2.085,7.22,1.843,0.731,-1.353,-1.551
826.0,2.385,7.881,1.962,0.617,-1.182,-1.266
830.0,2.385,7.881,1.962,0.617,-1.182,-1.266
834.0,2.385,7.881,1.962,0.617,-1.182,-1.266
838.0,2.788,8.364,2.086,0.534,-1.019,-0.976
841.0,2.788,8.364,2.086,0.534,-1.019,-0.976
845.0,3.094,8.753,2.327,0.534,-1.019,-0.976
849.0,3.094,8.753,2.327,0.457,-0.853,-0.677
852.0,3.094,8.753,2.327,0.457,-0.853,-0.677
856.0,3.296,9.081,2.84,0.375,-0.681,-0.394
860.0,3.296,9.081,2.84,0.375,-0.681,-0.394
864.0,3.296,9.081,2.84,0.375,-0.681,-0.394
867.0,3.333,9.53,3.596,0.306,-0.521,-0.168
871.0,3.333,9.53,3.596,0.306,-0.521,-0.168
875.0,3.229,10.072,4.239,0.306,-0.521,0.033
879.0,3.229,10.072,4.239,0.257,-0.388,0.033
882.0,3.229,10.072,4.239,0.257,-0.388,0.033
886.0,3.147,10.801,4.793,0.222,-0.266,0.267
890.0,3.147,10.801,4.793,0.222,-0.266,0.267
893.0,3.147,10.801,4.793,0.222,-0.266,0.267
897.0,2.748,11.544,5.26,0.225,-0.155,0.548
901.0,2.748,11.544,5.26,0.225,-0.155,0.548
905.0,2.218,11.962,5.38,0.225,-0.087,0.87
908.0,2.218,11.962,5.38,0.272,-0.087,0.87
912.0,2.218,11.962,5.38,0.272,-0.087,0.87
916.0,2.082,12.016,5.381,0.343,-0.053,1.201
920.0,2.082,12.016,5.381,0.343,-0.053,1.201
923.0,2.082,12.016,5.381,0.343,-0.053,1.201
927.0,2.433,12.12,5.322,0.431,-0.028,1.513
931.0,2.433,12.12,5.322,0.431,-0.028,1.513
935.0,2.997,12.405,5.338,0.51,0.02,1.801
938.0,2.997,12.405,5.338,0.51,0.02,1.801
942.0,2.997,12.405,5.338,0.51,0.02,1.801
945.0,3.421,12.781,5.486,0.58,0.101,2.073
949.0,3.421,12.781,5.486,0.58,0.101,2.073
953.0,3.421,12.781,5.486,0.58,0.101,2.073
956.0,3.597,13.236,5.648,0.638,0.202,2.352
960.0,3.597,13.236,5.648,0.638,0.202,2.352
964.0,3.665,13.622,5.88,0.638,0.202,2.67
967.0,3.665,13.622,5.88,0.669,0.318,2.67
971.0,3.665,13.622,5.88,0.669,0.318,2.67
975.0,3.604,13.766,6.162,0.651,0.448,3.033
978.0,3.604,13.766,6.162,0.651,0.448,3.033
982.0,3.604,13.766,6.162,0.651,0.448,3.033
986.0,3.412,13.732,6.498,0.572,0.566,3.402
989.0,3.412,13.732,6.498,0.572,0.566,3.402
993.0,3.412,13.621,6.77,0.572,0.566,3.402
997.0,3.222,13.621,6.77,0.421,0.641,3.738
1000.0,3.222,13.621,6.77,0.421,0.641,3.738
1004.0,3.048,13.524,6.912,0.195,0.661,4.036
1008.0,3.048,13.524,6.912,0.195,0.661,4.036
1011.0,3.048,13.524,6.912,0.195,0.661,4.036
1015.0,2.809,13.341,6.92,-0.1,0.64,4.343
1019.0,2.809,13.341,6.92,-0.1,0.64,4.343
1023.0,2.32,12.684,6.62,-0.1,0.64,4.343
1027.0,2.32,12.684,6.62,-0.446,0.594,4.69
1030.0,2.32,12.684,6.62,-0.446,0.594,4.69
1034.0,1.613,11.63,6.083,-0.826,0.545,4.973
1038.0,1.613,11.63,6.083,-0.826,0.545,4.973
1042.0,1.613,11.63,6.083,-0.826,0.545,4.973
1046.0,0.563,10.421,5.568,-1.217,0.504,5.013
1049.0,0.563,10.421,5.568,-1.217,0.504,5.013
1053.0,-0.795,8.989,4.988,-1.604,0.452,5.013
1057.0,-0.795,8.989,4.988,-1.604,0.452,5.013
1061.0,-0.795,8.989,4.988,-1.604,0.452,5.013
1065.0,-2.238,7.325,4.367,-1.969,0.386,5.013
1069.0,-2.238,7.325,4.367,-1.969,0.386,5.013
1072.0,-3.333,5.472,3.802,-1.969,0.319,5.013
1076.0,-3.333,5.472,3.802,-2.307,0.319,5.013
1080.0,-3.333,5.472,3.802,-2.307,0.319,5.013
1084.0,-3.706,3.507,3.382,-2.631,0.251,5.013
1088.0,-3.706,3.507,3.382,-2.631,0.251,5.013
1091.0,-3.706,3.507,3.248,-2.631,0.251,5.013
1095.0,-3.48,1.617,3.248,-2.952,0.171,5.013
1099.0,-3.48,1.617,3.248,-2.952,0.171,5.013
1103.0,-3.028,-0.202,2.969,-3.29,0.088,5.013
1107.0,-3.028,-0.202,2.969,-3.29,0.088,5.013
1111.0,-3.028,-0.202,2.969,-3.29,0.088,5.013
1115.0,-2.321,-2.13,2.801,-3.651,0.043,5.013
1119.0,-2.321,-2.13,2.801,-3.651,0.043,5.013
1122.0,-1.533,-4.244,3.23,-4.003,0.061,5.013
1126.0,-1.533,-4.244,3.23,-4.003,0.061,5.013
1130.0,-1.533,-4.244,3.23,-4.003,0.061,5.013
1134.0,-1.023,-6.181,3.916,-4.298,0.112,5.013
1138.0,-1.023,-6.181,3.916,-4.298,0.112,5.013
1142.0,-1.14,-7.601,4.056,-4.512,0.181,4.996
1146.0,-1.14,-7.601,4.056,-4.512,0.181,4.996
1150.0,-1.14,-7.601,4.056,-4.512,0.181,4.996
1154.0,-1.634,-8.508,3.558,-4.666,0.273,4.671
1158.0,-1.634,-8.508,3.558,-4.666,0.273,4.671
1162.0,-2.164,-8.958,2.52,-4.797,0.426,4.109
1165.0,-2.164,-8.958,2.52,-4.797,0.426,4.109
1169.0,-2.164,-8.958,2.52,-4.797,0.426,4.109
1173.0,-3.119,-9.52,1.625,-4.924,0.645,3.609
1177.0,-3.119,-9.52,1.625,-4.924,0.645,3.609
1181.0,-4.196,-10.437,1.25,-4.924,0.803,3.16
1185.0,-4.196,-10.437,1.25,-5.004,0.803,3.16
1189.0,-4.196,-10.437,1.25,-5.004,0.803,3.16
1193.0,-4.515,-11.18,1.125,-5.013,0.803,2.768
1197.0,-4.515,-11.18,1.125,-5.013,0.803,2.768
1201.0,-3.3,-12.119,1.389,-5.013,0.662,2.449
1205.0,-3.3,-12.119,1.389,-5.013,0.662,2.449
1209.0,-3.3,-12.119,1.389,-5.013,0.662,2.449
1213.0,-1.129,-13.687,2.062,-5.013,0.452,2.18
1217.0,-1.129,-13.687,2.062,-5.013,0.452,2.18
1221.0,1.076,-15.302,2.505,-4.95,0.247,1.929
1225.0,1.076,-15.302,2.505,-4.95,0.247,1.929
1229.0,1.076,-15.302,2.505,-4.95,0.247,1.929
1233.0,2.636,-16.202,3.295,-4.54,0.084,1.721
1237.0,2.636,-16.202,3.295,-4.54,0.084,1.721
1241.0,3.889,-16.816,4.115,-3.833,-0.085,1.588
1245.0,3.889,-16.816,4.115,-3.833,-0.085,1.588
1249.0,3.889,-16.816,4.115,-3.833,-0.085,1.588
1253.0,4.494,-16.86,4.476,-2.901,-0.24,1.535
1257.0,4.494,-16.86,4.476,-2.901,-0.24,1.535
1261.0,4.677,-16.539,4.555,-1.826,-0.344,1.56
1264.0,4.677,-16.539,4.555,-1.826,-0.344,1.56
1268.0,4.677,-16.539,4.555,-1.826,-0.344,1.56
1272.0,4.699,-16.132,4.633,-0.702,-0.402,1.647
1276.0,4.699,-16.132,4.633,-0.702,-0.402,1.647
1280.0,4.792,-15.784,4.555,0.389,-0.442,1.729
1284.0,4.792,-15.784,4.555,0.389,-0.442,1.729
1288.0,4.792,-15.784,4.555,0.389,-0.442,1.729
1292.0,4.903,-15.175,4.453,1.376,-0.457,1.749
1296.0,4.903,-15.175,4.453,1.376,-0.457,1.749
1300.0,4.972,-14.294,4.131,2.177,-0.443,1.703
1304.0,4.972,-14.294,4.131,2.177,-0.443,1.703
1308.0,4.972,-14.294,4.131,2.177,-0.443,1.703
1312.0,4.982,-13.255,3.771,2.727,-0.376,1.611
1316.0,4.982,-13.255,3.771,2.727,-0.376,1.611
1320.0,4.898,-12.138,3.523,3.029,-0.249,1.493
1323.0,4.898,-12.138,3.523,3.029,-0.249,1.493
1327.0,4.898,-12.138,3.523,3.029,-0.249,1.493
1331.0,4.744,-11.25,3.609,3.111,-0.096,1.362
1335.0,4.744,-11.25,3.609,3.111,-0.096,1.362
1339.0,4.609,-10.566,3.942,3.015,0.036,1.217
1343.0,4.609,-10.566,3.942,3.015,0.036,1.217
1347.0,4.609,-10.566,3.942,3.015,0.036,1.217
1351.0,4.421,-10.135,4.302,2.79,0.13,1.066
1354.0,4.421,-10.135,4.302,2.79,0.13,1.066
1358.0,4.421,-9.898,4.674,2.79,0.13,1.066
1362.0,3.998,-9.898,4.674,2.48,0.183,0.92
1366.0,3.998,-9.898,4.674,2.48,0.183,0.92
1369.0,3.304,-9.663,4.853,2.122,0.195,0.792
1373.0,3.304,-9.663,4.853,2.122,0.195,0.792
1377.0,3.304,-9.663,4.853,2.122,0.195,0.792
1381.0,2.583,-9.467,4.709,1.752,0.183,0.694
1384.0,2.583,-9.467,4.709,1.752,0.183,0.694
1388.0,2.22,-9.306,4.761,1.752,0.183,0.694
1392.0,2.22,-9.306,4.761,1.401,0.15,0.624
1395.0,2.22,-9.306,4.761,1.401,0.15,0.624
1399.0,2.206,-9.115,4.972,1.095,0.07,0.574
1403.0,2.206,-9.115,4.972,1.095,0.07,0.574
1407.0,2.206,-9.115,4.972,1.095,0.07,0.574
1410.0,2.389,-8.78,4.848,0.841,-0.039,0.532
1414.0,2.389,-8.78,4.848,0.841,-0.039,0.532
1418.0,2.737,-8.423,4.655,0.627,-0.128,0.492
1422.0,2.737,-8.423,4.655,0.627,-0.128,0.492
1426.0,2.737,-8.423,4.655,0.627,-0.128,0.492
1430.0,3.176,-7.953,4.628,0.441,-0.209,0.445
1433.0,3.176,-7.953,4.628,0.441,-0.209,0.445
1437.0,3.176,-7.372,4.662,0.441,-0.209,0.445
1441.0,3.47,-7.372,4.662,0.275,-0.29,0.382
1445.0,3.47,-7.372,4.662,0.275,-0.29,0.382
1449.0,3.538,-6.715,4.568,0.128,-0.338,0.307
1452.0,3.538,-6.715,4.568,0.128,-0.338,0.307
1456.0,3.538,-6.715,4.568,0.128,-0.338,0.307
1460.0,3.452,-6.114,4.339,-0.004,-0.33,0.237
1464.0,3.452,-6.114,4.339,-0.004,-0.33,0.237
1468.0,3.324,-5.681,4.328,-0.111,-0.273,0.19
1472.0,3.324,-5.681,4.328,-0.111,-0.273,0.19
1476.0,3.324,-5.681,4.328,-0.111,-0.273,0.19
1480.0,3.209,-5.366,4.301,-0.164,-0.198,0.168
1484.0,3.209,-5.366,4.301,-0.164,-0.198,0.168
1487.0,3.142,-5.184,4.309,-0.153,-0.113,0.173
1491.0,3.142,-5.184,4.309,-0.153,-0.113,0.173
1495.0,3.142,-5.184,4.309,-0.153,-0.113,0.173
1499.0,3.139,-5.052,4.42,-0.082,-0.028,0.202
1503.0,3.139,-5.052,4.42,-0.082,-0.028,0.202
1507.0,3.087,-4.95,4.531,0.04,0.05,0.258
1511.0,3.087,-4.95,4.531,0.04,0.05,0.258
1514.0,3.087,-4.95,4.531,0.04,0.05,0.258
1518.0,2.957,-4.827,4.382,0.195,0.126,0.346
1522.0,2.957,-4.827,4.382,0.195,0.126,0.346
1526.0,2.957,-4.827,4.382,0.195,0.126,0.346
1529.0,2.803,-4.656,4.089,0.358,0.224,0.474
1533.0,2.803,-4.656,4.089,0.358,0.224,0.474
1537.0,2.779,-4.531,4.122,0.513,0.35,0.641
1541.0,2.779,-4.531,4.122,0.513,0.35,0.641
1544.0,2.779,-4.531,4.122,0.513,0.35,0.641
1548.0,2.818,-4.454,4.359,0.662,0.474,0.847
1552.0,2.818,-4.454,4.359,0.662,0.474,0.847
1555.0,2.818,-4.454,4.716,0.662,0.474,0.847
1559.0,2.667,-4.325,4.716,0.808,0.589,1.09
1563.0,2.667,-4.325,4.716,0.808,0.589,1.09
1567.0,2.297,-4.147,4.791,0.936,0.702,1.366
1570.0,2.297,-4.147,4.791,0.936,0.702,1.366
1574.0,2.297,-4.147,4.791,0.936,0.702,1.366
1578.0,1.793,-3.983,4.639,1.027,0.822,1.65
1582.0,1.793,-3.983,4.639,1.027,0.822,1.65
1585.0,1.435,-3.829,4.63,1.027,0.822,1.65
1589.0,1.435,-3.829,4.63,1.077,0.95,1.92
1593.0,1.435,-3.829,4.63,1.077,0.95,1.92
1597.0,1.309,-3.838,4.883,1.097,1.072,2.161
1600.0,1.309,-3.838,4.883,1.097,1.072,2.161
1604.0,1.309,-3.838,4.883,1.097,1.072,2.161
1608.0,1.163,-3.76,5.12,1.088,1.187,2.372
1611.0,1.163,-3.76,5.12,1.088,1.187,2.372
1615.0,0.776,-3.619,5.18,1.088,1.187,2.573
1619.0,0.776,-3.619,5.18,1.05,1.324,2.573
1623.0,0.776,-3.619,5.18,1.05,1.324,2.573
1626.0,0.117,-3.369,5.135,0.985,1.493,2.776
1630.0,0.117,-3.369,5.135,0.985,1.493,2.776
1634.0,0.117,-3.369,5.135,0.985,1.493,2.776
1638.0,-0.668,-3.102,5.088,0.895,1.681,2.987
1641.0,-0.668,-3.102,5.088,0.895,1.681,2.987
1645.0,-1.404,-2.88,5.03,0.781,1.871,3.197
1649.0,-1.404,-2.88,5.03,0.781,1.871,3.197
1653.0,-1.404,-2.88,5.03,0.781,1.871,3.197
1657.0,-2.033,-2.702,4.855,0.648,2.061,3.398
1660.0,-2.033,-2.702,4.855,0.648,2.061,3.398
1664.0,-2.499,-2.663,4.583,0.648,2.061,3.398
1668.0,-2.499,-2.663,4.583,0.498,2.262,3.577
1672.0,-2.499,-2.663,4.583,0.498,2.262,3.577
1676.0,-3.014,-2.615,4.868,0.346,2.474,3.729
1680.0,-3.014,-2.615,4.868,0.346,2.474,3.729
1683.0,-3.014,-2.615,4.868,0.346,2.474,3.729
1687.0,-3.766,-2.532,5.483,0.22,2.637,3.869
1691.0,-3.766,-2.532,5.483,0.22,2.637,3.869
1695.0,-4.596,-2.687,5.757,0.129,2.717,4.018
1699.0,-4.596,-2.687,5.757,0.129,2.717,4.018
1703.0,-4.596,-2.687,5.757,0.129,2.717,4.018
1706.0,-5.391,-3.014,5.459,0.075,2.743,4.168
1710.0,-5.391,-3.014,5.459,0.075,2.743,4.168
1714.0,-6.287,-3.533,4.768,0.075,2.743,4.3
1718.0,-6.287,-3.533,4.768,0.052,2.76,4.3
1722.0,-6.287,-3.533,4.768,0.052,2.76,4.3
1725.0,-7.406,-4.219,4.146,0.06,2.808,4.387
1729.0,-7.406,-4.219,4.146,0.06,2.808,4.387
1733.0,-7.406,-4.219,3.392,0.06,2.808,4.387
1737.0,-9.056,-5.067,3.392,0.122,2.887,4.408
1741.0,-9.056,-5.067,3.392,0.122,2.887,4.408
1745.0,-11.181,-5.943,3.424,0.266,2.976,4.365
1748.0,-11.181,-5.943,3.424,0.266,2.976,4.365
1752.0,-11.181,-5.943,3.424,0.266,2.976,4.365
1756.0,-13.209,-6.543,3.772,0.53,2.952,4.268
1760.0,-13.209,-6.543,3.772,0.53,2.952,4.268
1764.0,-14.737,-7.439,3.855,0.929,2.737,4.128
1768.0,-14.737,-7.439,3.855,0.929,2.737,4.128
1772.0,-14.737,-7.439,3.855,0.929,2.737,4.128
1776.0,-14.71,-8.237,3.619,1.492,2.398,3.882
1780.0,-14.71,-8.237,3.619,1.492,2.398,3.882
1784.0,-12.489,-8.224,2.944,2.203,2.061,3.508
1787.0,-12.489,-8.224,2.944,2.203,2.061,3.508
1791.0,-12.489,-8.224,2.944,2.203,2.061,3.508
1795.0,-9.327,-7.266,1.688,2.97,1.865,3.054
1799.0,-9.327,-7.266,1.688,2.97,1.865,3.054
1803.0,-6.675,-5.929,0.258,2.97,1.915,2.604
1807.0,-6.675,-5.929,0.258,3.711,1.915,2.604
1811.0,-6.675,-5.929,0.258,3.711,1.915,2.604
1814.0,-5.128,-4.867,-0.717,4.39,2.201,2.199
1818.0,-5.128,-4.867,-0.717,4.39,2.201,2.199
1822.0,-4.835,-4.003,-1.167,4.39,2.201,2.199
1826.0,-4.835,-4.003,-1.167,4.902,2.614,1.834
1830.0,-4.835,-4.003,-1.167,4.902,2.614,1.834
1834.0,-5.704,-3.433,-1.461,4.995,3.059,1.5
1838.0,-5.704,-3.433,-1.461,4.995,3.059,1.5
1842.0,-5.704,-3.13,-1.507,4.995,3.059,1.5
1846.0,-6.99,-3.13,-1.507,4.995,3.493,1.179
1850.0,-6.99,-3.13,-1.507,4.995,3.493,1.179
1853.0,-8.319,-2.928,-1.511,4.995,3.885,0.856
1857.0,-8.319,-2.928,-1.511,4.995,3.885,0.856
1861.0,-8.319,-2.928,-1.367,4.995,3.885,0.856
1865.0,-9.877,-2.634,-1.367,4.995,4.215,0.523
1869.0,-9.877,-2.634,-1.367,4.995,4.215,0.523
1873.0,-11.899,-2.276,-1.183,4.995,4.476,0.189
1877.0,-11.899,-2.276,-1.183,4.995,4.476,0.189
1881.0,-11.899,-2.276,-1.183,4.995,4.476,0.189
1885.0,-13.98,-1.922,-1.006,4.995,4.665,-0.127
1889.0,-13.98,-1.922,-1.006,4.995,4.665,-0.127
1893.0,-15.96,-1.624,-0.585,4.995,4.776,-0.419
1897.0,-15.96,-1.624,-0.585,4.995,4.776,-0.419
1901.0,-17.327,-1.205,0.031,4.995,4.776,-0.419
1905.0,-17.327,-1.205,0.031,4.995,4.789,-0.685
1909.0,-17.327,-1.205,0.031,4.995,4.789,-0.685
1913.0,-17.505,-0.69,0.462,4.995,4.705,-0.916
1917.0,-17.505,-0.69,0.462,4.995,4.705,-0.916
1921.0,-17.019,-0.079,0.788,4.995,4.705,-1.105
1925.0,-17.019,-0.079,0.788,4.995,4.595,-1.105
1929.0,-17.019,-0.079,0.788,4.995,4.595,-1.105
1933.0,-16.487,0.383,1.002,4.995,4.506,-1.259
1937.0,-16.487,0.383,1.002,4.995,4.506,-1.259
1941.0,-16.03,0.738,1.049,4.995,4.466,-1.417
1945.0,-16.03,0.738,1.049,4.995,4.466,-1.417
1949.0,-16.03,0.738,1.049,4.995,4.466,-1.417
1953.0,-15.655,1.152,1.201,4.995,4.491,-1.6
1957.0,-15.655,1.152,1.201,4.995,4.491,-1.6
1961.0,-15.439,1.685,1.391,4.995,4.491,-1.81
1964.0,-15.439,1.685,1.391,4.995,4.565,-1.81
1968.0,-15.439,1.685,1.391,4.995,4.565,-1.81
1972.0,-15.423,2.502,1.379,4.95,4.663,-2.023
1976.0,-15.423,2.502,1.379,4.95,4.663,-2.023
1980.0,-15.61,3.328,1.233,4.95,4.663,-2.023
1984.0,-15.61,3.328,1.233,4.521,4.759,-2.194
1988.0,-15.61,3.328,1.233,4.521,4.759,-2.194
1992.0,-16.21,3.936,1.006,3.874,4.809,-2.292
1996.0,-16.21,3.936,1.006,3.874,4.809,-2.292
2000.0,-16.21,3.936,0.265,3.874,4.809,-2.292
2004.0,-17.371,4.314,0.265,3.212,4.763,-2.308
2007.0,-17.371,4.314,0.265,3.212,4.763,-2.308
2011.0,-18.68,4.512,-0.336,2.559,4.468,-2.237
2015.0,-18.68,4.512,-0.336,2.559,4.468,-2.237
2019.0,-18.68,4.512,0.009,2.559,4.468,-2.237
2023.0,-18.741,4.615,0.009,1.917,4.004,-2.082
2027.0,-18.741,4.615,0.009,1.917,4.004,-2.082
2031.0,-17.709,4.479,0.492,1.317,3.59,-1.924
2035.0,-17.709,4.479,0.492,1.317,3.59,-1.924
2039.0,-17.709,4.479,0.492,1.317,3.59,-1.924
2043.0,-16.772,4.061,0.642,0.779,3.26,-1.806
2047.0,-16.772,4.061,0.642,0.779,3.26,-1.806
2051.0,-16.411,3.589,0.575,0.309,2.981,-1.729
2055.0,-16.411,3.589,0.575,0.309,2.981,-1.729
2058.0,-16.411,3.589,0.575,0.309,2.981,-1.729
2062.0,-16.318,3.188,0.328,-0.108,2.721,-1.668
2066.0,-16.318,3.188,0.328,-0.108,2.721,-1.668
2070.0,-16.158,2.819,0.172,-0.485,2.48,-1.601
2074.0,-16.158,2.819,0.172,-0.485,2.48,-1.601
2078.0,-16.158,2.819,0.172,-0.485,2.48,-1.601
2082.0,-15.941,2.475,0.325,-0.829,2.266,-1.523
2086.0,-15.941,2.475,0.325,-0.829,2.266,-1.523
2090.0,-15.902,2.131,0.558,-1.15,2.065,-1.439
2094.0,-15.902,2.131,0.558,-1.15,2.065,-1.439
2098.0,-15.902,2.131,0.811,-1.15,2.065,-1.439
2102.0,-15.861,1.855,0.811,-1.453,1.872,-1.356
2106.0,-15.861,1.855,0.811,-1.453,1.872,-1.356
2110.0,-15.567,1.65,1.044,-1.737,1.678,-1.274
2114.0,-15.567,1.65,1.044,-1.737,1.678,-1.274
2118.0,-15.567,1.445,1.207,-1.737,1.678,-1.274
2122.0,-14.927,1.445,1.207,-1.992,1.473,-1.196
2126.0,-14.927,1.445,1.207,-1.992,1.473,-1.196
2130.0,-14.243,1.234,1.284,-2.219,1.265,-1.131
2134.0,-14.243,1.234,1.284,-2.219,1.265,-1.131
2138.0,-13.561,1.058,1.226,-2.219,1.265,-1.131
2142.0,-13.561,1.058,1.226,-2.426,1.07,-1.079
2146.0,-13.561,1.058,1.226,-2.426,1.07,-1.079
2150.0,-12.903,0.909,1.132,-2.621,0.901,-1.025
2154.0,-12.903,0.909,1.132,-2.621,0.901,-1.025
2158.0,-12.379,0.708,1.015,-2.621,0.901,-0.966
2162.0,-12.379,0.708,1.015,-2.809,0.764,-0.966
2166.0,-12.379,0.708,1.015,-2.809,0.764,-0.966
2170.0,-11.986,0.455,0.841,-2.987,0.662,-0.902
2174.0,-11.986,0.455,0.841,-2.987,0.662,-0.902
2178.0,-11.693,0.167,0.717,-3.151,0.589,-0.834
2182.0,-11.693,0.167,0.717,-3.151,0.589,-0.834
2186.0,-11.693,0.167,0.717,-3.151,0.589,-0.834
2190.0,-11.528,-0.129,0.708,-3.296,0.528,-0.764
2194.0,-11.528,-0.129,0.708,-3.296,0.528,-0.764
2198.0,-11.298,-0.344,0.717,-3.407,0.454,-0.688
2202.0,-11.298,-0.344,0.717,-3.407,0.454,-0.688
2206.0,-11.298,-0.344,0.717,-3.407,0.454,-0.688
2210.0,-10.884,-0.474,0.648,-3.48,0.37,-0.602
2215.0,-10.884,-0.474,0.648,-3.48,0.37,-0.602
2219.0,-10.438,-0.667,0.595,-3.525,0.284,-0.513
2223.0,-10.438,-0.667,0.595,-3.525,0.284,-0.513
2227.0,-10.438,-0.909,0.547,-3.525,0.284,-0.513
2231.0,-9.974,-0.909,0.547,-3.532,0.212,-0.421
2235.0,-9.974,-0.909,0.547,-3.532,0.212,-0.421
2239.0,-9.61,-1.131,0.559,-3.494,0.151,-0.348
2243.0,-9.61,-1.131,0.559,-3.494,0.151,-0.348
2247.0,-9.448,-1.266,0.602,-3.494,0.151,-0.292
2251.0,-9.448,-1.266,0.602,-3.41,0.098,-0.292
2255.0,-9.448,-1.266,0.602,-3.41,0.098,-0.292
2259.0,-9.379,-1.365,0.653,-3.285,0.045,-0.24
2263.0,-9.379,-1.365,0.653,-3.285,0.045,-0.24
2267.0,-9.347,-1.469,0.811,-3.285,-0.022,-0.181
2271.0,-9.347,-1.469,0.811,-3.127,-0.022,-0.181
2275.0,-9.347,-1.469,0.811,-3.127,-0.022,-0.181
2279.0,-9.203,-1.426,0.876,-2.952,-0.121,-0.117
2283.0,-9.203,-1.426,0.876,-2.952,-0.121,-0.117
2287.0,-8.922,-1.404,0.644,-2.773,-0.234,-0.044
2291.0,-8.922,-1.404,0.644,-2.773,-0.234,-0.044
2295.0,-8.922,-1.404,0.644,-2.773,-0.234,-0.044
2299.0,-8.655,-1.58,0.359,-2.602,-0.328,0.019
2303.0,-8.655,-1.58,0.359,-2.602,-0.328,0.019
2307.0,-8.615,-1.74,0.051,-2.436,-0.402,0.055
2311.0,-8.615,-1.74,0.051,-2.436,-0.402,0.055
2315.0,-8.615,-1.74,-0.336,-2.436,-0.402,0.055
2320.0,-8.794,-1.829,-0.336,-2.276,-0.466,0.075
2324.0,-8.794,-1.829,-0.336,-2.276,-0.466,0.075
2328.0,-9.011,-1.871,-0.659,-2.118,-0.53,0.091
2332.0,-9.011,-1.871,-0.659,-2.118,-0.53,0.091
2336.0,-9.224,-1.862,-0.92,-2.118,-0.53,0.101
2340.0,-9.224,-1.862,-0.92,-1.962,-0.603,0.101
2344.0,-9.224,-1.862,-0.92,-1.962,-0.603,0.101
2348.0,-9.301,-1.795,-1.234,-1.806,-0.688,0.098
2352.0,-9.301,-1.795,-1.234,-1.806,-0.688,0.098
2356.0,-9.147,-1.725,-1.552,-1.657,-0.769,0.074
2360.0,-9.147,-1.725,-1.552,-1.657,-0.769,0.074
2364.0,-9.147,-1.725,-1.552,-1.657,-0.769,0.074
2368.0,-8.922,-1.542,-1.833,-1.511,-0.832,0.024
2373.0,-8.922,-1.542,-1.833,-1.511,-0.832,0.024
2377.0,-8.8,-1.386,-2.029,-1.363,-0.868,-0.04
2381.0,-8.8,-1.386,-2.029,-1.363,-0.868,-0.04
2385.0,-8.764,-1.28,-2.158,-1.363,-0.868,-0.04
2389.0,-8.764,-1.28,-2.158,-1.207,-0.875,-0.106
2393.0,-8.764,-1.28,-2.158,-1.207,-0.875,-0.106
2397.0,-8.728,-1.22,-2.262,-1.045,-0.859,-0.162
2402.0,-8.728,-1.22,-2.262,-1.045,-0.859,-0.162
2406.0,-8.761,-1.22,-2.343,-0.885,-0.829,-0.207
2410.0,-8.761,-1.22,-2.343,-0.885,-0.829,-0.207
2414.0,-8.761,-1.22,-2.389,-0.885,-0.829,-0.207
2418.0,-8.835,-1.211,-2.389,-0.728,-0.788,-0.25
2422.0,-8.835,-1.211,-2.389,-0.728,-0.788,-0.25
2427.0,-8.916,-1.186,-2.387,-0.574,-0.744,-0.293
2431.0,-8.916,-1.186,-2.387,-0.574,-0.744,-0.293
2435.0,-8.885,-1.05,-2.289,-0.424,-0.71,-0.336
2439.0,-8.885,-1.05,-2.289,-0.424,-0.71,-0.336
2443.0,-8.885,-1.05,-2.289,-0.424,-0.71,-0.336
2447.0,-8.73,-0.957,-2.273,-0.277,-0.695,-0.367
2452.0,-8.73,-0.957,-2.273,-0.277,-0.695,-0.367
2456.0,-8.618,-0.954,-2.329,-0.136,-0.694,-0.388
2460.0,-8.618,-0.954,-2.329,-0.136,-0.694,-0.388
2464.0,-8.776,-0.909,-2.555,-0.136,-0.694,-0.41
2468.0,-8.776,-0.909,-2.555,-0.014,-0.686,-0.41
2472.0,-8.776,-0.909,-2.555,-0.014,-0.686,-0.41
2477.0,-9.121,-0.83,-2.931,0.08,-0.661,-0.427
2481.0,-9.121,-0.83,-2.931,0.08,-0.661,-0.427
2485.0,-9.413,-0.736,-3.249,0.139,-0.616,-0.438
2489.0,-9.413,-0.736,-3.249,0.139,-0.616,-0.438
2493.0,-9.413,-0.736,-3.249,0.139,-0.616,-0.438
2497.0,-9.464,-0.604,-3.502,0.163,-0.561,-0.445
2501.0,-9.464,-0.604,-3.502,0.163,-0.561,-0.445
2505.0,-9.183,-0.543,-3.509,0.161,-0.495,-0.451
2509.0,-9.183,-0.543,-3.509,0.161,-0.495,-0.451
2513.0,-8.854,-0.495,-3.309,0.161,-0.495,-0.451
2517.0,-8.854,-0.495,-3.309,0.147,-0.429,-0.468
2522.0,-8.854,-0.495,-3.309,0.147,-0.429,-0.468
2526.0,-8.746,-0.442,-3.124,0.143,-0.38,-0.496
2530.0,-8.746,-0.442,-3.124,0.143,-0.38,-0.496
2534.0,-9.078,-0.41,-3.223,0.156,-0.35,-0.526
2538.0,-9.078,-0.41,-3.223,0.156,-0.35,-0.526
2542.0,-9.078,-0.41,-3.223,0.156,-0.35,-0.526
2546.0,-9.687,-0.318,-3.533,0.177,-0.323,-0.547
2550.0,-9.687,-0.318,-3.533,0.177,-0.323,-0.547
2554.0,-10.087,-0.22,-3.702,0.192,-0.289,-0.541
2558.0,-10.087,-0.22,-3.702,0.192,-0.289,-0.541
2562.0,-10.135,-0.195,-3.785,0.192,-0.289,-0.541
2567.0,-10.135,-0.195,-3.785,0.194,-0.255,-0.507
2571.0,-10.135,-0.195,-3.785,0.194,-0.255,-0.507
2575.0,-9.995,-0.234,-3.644,0.186,-0.22,-0.465
2579.0,-9.995,-0.234,-3.644,0.186,-0.22,-0.465
2583.0,-9.881,-0.349,-3.479,0.181,-0.191,-0.435
2587.0,-9.881,-0.349,-3.479,0.181,-0.191,-0.435
2591.0,-9.881,-0.349,-3.479,0.181,-0.191,-0.435
2595.0,-9.963,-0.455,-3.435,0.188,-0.168,-0.429
2599.0,-9.963,-0.455,-3.435,0.188,-0.168,-0.429
2604.0,-10.105,-0.485,-3.529,0.205,-0.146,-0.445
2608.0,-10.105,-0.485,-3.529,0.205,-0.146,-0.445
2612.0,-10.072,-0.427,-3.572,0.205,-0.146,-0.445
2616.0,-10.072,-0.427,-3.572,0.221,-0.116,-0.468
2620.0,-10.072,-0.427,-3.572,0.221,-0.116,-0.468
2624.0,-9.775,-0.38,-3.321,0.232,-0.075,-0.486
2628.0,-9.775,-0.38,-3.321,0.232,-0.075,-0.486
2633.0,-9.607,-0.415,-2.967,0.241,-0.035,-0.505
2637.0,-9.607,-0.415,-2.967,0.241,-0.035,-0.505
2641.0,-9.607,-0.415,-2.967,0.241,-0.035,-0.505
2645.0,-10.03,-0.473,-2.876,0.249,-0.01,-0.529
2649.0,-10.03,-0.473,-2.876,0.249,-0.01,-0.529
2653.0,-10.929,-0.534,-3.092,0.256,0.006,-0.547
2657.0,-10.929,-0.534,-3.092,0.256,0.006,-0.547
2661.0,-11.572,-0.61,-3.301,0.256,0.006,-0.547
2665.0,-11.572,-0.61,-3.301,0.253,0.01,-0.542
2669.0,-11.572,-0.61,-3.301,0.253,0.01,-0.542
2674.0,-11.65,-0.702,-3.437,0.233,0.009,-0.51
2678.0,-11.65,-0.702,-3.437,0.233,0.009,-0.51
2682.0,-11.221,-0.796,-3.24,0.2,0.024,-0.458
2686.0,-11.221,-0.796,-3.24,0.2,0.024,-0.458
2690.0,-11.221,-0.796,-3.24,0.2,0.024,-0.458
2694.0,-10.643,-0.934,-2.85,0.166,0.054,-0.401
2698.0,-10.643,-0.934,-2.85,0.166,0.054,-0.401
2702.0,-10.336,-1.092,-2.456,0.147,0.085,-0.359
2706.0,-10.336,-1.092,-2.456,0.147,0.085,-0.359
2710.0,-10.336,-1.092,-2.084,0.147,0.085,-0.359
2714.0,-10.225,-1.238,-2.084,0.155,0.109,-0.343
2718.0,-10.225,-1.238,-2.084,0.155,0.109,-0.343
2722.0,-10.129,-1.326,-1.729,0.196,0.112,-0.348
2727.0,-10.129,-1.326,-1.729,0.196,0.112,-0.348
2731.0,-9.948,-1.438,-1.496,0.196,0.112,-0.37
2735.0,-9.948,-1.438,-1.496,0.266,0.088,-0.37
2739.0,-9.948,-1.438,-1.496,0.266,0.088,-0.37
2743.0,-9.821,-1.516,-1.333,0.358,0.054,-0.407
2747.0,-9.821,-1.516,-1.333,0.358,0.054,-0.407
2751.0,-9.803,-1.586,-1.299,0.358,0.019,-0.451
2755.0,-9.803,-1.586,-1.299,0.464,0.019,-0.451
2759.0,-9.803,-1.586,-1.299,0.464,0.019,-0.451
2763.0,-9.776,-1.725,-1.219,0.58,-0.005,-0.494
2767.0,-9.776,-1.725,-1.219,0.58,-0.005,-0.494
2771.0,-9.782,-1.857,-0.87,0.708,-0.029,-0.541
2775.0,-9.782,-1.857,-0.87,0.708,-0.029,-0.541
2779.0,-9.782,-1.857,-0.87,0.708,-0.029,-0.541
2783.0,-9.8,-1.963,-0.508,0.849,-0.077,-0.587
2787.0,-9.8,-1.963,-0.508,0.849,-0.077,-0.587
2791.0,-9.99,-2.157,-0.185,1.005,-0.167,-0.63
2795.0,-9.99,-2.157,-0.185,1.005,-0.167,-0.63
2799.0,-9.99,-2.362,-0.042,1.005,-0.167,-0.63
2803.0,-10.179,-2.362,-0.042,1.17,-0.3,-0.67
2808.0,-10.179,-2.362,-0.042,1.17,-0.3,-0.67
2812.0,-10.212,-2.527,0.001,1.338,-0.47,-0.702
2816.0,-10.212,-2.527,0.001,1.338,-0.47,-0.702
2820.0,-9.994,-2.563,-0.096,1.5,-0.673,-0.73
2824.0,-9.994,-2.563,-0.096,1.5,-0.673,-0.73
2828.0,-9.994,-2.563,-0.096,1.5,-0.673,-0.73
2832.0,-9.734,-2.538,-0.388,1.644,-0.886,-0.754
2836.0,-9.734,-2.538,-0.388,1.644,-0.886,-0.754
2840.0,-9.693,-2.362,-0.844,1.755,-1.079,-0.77
2844.0,-9.693,-2.362,-0.844,1.755,-1.079,-0.77
2848.0,-9.693,-2.362,-1.381,1.755,-1.079,-0.77
2853.0,-9.671,-2.189,-1.381,1.821,-1.233,-0.757
2857.0,-9.671,-2.189,-1.381,1.821,-1.233,-0.757
2861.0,-9.467,-2.01,-1.717,1.836,-1.339,-0.704
2865.0,-9.467,-2.01,-1.717,1.836,-1.339,-0.704
2869.0,-8.992,-1.893,-1.735,1.836,-1.339,-0.619
2873.0,-8.992,-1.893,-1.735,1.802,-1.4,-0.619
2877.0,-8.992,-1.893,-1.735,1.802,-1.4,-0.619
2881.0,-8.488,-1.863,-1.616,1.733,-1.424,-0.517
2885.0,-8.488,-1.863,-1.616,1.733,-1.424,-0.517
2889.0,-8.318,-1.903,-1.408,1.639,-1.423,-0.412
2893.0,-8.318,-1.903,-1.408,1.639,-1.423,-0.412
2897.0,-8.318,-1.903,-1.408,1.639,-1.423,-0.412
2901.0,-8.518,-1.889,-1.339,1.523,-1.405,-0.31
2906.0,-8.518,-1.889,-1.339,1.523,-1.405,-0.31
2910.0,-8.78,-1.878,-1.307,1.384,-1.38,-0.203
2914.0,-8.78,-1.878,-1.307,1.384,-1.38,-0.203
2918.0,-8.78,-1.903,-1.246,1.384,-1.38,-0.203
2922.0,-8.863,-1.903,-1.246,1.222,-1.355,-0.093
2926.0,-8.863,-1.903,-1.246,1.222,-1.355,-0.093
2930.0,-8.707,-1.977,-1.147,1.039,-1.331,0.012
2934.0,-8.707,-1.977,-1.147,1.039,-1.331,0.012
2938.0,-8.364,-2.107,-0.991,1.039,-1.331,0.104
2942.0,-8.364,-2.107,-0.991,0.844,-1.288,0.104
2946.0,-8.364,-2.107,-0.991,0.844,-1.288,0.104
2950.0,-8.136,-2.285,-0.829,0.644,-1.221,0.176
2954.0,-8.136,-2.285,-0.829,0.644,-1.221,0.176
2958.0,-8.135,-2.425,-0.757,0.445,-1.125,0.228
2962.0,-8.135,-2.425,-0.757,0.445,-1.125,0.228
2966.0,-8.135,-2.425,-0.757,0.445,-1.125,0.228
2970.0,-8.313,-2.605,-0.819,0.25,-1.006,0.271
2974.0,-8.313,-2.605,-0.819,0.25,-1.006,0.271
2978.0,-8.723,-2.794,-0.985,0.058,-0.867,0.308
2982.0,-8.723,-2.794,-0.985,0.058,-0.867,0.308
2986.0,-8.723,-2.794,-0.985,0.058,-0.867,0.308
2990.0,-9.245,-2.981,-1.144,-0.122,-0.72,0.336
2994.0,-9.245,-2.981,-1.144,-0.122,-0.72,0.336
2998.0,-9.778,-3.214,-1.32,-0.274,-0.573,0.342
