deltaTime,Acc_X,Acc_Y,Acc_Z,Gyro_X,Gyro_Y,Gyro_Z
0.0,-10.328,-1.32,-1.637,-1.011,-0.181,0.212
3.0,-10.328,-1.32,-1.637,-1.011,-0.181,0.212
6.0,-10.328,-1.32,-1.637,-1.011,-0.181,0.212
9.0,-10.312,-0.89,-0.689,-1.185,-0.254,0.203
12.0,-10.312,-0.89,-0.689,-1.185,-0.254,0.203
15.0,-10.312,-0.89,-0.689,-1.185,-0.254,0.203
18.0,-9.993,-1.266,0.476,-1.34,-0.238,0.153
21.0,-9.993,-1.266,0.476,-1.34,-0.238,0.153
24.0,-9.993,-1.266,0.476,-1.34,-0.238,0.153
27.0,-9.718,-1.656,0.513,-1.34,-0.221,0.107
30.0,-9.718,-1.656,0.513,-1.35,-0.221,0.107
34.0,-9.718,-1.656,0.513,-1.35,-0.221,0.107
38.0,-9.507,-1.282,0.547,-1.286,-0.248,0.078
41.0,-9.507,-1.282,0.547,-1.286,-0.248,0.078
45.0,-9.507,-1.282,0.547,-1.286,-0.248,0.078
49.0,-9.702,-1.079,0.283,-1.262,-0.257,0.063
53.0,-9.702,-1.079,0.283,-1.262,-0.257,0.063
57.0,-9.677,-1.04,-0.103,-1.28,-0.238,0.061
61.0,-9.677,-1.04,-0.103,-1.28,-0.238,0.061
64.0,-9.677,-1.04,-0.103,-1.28,-0.238,0.061
68.0,-9.822,-1.172,-0.374,-1.311,-0.199,0.065
72.0,-9.822,-1.172,-0.374,-1.311,-0.199,0.065
76.0,-9.892,-1.409,-0.083,-1.316,-0.145,0.091
80.0,-9.892,-1.409,-0.083,-1.316,-0.145,0.091
84.0,-9.892,-1.409,-0.083,-1.316,-0.145,0.091
88.0,-9.921,-1.445,0.3,-1.266,-0.093,0.11
92.0,-9.921,-1.445,0.3,-1.266,-0.093,0.11
96.0,-10.313,-1.75,1.198,-1.266,-0.093,0.115
99.0,-10.313,-1.75,1.198,-1.189,-0.058,0.115
103.0,-10.313,-1.75,1.198,-1.189,-0.058,0.115
107.0,-10.531,-2.107,1.245,-1.017,-0.057,0.14
111.0,-10.531,-2.107,1.245,-1.017,-0.057,0.14
115.0,-10.314,-2.288,1.231,-1.017,-0.057,0.162
119.0,-10.314,-2.288,1.231,-0.792,-0.064,0.162
123.0,-10.314,-2.288,1.231,-0.792,-0.064,0.162
127.0,-10.194,-2.262,1.49,-0.611,-0.062,0.175
131.0,-10.194,-2.262,1.49,-0.611,-0.062,0.175
135.0,-10.084,-2.713,1.388,-0.611,-0.034,0.189
139.0,-10.084,-2.713,1.388,-0.472,-0.034,0.189
143.0,-10.084,-2.713,1.388,-0.472,-0.034,0.189
147.0,-9.299,-2.756,1.443,-0.291,-0.0,0.208
151.0,-9.299,-2.756,1.443,-0.291,-0.0,0.208
155.0,-8.969,-2.874,1.646,-0.107,0.037,0.238
159.0,-8.969,-2.874,1.646,-0.107,0.037,0.238
163.0,-8.969,-2.874,1.646,-0.107,0.037,0.238
167.0,-8.719,-3.161,0.948,0.089,0.099,0.237
170.0,-8.719,-3.161,0.948,0.089,0.099,0.237
174.0,-8.719,-3.161,0.679,0.089,0.099,0.237
178.0,-8.809,-2.679,0.679,0.285,0.144,0.194
181.0,-8.809,-2.679,0.679,0.285,0.144,0.194
185.0,-9.233,-2.49,0.361,0.389,0.173,0.096
189.0,-9.233,-2.49,0.361,0.389,0.173,0.096
193.0,-9.233,-2.49,0.361,0.389,0.173,0.096
196.0,-9.757,-3.308,0.393,0.466,0.123,0.012
200.0,-9.757,-3.308,0.393,0.466,0.123,0.012
204.0,-10.187,-3.849,0.309,0.466,0.123,0.012
208.0,-10.187,-3.849,0.309,0.665,-0.011,-0.013
212.0,-10.187,-3.849,0.309,0.665,-0.011,-0.013
216.0,-10.648,-3.728,0.303,0.935,-0.128,-0.029
220.0,-10.648,-3.728,0.303,0.935,-0.128,-0.029
224.0,-11.043,-3.751,0.218,0.935,-0.128,-0.029
228.0,-11.043,-3.751,0.218,1.18,-0.174,-0.061
232.0,-11.043,-3.751,0.218,1.18,-0.174,-0.061
236.0,-11.127,-3.773,0.032,1.391,-0.179,-0.094
240.0,-11.127,-3.773,0.032,1.391,-0.179,-0.094
244.0,-11.004,-3.878,0.053,1.391,-0.179,-0.127
248.0,-11.004,-3.878,0.053,1.533,-0.167,-0.127
252.0,-11.004,-3.878,0.053,1.533,-0.167,-0.127
256.0,-10.975,-4.214,0.367,1.609,-0.138,-0.186
260.0,-10.975,-4.214,0.367,1.609,-0.138,-0.186
264.0,-11.026,-4.573,0.881,1.609,-0.096,-0.302
268.0,-11.026,-4.573,0.881,1.66,-0.096,-0.302
272.0,-11.026,-4.573,0.881,1.66,-0.096,-0.302
276.0,-10.908,-4.807,1.558,1.727,-0.061,-0.463
280.0,-10.908,-4.807,1.558,1.727,-0.061,-0.463
284.0,-10.717,-4.939,2.111,1.83,-0.057,-0.634
288.0,-10.717,-4.939,2.111,1.83,-0.057,-0.634
292.0,-10.717,-4.939,2.111,1.83,-0.057,-0.634
296.0,-10.787,-5.022,2.25,1.952,-0.077,-0.777
300.0,-10.787,-5.022,2.25,1.952,-0.077,-0.777
304.0,-10.956,-4.973,2.09,2.072,-0.109,-0.876
308.0,-10.956,-4.973,2.09,2.072,-0.109,-0.876
312.0,-10.956,-4.973,2.09,2.072,-0.109,-0.876
316.0,-11.002,-4.908,1.899,2.172,-0.15,-0.93
320.0,-11.002,-4.908,1.899,2.172,-0.15,-0.93
324.0,-10.848,-4.899,1.902,2.231,-0.211,-0.958
328.0,-10.848,-4.899,1.902,2.231,-0.211,-0.958
331.0,-10.848,-4.899,1.902,2.231,-0.211,-0.958
335.0,-10.525,-4.953,2.026,2.24,-0.301,-0.98
339.0,-10.525,-4.953,2.026,2.24,-0.301,-0.98
343.0,-10.107,-5.061,2.231,2.202,-0.411,-1.013
347.0,-10.107,-5.061,2.231,2.202,-0.411,-1.013
351.0,-10.107,-5.061,2.231,2.202,-0.411,-1.013
355.0,-9.647,-5.31,2.288,2.13,-0.534,-1.073
359.0,-9.647,-5.31,2.288,2.13,-0.534,-1.073
363.0,-9.2,-5.631,2.247,2.043,-0.655,-1.167
367.0,-9.2,-5.631,2.247,2.043,-0.655,-1.167
371.0,-9.2,-5.631,2.247,2.043,-0.655,-1.167
375.0,-8.898,-5.949,2.29,1.955,-0.747,-1.281
379.0,-8.898,-5.949,2.29,1.955,-0.747,-1.281
383.0,-8.824,-6.021,2.594,1.871,-0.802,-1.388
387.0,-8.824,-6.021,2.594,1.871,-0.802,-1.388
391.0,-8.824,-6.021,2.594,1.871,-0.802,-1.388
395.0,-8.935,-6.156,3.007,1.779,-0.85,-1.459
398.0,-8.935,-6.156,3.007,1.779,-0.85,-1.459
402.0,-9.11,-6.564,3.338,1.675,-0.92,-1.509
406.0,-9.11,-6.564,3.338,1.675,-0.92,-1.509
410.0,-9.11,-6.564,3.338,1.675,-0.92,-1.509
414.0,-9.255,-7.019,3.549,1.573,-1.016,-1.576
418.0,-9.255,-7.019,3.549,1.573,-1.016,-1.576
422.0,-9.441,-7.441,3.588,1.474,-1.134,-1.67
426.0,-9.441,-7.441,3.588,1.474,-1.134,-1.67
430.0,-9.441,-7.441,3.588,1.474,-1.134,-1.67
434.0,-9.744,-7.93,3.631,1.364,-1.262,-1.782
437.0,-9.744,-7.93,3.631,1.364,-1.262,-1.782
441.0,-10.113,-8.484,3.822,1.219,-1.413,-1.932
445.0,-10.113,-8.484,3.822,1.219,-1.413,-1.932
449.0,-10.113,-8.484,3.822,1.219,-1.413,-1.932
453.0,-10.5,-8.992,4.348,1.02,-1.61,-2.115
457.0,-10.5,-8.992,4.348,1.02,-1.61,-2.115
461.0,-10.589,-9.603,4.264,0.757,-1.855,-2.309
465.0,-10.589,-9.603,4.264,0.757,-1.855,-2.309
469.0,-10.589,-9.603,4.264,0.757,-1.855,-2.309
473.0,-10.305,-10.239,3.942,0.452,-2.086,-2.503
477.0,-10.305,-10.239,3.942,0.452,-2.086,-2.503
481.0,-9.762,-10.92,3.776,0.151,-2.267,-2.699
485.0,-9.762,-10.92,3.776,0.151,-2.267,-2.699
489.0,-9.762,-10.92,3.776,0.151,-2.267,-2.699
493.0,-9.275,-11.645,3.814,-0.095,-2.395,-2.912
498.0,-9.275,-11.645,3.814,-0.095,-2.395,-2.912
502.0,-8.968,-12.418,4.04,-0.243,-2.482,-3.142
506.0,-8.968,-12.418,4.04,-0.243,-2.482,-3.142
510.0,-8.968,-13.185,4.236,-0.243,-2.482,-3.142
514.0,-8.85,-13.185,4.236,-0.267,-2.543,-3.372
518.0,-8.85,-13.185,4.236,-0.267,-2.543,-3.372
522.0,-8.698,-14.052,4.228,-0.149,-2.577,-3.584
526.0,-8.698,-14.052,4.228,-0.149,-2.577,-3.584
530.0,-8.519,-14.94,3.991,0.121,-2.582,-3.773
534.0,-8.519,-14.94,3.991,0.121,-2.582,-3.773
538.0,-8.519,-14.94,3.991,0.121,-2.582,-3.773
542.0,-8.368,-15.819,3.462,0.522,-2.555,-3.936
546.0,-8.368,-15.819,3.462,0.522,-2.555,-3.936
550.0,-8.325,-16.59,2.882,1.022,-2.494,-4.073
554.0,-8.325,-16.59,2.882,1.022,-2.494,-4.073
558.0,-8.325,-16.59,2.882,1.022,-2.494,-4.073
562.0,-8.38,-17.081,2.326,1.574,-2.403,-4.198
566.0,-8.38,-17.081,2.326,1.574,-2.403,-4.198
570.0,-8.308,-17.219,1.884,2.131,-2.291,-4.322
574.0,-8.308,-17.219,1.884,2.131,-2.291,-4.322
578.0,-8.308,-17.219,1.884,2.131,-2.291,-4.322
582.0,-8.018,-17.14,1.44,2.64,-2.17,-4.454
586.0,-8.018,-17.14,1.44,2.64,-2.17,-4.454
590.0,-7.679,-16.957,1.021,3.06,-2.039,-4.597
594.0,-7.679,-16.957,1.021,3.06,-2.039,-4.597
598.0,-7.679,-16.957,1.021,3.06,-2.039,-4.597
602.0,-7.432,-16.696,0.663,3.386,-1.892,-4.743
606.0,-7.432,-16.696,0.663,3.386,-1.892,-4.743
610.0,-7.303,-16.295,0.464,3.628,-1.73,-4.878
614.0,-7.303,-16.295,0.464,3.628,-1.73,-4.878
618.0,-7.303,-16.295,0.464,3.628,-1.73,-4.878
622.0,-7.235,-15.888,0.478,3.791,-1.572,-4.975
626.0,-7.235,-15.888,0.478,3.791,-1.572,-4.975
630.0,-7.102,-15.49,0.447,3.894,-1.422,-4.995
634.0,-7.102,-15.49,0.447,3.894,-1.422,-4.995
638.0,-7.102,-15.321,0.366,3.894,-1.422,-4.995
642.0,-6.723,-15.321,0.366,3.95,-1.272,-4.995
646.0,-6.723,-15.321,0.366,3.95,-1.272,-4.995
650.0,-6.297,-15.651,0.255,3.977,-1.117,-4.995
654.0,-6.297,-15.651,0.255,3.977,-1.117,-4.995
658.0,-5.955,-16.105,-0.024,3.977,-1.117,-4.995
662.0,-5.955,-16.105,-0.024,4.017,-0.944,-4.995
666.0,-5.955,-16.105,-0.024,4.017,-0.944,-4.995
670.0,-5.707,-16.594,-0.157,4.108,-0.747,-4.995
674.0,-5.707,-16.594,-0.157,4.108,-0.747,-4.995
678.0,-5.547,-16.896,-0.368,4.277,-0.541,-4.995
682.0,-5.547,-16.896,-0.368,4.277,-0.541,-4.995
687.0,-5.547,-16.896,-0.368,4.277,-0.541,-4.995
691.0,-5.306,-16.918,-0.641,4.543,-0.327,-4.995
695.0,-5.306,-16.918,-0.641,4.543,-0.327,-4.995
699.0,-5.191,-16.957,-0.901,4.87,-0.103,-4.995
703.0,-5.191,-16.957,-0.901,4.87,-0.103,-4.995
707.0,-5.191,-16.957,-1.236,4.87,-0.103,-4.995
711.0,-5.142,-16.881,-1.236,4.994,0.116,-4.995
715.0,-5.142,-16.881,-1.236,4.994,0.116,-4.995
719.0,-5.222,-16.538,-1.42,4.995,0.311,-4.995
723.0,-5.222,-16.538,-1.42,4.995,0.311,-4.995
727.0,-5.518,-15.899,-1.765,4.995,0.311,-4.995
731.0,-5.518,-15.899,-1.765,4.995,0.466,-4.995
735.0,-5.518,-15.899,-1.765,4.995,0.466,-4.995
739.0,-5.736,-14.908,-2.145,4.995,0.575,-4.995
743.0,-5.736,-14.908,-2.145,4.995,0.575,-4.995
747.0,-5.834,-13.874,-2.365,4.995,0.575,-4.995
751.0,-5.834,-13.874,-2.365,4.995,0.625,-4.995
755.0,-5.834,-13.874,-2.365,4.995,0.625,-4.995
759.0,-6.004,-12.87,-2.39,4.995,0.623,-4.995
763.0,-6.004,-12.87,-2.39,4.995,0.623,-4.995
767.0,-6.343,-11.63,-2.252,4.995,0.569,-4.995
771.0,-6.343,-11.63,-2.252,4.995,0.569,-4.995
775.0,-6.343,-11.63,-2.252,4.995,0.569,-4.995
779.0,-6.687,-10.213,-2.134,4.995,0.455,-4.995
783.0,-6.687,-10.213,-2.134,4.995,0.455,-4.995
787.0,-6.919,-8.76,-2.051,4.995,0.292,-4.995
791.0,-6.919,-8.76,-2.051,4.995,0.292,-4.995
795.0,-6.919,-8.76,-2.051,4.995,0.292,-4.995
799.0,-6.909,-7.44,-2.176,4.995,0.092,-4.995
803.0,-6.909,-7.44,-2.176,4.995,0.092,-4.995
806.0,-6.79,-6.133,-2.055,4.995,-0.108,-4.995
810.0,-6.79,-6.133,-2.055,4.995,-0.108,-4.995
814.0,-6.79,-6.133,-2.055,4.995,-0.108,-4.995
818.0,-6.782,-4.796,-1.834,4.995,-0.304,-4.995
822.0,-6.782,-4.796,-1.834,4.995,-0.304,-4.995
826.0,-6.799,-3.453,-1.494,4.995,-0.494,-4.995
830.0,-6.799,-3.453,-1.494,4.995,-0.494,-4.995
834.0,-6.799,-3.453,-1.494,4.995,-0.494,-4.995
838.0,-6.721,-2.283,-1.073,4.995,-0.673,-4.995
842.0,-6.721,-2.283,-1.073,4.995,-0.673,-4.995
846.0,-6.672,-1.184,-0.706,4.995,-0.845,-4.995
850.0,-6.672,-1.184,-0.706,4.995,-0.845,-4.995
854.0,-6.672,-1.184,-0.706,4.995,-0.845,-4.995
858.0,-6.526,-0.121,-0.352,4.995,-1.004,-4.968
862.0,-6.526,-0.121,-0.352,4.995,-1.004,-4.968
866.0,-6.357,0.968,0.132,4.982,-1.144,-4.81
870.0,-6.357,0.968,0.132,4.982,-1.144,-4.81
874.0,-6.357,0.968,0.132,4.982,-1.144,-4.81
878.0,-6.173,2.167,0.485,4.764,-1.257,-4.606
882.0,-6.173,2.167,0.485,4.764,-1.257,-4.606
885.0,-5.916,3.545,0.909,4.764,-1.339,-4.397
889.0,-5.916,3.545,0.909,4.412,-1.339,-4.397
893.0,-5.916,3.545,0.909,4.412,-1.339,-4.397
897.0,-5.842,5.331,1.224,4.141,-1.398,-4.192
901.0,-5.842,5.331,1.224,4.141,-1.398,-4.192
904.0,-5.842,5.331,1.357,4.141,-1.398,-4.192
908.0,-6.038,7.171,1.357,3.943,-1.442,-3.98
912.0,-6.038,7.171,1.357,3.943,-1.442,-3.98
916.0,-6.333,8.7,1.292,3.768,-1.488,-3.738
920.0,-6.333,8.7,1.292,3.768,-1.488,-3.738
924.0,-6.333,8.7,1.292,3.768,-1.488,-3.738
927.0,-6.276,9.975,1.314,3.564,-1.543,-3.447
931.0,-6.276,9.975,1.314,3.564,-1.543,-3.447
935.0,-5.853,11.096,1.487,3.307,-1.593,-3.128
939.0,-5.853,11.096,1.487,3.307,-1.593,-3.128
943.0,-5.853,11.096,1.487,3.307,-1.593,-3.128
947.0,-5.278,12.379,1.893,2.991,-1.612,-2.806
951.0,-5.278,12.379,1.893,2.991,-1.612,-2.806
955.0,-4.826,13.562,2.491,2.991,-1.59,-2.481
958.0,-4.826,13.562,2.491,2.61,-1.59,-2.481
962.0,-4.826,13.562,2.491,2.61,-1.59,-2.481
966.0,-4.441,14.552,3.069,2.172,-1.538,-2.151
970.0,-4.441,14.552,3.069,2.172,-1.538,-2.151
974.0,-3.924,15.123,3.48,2.172,-1.538,-1.822
978.0,-3.924,15.123,3.48,1.697,-1.462,-1.822
982.0,-3.924,15.123,3.48,1.697,-1.462,-1.822
986.0,-3.202,15.294,3.863,1.215,-1.354,-1.536
990.0,-3.202,15.294,3.863,1.215,-1.354,-1.536
994.0,-2.503,15.443,4.147,1.215,-1.354,-1.536
998.0,-2.503,15.443,4.147,0.762,-1.22,-1.318
1001.0,-2.503,15.443,4.147,0.762,-1.22,-1.318
1005.0,-1.975,15.364,4.51,0.355,-1.072,-1.11
1009.0,-1.975,15.364,4.51,0.355,-1.072,-1.11
1013.0,-1.576,14.967,4.92,0.355,-1.072,-1.11
1017.0,-1.576,14.967,4.92,0.019,-0.912,-0.901
1021.0,-1.576,14.967,4.92,0.019,-0.912,-0.901
1025.0,-1.232,14.384,5.4,-0.216,-0.759,-0.694
1029.0,-1.232,14.384,5.4,-0.216,-0.759,-0.694
1034.0,-0.908,13.592,5.816,-0.216,-0.625,-0.481
1038.0,-0.908,13.592,5.816,-0.342,-0.625,-0.481
1042.0,-0.908,13.592,5.816,-0.342,-0.625,-0.481
1046.0,-0.589,12.772,6.15,-0.367,-0.505,-0.283
1050.0,-0.589,12.772,6.15,-0.367,-0.505,-0.283
1054.0,-0.379,11.937,6.395,-0.299,-0.398,-0.126
1058.0,-0.379,11.937,6.395,-0.299,-0.398,-0.126
1062.0,-0.379,11.937,6.395,-0.299,-0.398,-0.126
1066.0,-0.273,11.257,6.506,-0.163,-0.303,-0.003
1070.0,-0.273,11.257,6.506,-0.163,-0.303,-0.003
1074.0,-0.183,10.668,6.598,0.019,-0.209,0.119
1078.0,-0.183,10.668,6.598,0.019,-0.209,0.119
1082.0,-0.183,10.668,6.613,0.019,-0.209,0.119
1086.0,-0.276,10.038,6.613,0.229,-0.108,0.241
1090.0,-0.276,10.038,6.613,0.229,-0.108,0.241
1094.0,-0.574,9.707,6.526,0.435,-0.001,0.355
1098.0,-0.574,9.707,6.526,0.435,-0.001,0.355
1102.0,-0.574,9.707,6.526,0.435,-0.001,0.355
1105.0,-1.004,9.47,6.509,0.605,0.114,0.474
1109.0,-1.004,9.47,6.509,0.605,0.114,0.474
1113.0,-1.397,9.435,6.351,0.731,0.239,0.581
1117.0,-1.397,9.435,6.351,0.731,0.239,0.581
1120.0,-1.397,9.435,6.351,0.731,0.239,0.581
1124.0,-1.713,9.749,6.346,0.823,0.388,0.659
1128.0,-1.713,9.749,6.346,0.823,0.388,0.659
1131.0,-1.713,9.749,6.467,0.823,0.388,0.659
1135.0,-2.088,10.378,6.467,0.89,0.543,0.693
1139.0,-2.088,10.378,6.467,0.89,0.543,0.693
1143.0,-2.342,11.359,6.564,0.936,0.67,0.679
1147.0,-2.342,11.359,6.564,0.936,0.67,0.679
1151.0,-2.342,11.359,6.564,0.936,0.67,0.679
1154.0,-2.477,12.31,6.552,0.967,0.771,0.663
1158.0,-2.477,12.31,6.552,0.967,0.771,0.663
1162.0,-2.489,12.937,6.45,0.99,0.873,0.68
1166.0,-2.489,12.937,6.45,0.99,0.873,0.68
1170.0,-2.489,12.937,6.45,0.99,0.873,0.68
1173.0,-2.542,13.103,6.393,0.997,0.987,0.733
1177.0,-2.542,13.103,6.393,0.997,0.987,0.733
1181.0,-2.715,13.087,6.273,0.997,0.987,0.733
1185.0,-2.715,13.087,6.273,0.991,1.091,0.805
1189.0,-2.715,13.087,6.273,0.991,1.091,0.805
1193.0,-2.953,13.128,6.334,0.982,1.172,0.885
1196.0,-2.953,13.128,6.334,0.982,1.172,0.885
1200.0,-2.953,13.128,6.334,0.982,1.172,0.885
1204.0,-3.25,13.493,6.401,0.991,1.233,0.977
1208.0,-3.25,13.493,6.401,0.991,1.233,0.977
1212.0,-3.178,13.729,6.57,1.009,1.28,1.155
1215.0,-3.178,13.729,6.57,1.009,1.28,1.155
1219.0,-3.178,13.729,6.57,1.009,1.28,1.155
1223.0,-3.075,13.833,6.677,1.048,1.322,1.398
1227.0,-3.075,13.833,6.677,1.048,1.322,1.398
1231.0,-3.062,13.947,6.729,1.048,1.322,1.681
1235.0,-3.062,13.947,6.729,1.092,1.35,1.681
1238.0,-3.062,13.947,6.729,1.092,1.35,1.681
1242.0,-3.19,13.878,6.84,1.11,1.364,1.997
1246.0,-3.19,13.878,6.84,1.11,1.364,1.997
1250.0,-3.19,13.878,6.73,1.11,1.364,1.997
1254.0,-3.461,13.688,6.73,1.089,1.36,2.309
1257.0,-3.461,13.688,6.73,1.089,1.36,2.309
1261.0,-3.726,13.479,6.561,1.013,1.358,2.61
1265.0,-3.726,13.479,6.561,1.013,1.358,2.61
1269.0,-3.726,13.479,6.561,1.013,1.358,2.61
1273.0,-4.01,13.291,6.361,0.881,1.357,2.896
1277.0,-4.01,13.291,6.361,0.881,1.357,2.896
1280.0,-4.139,13.199,6.324,0.881,1.343,3.17
1284.0,-4.139,13.199,6.324,0.7,1.343,3.17
1288.0,-4.139,13.199,6.324,0.7,1.343,3.17
1292.0,-4.165,13.156,6.32,0.484,1.301,3.437
1296.0,-4.165,13.156,6.32,0.484,1.301,3.437
1299.0,-4.165,13.087,6.41,0.484,1.301,3.437
1303.0,-3.971,13.087,6.41,0.245,1.221,3.693
1307.0,-3.971,13.087,6.41,0.245,1.221,3.693
1311.0,-3.888,12.821,6.346,0.013,1.109,3.878
1315.0,-3.888,12.821,6.346,0.013,1.109,3.878
1319.0,-3.888,12.821,6.346,0.013,1.109,3.878
1322.0,-3.848,12.191,6.127,-0.211,0.977,3.998
1326.0,-3.848,12.191,6.127,-0.211,0.977,3.998
1330.0,-3.934,11.236,5.975,-0.409,0.869,4.033
1334.0,-3.934,11.236,5.975,-0.409,0.869,4.033
1338.0,-3.934,11.236,5.975,-0.409,0.869,4.033
1342.0,-4.269,10.202,5.8,-0.581,0.795,4.007
1346.0,-4.269,10.202,5.8,-0.581,0.795,4.007
1350.0,-4.512,9.529,6.034,-0.721,0.734,3.987
1354.0,-4.512,9.529,6.034,-0.721,0.734,3.987
1357.0,-4.512,9.529,6.034,-0.721,0.734,3.987
1361.0,-4.468,8.937,6.613,-0.805,0.652,4.025
1365.0,-4.468,8.937,6.613,-0.805,0.652,4.025
1369.0,-4.299,8.469,7.244,-0.805,0.652,4.025
1373.0,-4.299,8.469,7.244,-0.82,0.543,4.108
1376.0,-4.299,8.469,7.244,-0.82,0.543,4.108
1380.0,-3.997,8.101,7.61,-0.795,0.425,4.236
1384.0,-3.997,8.101,7.61,-0.795,0.425,4.236
1388.0,-3.997,8.101,7.61,-0.795,0.425,4.236
1392.0,-3.526,7.47,7.525,-0.763,0.318,4.381
1396.0,-3.526,7.47,7.525,-0.763,0.318,4.381
1399.0,-2.878,6.739,7.432,-0.745,0.241,4.477
1403.0,-2.878,6.739,7.432,-0.745,0.241,4.477
1407.0,-2.878,6.739,7.432,-0.745,0.241,4.477
1411.0,-2.396,6.26,7.385,-0.737,0.193,4.485
1415.0,-2.396,6.26,7.385,-0.737,0.193,4.485
1418.0,-2.301,6.041,7.223,-0.737,0.154,4.461
1422.0,-2.301,6.041,7.223,-0.759,0.154,4.461
1426.0,-2.301,6.041,7.223,-0.759,0.154,4.461
1430.0,-2.538,5.873,7.195,-0.817,0.119,4.467
1434.0,-2.538,5.873,7.195,-0.817,0.119,4.467
1438.0,-2.538,5.873,7.067,-0.817,0.119,4.467
1441.0,-2.914,5.441,7.067,-0.892,0.065,4.516
1445.0,-2.914,5.441,7.067,-0.892,0.065,4.516
1449.0,-3.094,4.895,6.924,-0.958,0.003,4.567
1453.0,-3.094,4.895,6.924,-0.958,0.003,4.567
1457.0,-3.094,4.895,6.924,-0.958,0.003,4.567
1460.0,-3.047,4.32,6.834,-0.994,-0.062,4.592
1464.0,-3.047,4.32,6.834,-0.994,-0.062,4.592
1468.0,-2.885,3.8,6.815,-1.0,-0.135,4.597
1472.0,-2.885,3.8,6.815,-1.0,-0.135,4.597
1476.0,-2.885,3.8,6.815,-1.0,-0.135,4.597
1480.0,-2.754,3.276,6.78,-0.977,-0.219,4.607
1484.0,-2.754,3.276,6.78,-0.977,-0.219,4.607
1488.0,-2.733,2.71,6.711,-0.925,-0.313,4.636
1492.0,-2.733,2.71,6.711,-0.925,-0.313,4.636
1496.0,-2.733,2.71,6.711,-0.925,-0.313,4.636
1500.0,-2.646,2.126,6.377,-0.85,-0.415,4.689
1503.0,-2.646,2.126,6.377,-0.85,-0.415,4.689
1507.0,-2.362,1.567,6.007,-0.85,-0.504,4.759
1511.0,-2.362,1.567,6.007,-0.762,-0.504,4.759
1515.0,-2.362,1.567,6.007,-0.762,-0.504,4.759
1519.0,-1.998,1.069,5.685,-0.667,-0.562,4.837
1523.0,-1.998,1.069,5.685,-0.667,-0.562,4.837
1527.0,-1.691,0.738,5.463,-0.667,-0.562,4.925
1531.0,-1.691,0.738,5.463,-0.57,-0.586,4.925
1535.0,-1.691,0.738,5.463,-0.57,-0.586,4.925
1539.0,-1.586,0.461,5.43,-0.476,-0.587,5.0
1543.0,-1.586,0.461,5.43,-0.476,-0.587,5.0
1546.0,-1.618,0.079,5.335,-0.476,-0.587,5.0
1550.0,-1.618,0.079,5.335,-0.387,-0.595,5.013
1554.0,-1.618,0.079,5.335,-0.387,-0.595,5.013
1558.0,-1.68,-0.376,5.046,-0.303,-0.612,5.013
1562.0,-1.68,-0.376,5.046,-0.303,-0.612,5.013
1566.0,-1.58,-0.894,4.431,-0.303,-0.612,5.013
1570.0,-1.58,-0.894,4.431,-0.229,-0.619,5.013
1574.0,-1.58,-0.894,4.431,-0.229,-0.619,5.013
1578.0,-1.204,-1.371,3.706,-0.182,-0.595,5.013
1582.0,-1.204,-1.371,3.706,-0.182,-0.595,5.013
1586.0,-0.66,-1.798,3.2,-0.182,-0.595,5.013
1590.0,-0.66,-1.798,3.2,-0.175,-0.531,5.013
1594.0,-0.66,-1.798,3.2,-0.175,-0.531,5.013
1598.0,-0.194,-2.148,2.988,-0.203,-0.445,5.013
1602.0,-0.194,-2.148,2.988,-0.203,-0.445,5.013
1606.0,0.038,-2.329,3.126,-0.203,-0.365,5.013
1610.0,0.038,-2.329,3.126,-0.247,-0.365,5.013
1614.0,0.038,-2.329,3.126,-0.247,-0.365,5.013
1618.0,-0.016,-2.432,3.05,-0.29,-0.311,5.013
1622.0,-0.016,-2.432,3.05,-0.29,-0.311,5.013
1626.0,-0.233,-2.732,2.837,-0.29,-0.258,5.013
1630.0,-0.233,-2.732,2.837,-0.338,-0.258,5.013
1634.0,-0.233,-2.732,2.837,-0.338,-0.258,5.013
1638.0,-0.418,-3.185,2.618,-0.4,-0.203,5.013
1642.0,-0.418,-3.185,2.618,-0.4,-0.203,5.013
1646.0,-0.588,-3.776,2.592,-0.468,-0.157,5.013
1650.0,-0.588,-3.776,2.592,-0.468,-0.157,5.013
1654.0,-0.588,-3.776,2.592,-0.468,-0.157,5.013
1658.0,-0.933,-4.523,2.728,-0.527,-0.133,5.013
1662.0,-0.933,-4.523,2.728,-0.527,-0.133,5.013
1666.0,-1.609,-5.314,2.707,-0.581,-0.136,5.013
1670.0,-1.609,-5.314,2.707,-0.581,-0.136,5.013
1674.0,-1.609,-5.314,2.707,-0.581,-0.136,5.013
1678.0,-2.424,-6.215,2.643,-0.631,-0.164,5.013
1682.0,-2.424,-6.215,2.643,-0.631,-0.164,5.013
1686.0,-3.176,-7.221,2.565,-0.684,-0.239,5.013
1690.0,-3.176,-7.221,2.565,-0.684,-0.239,5.013
1694.0,-3.176,-7.221,2.565,-0.684,-0.239,5.013
1698.0,-3.558,-8.154,2.317,-0.761,-0.383,5.013
1702.0,-3.558,-8.154,2.317,-0.761,-0.383,5.013
1706.0,-3.471,-8.752,2.124,-0.881,-0.576,5.013
1710.0,-3.471,-8.752,2.124,-0.881,-0.576,5.013
1714.0,-3.471,-8.752,2.124,-0.881,-0.576,5.013
1718.0,-2.878,-9.149,2.104,-1.045,-0.787,4.971
1722.0,-2.878,-9.149,2.104,-1.045,-0.787,4.971
1726.0,-1.954,-9.473,1.854,-1.231,-0.977,4.755
1730.0,-1.954,-9.473,1.854,-1.231,-0.977,4.755
1734.0,-1.954,-9.473,1.294,-1.231,-0.977,4.755
1738.0,-1.0,-9.74,1.294,-1.435,-1.098,4.491
1742.0,-1.0,-9.74,1.294,-1.435,-1.098,4.491
1746.0,0.006,-10.228,0.671,-1.664,-1.133,4.229
1750.0,0.006,-10.228,0.671,-1.664,-1.133,4.229
1754.0,0.006,-10.965,0.278,-1.664,-1.133,4.229
1758.0,1.212,-10.965,0.278,-1.908,-1.102,3.941
1762.0,1.212,-10.965,0.278,-1.908,-1.102,3.941
1766.0,2.349,-11.735,0.37,-2.139,-1.039,3.628
1770.0,2.349,-11.735,0.37,-2.139,-1.039,3.628
1773.0,3.373,-12.878,0.488,-2.139,-1.039,3.628
1777.0,3.373,-12.878,0.488,-2.307,-0.973,3.314
1781.0,3.373,-12.878,0.488,-2.307,-0.973,3.314
1785.0,4.182,-14.234,0.556,-2.357,-0.893,3.01
1789.0,4.182,-14.234,0.556,-2.357,-0.893,3.01
1793.0,4.893,-15.689,0.567,-2.357,-0.893,2.731
1797.0,4.893,-15.689,0.567,-2.245,-0.8,2.731
1801.0,4.893,-15.689,0.567,-2.245,-0.8,2.731
1805.0,5.396,-16.774,0.464,-1.966,-0.707,2.48
1809.0,5.396,-16.774,0.464,-1.966,-0.707,2.48
1813.0,5.776,-17.469,0.495,-1.565,-0.614,2.257
1817.0,5.776,-17.469,0.495,-1.565,-0.614,2.257
1821.0,5.776,-17.469,0.495,-1.565,-0.614,2.257
1825.0,5.98,-17.721,0.572,-1.112,-0.53,2.05
1829.0,5.98,-17.721,0.572,-1.112,-0.53,2.05
1833.0,6.067,-17.489,0.583,-0.663,-0.463,1.825
1837.0,6.067,-17.489,0.583,-0.663,-0.463,1.825
1841.0,6.067,-17.489,0.583,-0.663,-0.463,1.825
1845.0,6.219,-16.934,0.628,-0.267,-0.401,1.566
1849.0,6.219,-16.934,0.628,-0.267,-0.401,1.566
1853.0,6.492,-16.162,0.711,0.056,-0.324,1.297
1857.0,6.492,-16.162,0.711,0.056,-0.324,1.297
1861.0,6.492,-16.162,0.711,0.056,-0.324,1.297
1865.0,6.899,-15.369,0.878,0.312,-0.229,1.043
1869.0,6.899,-15.369,0.878,0.312,-0.229,1.043
1873.0,7.155,-14.564,1.066,0.502,-0.122,0.809
1877.0,7.155,-14.564,1.066,0.502,-0.122,0.809
1881.0,7.155,-14.564,1.066,0.502,-0.122,0.809
1885.0,7.162,-13.719,1.566,0.619,-0.019,0.582
1889.0,7.162,-13.719,1.566,0.619,-0.019,0.582
1892.0,6.925,-12.928,1.987,0.647,0.066,0.374
1896.0,6.925,-12.928,1.987,0.647,0.066,0.374
1900.0,6.925,-12.928,1.987,0.647,0.066,0.374
1904.0,6.541,-12.26,2.294,0.585,0.124,0.18
1908.0,6.541,-12.26,2.294,0.585,0.124,0.18
1912.0,6.16,-11.797,2.62,0.585,0.124,0.18
1915.0,6.16,-11.797,2.62,0.461,0.171,-0.004
1919.0,6.16,-11.797,2.62,0.461,0.171,-0.004
1923.0,5.855,-11.336,2.967,0.322,0.202,-0.173
1927.0,5.855,-11.336,2.967,0.322,0.202,-0.173
1931.0,5.855,-11.336,3.252,0.322,0.202,-0.173
1935.0,5.48,-10.985,3.252,0.194,0.219,-0.318
1939.0,5.48,-10.985,3.252,0.194,0.219,-0.318
1943.0,5.286,-10.581,3.594,0.094,0.23,-0.438
1947.0,5.286,-10.581,3.594,0.094,0.23,-0.438
1950.0,5.286,-10.581,3.594,0.094,0.23,-0.438
1954.0,5.31,-10.254,4.055,0.032,0.228,-0.524
1958.0,5.31,-10.254,4.055,0.032,0.228,-0.524
1962.0,5.49,-9.978,4.376,0.024,0.218,-0.578
1966.0,5.49,-9.978,4.376,0.024,0.218,-0.578
1970.0,5.49,-9.978,4.376,0.024,0.218,-0.578
1974.0,5.706,-9.849,4.643,0.069,0.218,-0.606
1977.0,5.706,-9.849,4.643,0.069,0.218,-0.606
1981.0,5.823,-9.787,4.76,0.151,0.224,-0.611
1985.0,5.823,-9.787,4.76,0.151,0.224,-0.611
1989.0,5.823,-9.787,4.76,0.151,0.224,-0.611
1993.0,5.76,-9.696,4.815,0.26,0.225,-0.613
1997.0,5.76,-9.696,4.815,0.26,0.225,-0.613
2000.0,5.694,-9.424,4.772,0.26,0.225,-0.613
2004.0,5.694,-9.424,4.772,0.38,0.209,-0.622
2008.0,5.694,-9.424,4.772,0.38,0.209,-0.622
2012.0,5.547,-9.086,4.737,0.484,0.191,-0.619
2016.0,5.547,-9.086,4.737,0.484,0.191,-0.619
2020.0,5.547,-9.086,4.737,0.484,0.191,-0.619
2023.0,5.456,-8.649,4.793,0.574,0.165,-0.615
2027.0,5.456,-8.649,4.793,0.574,0.165,-0.615
2031.0,5.326,-8.283,4.958,0.638,0.126,-0.598
2035.0,5.326,-8.283,4.958,0.638,0.126,-0.598
2039.0,5.326,-8.283,4.958,0.638,0.126,-0.598
2042.0,5.325,-7.839,4.816,0.68,0.068,-0.567
2046.0,5.325,-7.839,4.816,0.68,0.068,-0.567
2050.0,5.398,-7.293,4.735,0.68,0.068,-0.545
2054.0,5.398,-7.293,4.735,0.69,0.023,-0.545
2058.0,5.398,-7.293,4.735,0.69,0.023,-0.545
2062.0,5.506,-6.787,4.789,0.671,0.003,-0.542
2065.0,5.506,-6.787,4.789,0.671,0.003,-0.542
2069.0,5.506,-6.787,5.067,0.671,0.003,-0.542
2073.0,5.624,-6.379,5.067,0.628,-0.009,-0.538
2077.0,5.624,-6.379,5.067,0.628,-0.009,-0.538
2081.0,5.743,-6.115,5.033,0.557,-0.025,-0.507
2085.0,5.743,-6.115,5.033,0.557,-0.025,-0.507
2089.0,5.743,-6.115,5.033,0.557,-0.025,-0.507
2093.0,5.763,-5.926,4.967,0.471,-0.04,-0.467
2096.0,5.763,-5.926,4.967,0.471,-0.04,-0.467
2100.0,5.776,-5.788,4.948,0.388,-0.064,-0.427
2104.0,5.776,-5.788,4.948,0.388,-0.064,-0.427
2108.0,5.776,-5.788,4.948,0.388,-0.064,-0.427
2112.0,5.758,-5.713,4.986,0.315,-0.09,-0.368
2116.0,5.758,-5.713,4.986,0.315,-0.09,-0.368
2120.0,5.676,-5.706,4.793,0.256,-0.114,-0.29
2124.0,5.676,-5.706,4.793,0.256,-0.114,-0.29
2128.0,5.676,-5.706,4.793,0.256,-0.114,-0.29
2132.0,5.597,-5.763,4.676,0.217,-0.124,-0.21
2135.0,5.597,-5.763,4.676,0.217,-0.124,-0.21
2139.0,5.63,-5.855,4.486,0.196,-0.124,-0.131
2143.0,5.63,-5.855,4.486,0.196,-0.124,-0.131
2147.0,5.63,-5.855,4.486,0.196,-0.124,-0.131
2151.0,5.762,-5.952,4.689,0.205,-0.108,-0.065
2155.0,5.762,-5.952,4.689,0.205,-0.108,-0.065
2159.0,5.978,-5.992,4.791,0.24,-0.096,-0.001
2163.0,5.978,-5.992,4.791,0.24,-0.096,-0.001
2167.0,5.978,-5.992,4.791,0.24,-0.096,-0.001
2171.0,6.068,-5.975,4.93,0.296,-0.08,0.065
2174.0,6.068,-5.975,4.93,0.296,-0.08,0.065
2178.0,6.022,-5.945,4.921,0.296,-0.08,0.065
2182.0,6.022,-5.945,4.921,0.364,-0.065,0.135
2186.0,6.022,-5.945,4.921,0.364,-0.065,0.135
2190.0,5.821,-5.891,4.756,0.431,-0.057,0.207
2194.0,5.821,-5.891,4.756,0.431,-0.057,0.207
2197.0,5.821,-5.891,4.756,0.431,-0.057,0.207
2201.0,5.483,-5.771,4.55,0.478,-0.041,0.277
2205.0,5.483,-5.771,4.55,0.478,-0.041,0.277
2209.0,5.158,-5.621,4.37,0.498,-0.02,0.341
2213.0,5.158,-5.621,4.37,0.498,-0.02,0.341
2216.0,5.158,-5.621,4.37,0.498,-0.02,0.341
2220.0,4.96,-5.405,4.166,0.494,-0.003,0.386
2224.0,4.96,-5.405,4.166,0.494,-0.003,0.386
2228.0,4.86,-5.166,3.885,0.494,0.016,0.418
2232.0,4.86,-5.166,3.885,0.473,0.016,0.418
2235.0,4.86,-5.166,3.885,0.473,0.016,0.418
2239.0,4.718,-4.903,3.35,0.449,0.056,0.448
2243.0,4.718,-4.903,3.35,0.449,0.056,0.448
2247.0,4.718,-4.903,3.35,0.449,0.056,0.448
2250.0,4.414,-4.396,2.623,0.432,0.126,0.467
2254.0,4.414,-4.396,2.623,0.432,0.126,0.467
2258.0,4.066,-3.66,2.285,0.424,0.234,0.48
2262.0,4.066,-3.66,2.285,0.424,0.234,0.48
2265.0,4.066,-3.66,2.285,0.424,0.234,0.48
2269.0,4.076,-2.712,2.256,0.437,0.341,0.527
2273.0,4.076,-2.712,2.256,0.437,0.341,0.527
2276.0,4.076,-2.712,2.554,0.437,0.341,0.527
2280.0,4.505,-1.808,2.554,0.474,0.427,0.655
2284.0,4.505,-1.808,2.554,0.474,0.427,0.655
2288.0,5.14,-1.139,3.017,0.541,0.497,0.892
2291.0,5.14,-1.139,3.017,0.541,0.497,0.892
2295.0,5.14,-1.139,3.017,0.541,0.497,0.892
2299.0,5.554,-0.965,3.051,0.641,0.544,1.227
2303.0,5.554,-0.965,3.051,0.641,0.544,1.227
2306.0,5.554,-1.242,2.716,0.641,0.544,1.227
2310.0,5.339,-1.242,2.716,0.766,0.595,1.572
2314.0,5.339,-1.242,2.716,0.766,0.595,1.572
2318.0,4.736,-1.691,2.182,0.904,0.682,1.852
2321.0,4.736,-1.691,2.182,0.904,0.682,1.852
2325.0,4.736,-1.691,2.182,0.904,0.682,1.852
2329.0,3.95,-2.135,1.976,1.039,0.811,2.056
2332.0,3.95,-2.135,1.976,1.039,0.811,2.056
2336.0,3.331,-2.666,2.276,1.039,0.811,2.056
2340.0,3.331,-2.666,2.276,1.157,0.95,2.208
2344.0,3.331,-2.666,2.276,1.157,0.95,2.208
2347.0,2.948,-3.155,2.478,1.264,1.067,2.31
2351.0,2.948,-3.155,2.478,1.264,1.067,2.31
2355.0,2.948,-3.155,2.478,1.264,1.067,2.31
2359.0,2.662,-3.493,2.66,1.369,1.184,2.366
2362.0,2.662,-3.493,2.66,1.369,1.184,2.366
2366.0,2.343,-3.811,2.677,1.369,1.321,2.4
2370.0,2.343,-3.811,2.677,1.478,1.321,2.4
2373.0,2.343,-3.811,2.677,1.478,1.321,2.4
2377.0,1.943,-4.047,2.834,1.607,1.477,2.411
2381.0,1.943,-4.047,2.834,1.607,1.477,2.411
2385.0,1.943,-4.047,2.834,1.607,1.477,2.411
2388.0,1.41,-4.339,3.099,1.75,1.625,2.406
2392.0,1.41,-4.339,3.099,1.75,1.625,2.406
2396.0,0.894,-4.504,3.364,1.904,1.741,2.381
2400.0,0.894,-4.504,3.364,1.904,1.741,2.381
2403.0,0.894,-4.504,3.364,1.904,1.741,2.381
2407.0,0.445,-4.482,3.724,2.059,1.82,2.337
2411.0,0.445,-4.482,3.724,2.059,1.82,2.337
2415.0,0.445,-4.482,3.724,2.059,1.82,2.337
2418.0,0.278,-4.512,3.849,2.195,1.868,2.3
2422.0,0.278,-4.512,3.849,2.195,1.868,2.3
2426.0,0.51,-4.644,3.557,2.318,1.934,2.282
2429.0,0.51,-4.644,3.557,2.318,1.934,2.282
2433.0,0.51,-4.644,3.557,2.318,1.934,2.282
2437.0,0.806,-4.987,3.303,2.458,2.081,2.258
2441.0,0.806,-4.987,3.303,2.458,2.081,2.258
2444.0,0.806,-4.987,3.581,2.458,2.081,2.258
2448.0,0.629,-5.526,3.581,2.649,2.291,2.191
2452.0,0.629,-5.526,3.581,2.649,2.291,2.191
2456.0,0.242,-5.873,3.562,2.897,2.478,2.071
2459.0,0.242,-5.873,3.562,2.897,2.478,2.071
2463.0,0.242,-5.873,3.562,2.897,2.478,2.071
2467.0,0.006,-6.181,3.467,3.193,2.664,1.927
2471.0,0.006,-6.181,3.467,3.193,2.664,1.927
2474.0,0.002,-6.459,3.351,3.193,2.664,1.927
2478.0,0.002,-6.459,3.351,3.546,2.9,1.756
2482.0,0.002,-6.459,3.351,3.546,2.9,1.756
2485.0,0.054,-6.44,3.246,3.963,3.21,1.559
2489.0,0.054,-6.44,3.246,3.963,3.21,1.559
2493.0,0.054,-6.44,3.246,3.963,3.21,1.559
2497.0,-0.084,-6.194,2.998,4.43,3.588,1.349
2500.0,-0.084,-6.194,2.998,4.43,3.588,1.349
2504.0,-0.674,-5.763,2.744,4.43,4.001,1.137
2508.0,-0.674,-5.763,2.744,4.872,4.001,1.137
2512.0,-0.674,-5.763,2.744,4.872,4.001,1.137
2516.0,-1.528,-5.205,2.32,4.995,4.406,0.934
2520.0,-1.528,-5.205,2.32,4.995,4.406,0.934
2523.0,-1.528,-4.586,1.673,4.995,4.406,0.934
2527.0,-2.439,-4.586,1.673,4.995,4.795,0.744
2531.0,-2.439,-4.586,1.673,4.995,4.795,0.744
2535.0,-3.291,-3.945,0.65,4.995,5.005,0.557
2539.0,-3.291,-3.945,0.65,4.995,5.005,0.557
2543.0,-3.291,-3.945,0.65,4.995,5.005,0.557
2546.0,-4.4,-3.382,-0.065,4.995,5.015,0.345
2550.0,-4.4,-3.382,-0.065,4.995,5.015,0.345
2554.0,-5.529,-2.862,-0.737,4.995,5.015,0.113
2558.0,-5.529,-2.862,-0.737,4.995,5.015,0.113
2562.0,-5.529,-2.862,-0.737,4.995,5.015,0.113
2566.0,-6.656,-2.536,-1.119,4.995,5.015,-0.152
2570.0,-6.656,-2.536,-1.119,4.995,5.015,-0.152
2574.0,-7.705,-2.413,-1.4,4.995,5.015,-0.485
2578.0,-7.705,-2.413,-1.4,4.995,5.015,-0.485
2582.0,-7.705,-2.413,-1.4,4.995,5.015,-0.485
2586.0,-9.01,-2.209,-1.502,4.995,5.015,-0.891
2590.0,-9.01,-2.209,-1.502,4.995,5.015,-0.891
2594.0,-11.201,-1.759,-1.439,4.995,5.015,-1.315
2598.0,-11.201,-1.759,-1.439,4.995,5.015,-1.315
2602.0,-11.201,-1.759,-1.439,4.995,5.015,-1.315
2606.0,-14.044,-0.769,-1.432,4.995,5.015,-1.688
2610.0,-14.044,-0.769,-1.432,4.995,5.015,-1.688
2614.0,-17.221,0.197,-1.543,4.995,5.015,-1.933
2618.0,-17.221,0.197,-1.543,4.995,5.015,-1.933
2622.0,-17.221,0.893,-1.238,4.995,5.015,-1.933
2626.0,-19.473,0.893,-1.238,4.995,5.015,-2.061
2630.0,-19.473,0.893,-1.238,4.995,5.015,-2.061
2634.0,-19.6,1.131,-0.569,4.995,5.015,-2.16
2638.0,-19.6,1.131,-0.569,4.995,5.015,-2.16
2642.0,-18.498,1.269,0.126,4.995,5.015,-2.16
2646.0,-18.498,1.269,0.126,4.995,5.015,-2.307
2650.0,-18.498,1.269,0.126,4.995,5.015,-2.307
2654.0,-16.715,1.323,0.226,4.995,5.015,-2.522
2658.0,-16.715,1.323,0.226,4.995,5.015,-2.522
2662.0,-16.715,1.41,-0.419,4.995,5.015,-2.522
2666.0,-16.182,1.41,-0.419,4.995,5.015,-2.781
2670.0,-16.182,1.41,-0.419,4.995,5.015,-2.781
2674.0,-16.512,1.702,-1.016,4.995,5.015,-3.024
2678.0,-16.512,1.702,-1.016,4.995,5.015,-3.024
2682.0,-17.318,2.539,-1.501,4.995,5.015,-3.024
2686.0,-17.318,2.539,-1.501,4.995,5.015,-3.208
2690.0,-17.318,2.539,-1.501,4.995,5.015,-3.208
2694.0,-18.156,3.234,-1.619,4.995,5.015,-3.337
2698.0,-18.156,3.234,-1.619,4.995,5.015,-3.337
2702.0,-19.104,3.894,-1.383,4.995,5.015,-3.436
2706.0,-19.104,3.894,-1.383,4.939,5.0,-3.436
2710.0,-19.104,3.894,-1.383,4.939,5.0,-3.436
2714.0,-19.581,4.559,-1.295,4.621,4.729,-3.509
2718.0,-19.581,4.559,-1.295,4.621,4.729,-3.509
2722.0,-19.378,4.969,-1.339,4.158,4.233,-3.542
2726.0,-19.378,4.969,-1.339,4.158,4.233,-3.542
2730.0,-19.378,4.969,-1.339,4.158,4.233,-3.542
2734.0,-18.809,5.089,-1.448,3.625,3.756,-3.536
2738.0,-18.809,5.089,-1.448,3.625,3.756,-3.536
2742.0,-18.3,4.905,-1.58,3.069,3.348,-3.497
2746.0,-18.3,4.905,-1.58,3.069,3.348,-3.497
2750.0,-18.3,4.905,-1.58,3.069,3.348,-3.497
2754.0,-18.078,4.478,-1.613,2.53,3.018,-3.433
2758.0,-18.078,4.478,-1.613,2.53,3.018,-3.433
2762.0,-18.144,4.042,-1.475,2.039,2.741,-3.355
2766.0,-18.144,4.042,-1.475,2.039,2.741,-3.355
2769.0,-18.144,4.042,-1.475,2.039,2.741,-3.355
2773.0,-18.232,3.795,-1.187,1.593,2.494,-3.273
2777.0,-18.232,3.795,-1.187,1.593,2.494,-3.273
2781.0,-18.026,3.481,-0.856,1.172,2.256,-3.179
2785.0,-18.026,3.481,-0.856,1.172,2.256,-3.179
2789.0,-18.026,3.481,-0.856,1.172,2.256,-3.179
2793.0,-17.807,3.147,-0.538,0.769,2.02,-3.081
2797.0,-17.807,3.147,-0.538,0.769,2.02,-3.081
2801.0,-17.515,2.824,-0.389,0.383,1.792,-2.977
2805.0,-17.515,2.824,-0.389,0.383,1.792,-2.977
2809.0,-17.515,2.824,-0.389,0.383,1.792,-2.977
2813.0,-17.041,2.567,-0.23,0.009,1.578,-2.853
2817.0,-17.041,2.567,-0.23,0.009,1.578,-2.853
2821.0,-16.81,2.279,-0.153,-0.36,1.379,-2.702
2825.0,-16.81,2.279,-0.153,-0.36,1.379,-2.702
2830.0,-16.548,1.931,-0.175,-0.36,1.379,-2.702
2834.0,-16.548,1.931,-0.175,-0.721,1.203,-2.527
2838.0,-16.548,1.931,-0.175,-0.721,1.203,-2.527
2842.0,-16.335,1.557,-0.105,-1.073,1.046,-2.328
2846.0,-16.335,1.557,-0.105,-1.073,1.046,-2.328
2850.0,-16.32,1.194,-0.075,-1.404,0.903,-2.117
2854.0,-16.32,1.194,-0.075,-1.404,0.903,-2.117
2858.0,-16.32,1.194,-0.075,-1.404,0.903,-2.117
2862.0,-15.952,0.814,-0.075,-1.699,0.778,-1.911
2866.0,-15.952,0.814,-0.075,-1.699,0.778,-1.911
2870.0,-15.755,0.549,-0.015,-1.948,0.67,-1.732
2874.0,-15.755,0.549,-0.015,-1.948,0.67,-1.732
2879.0,-15.755,0.549,-0.015,-1.948,0.67,-1.732
2883.0,-15.51,0.467,0.026,-2.138,0.568,-1.591
2887.0,-15.51,0.467,0.026,-2.138,0.568,-1.591
2891.0,-15.01,0.445,0.099,-2.271,0.455,-1.478
2895.0,-15.01,0.445,0.099,-2.271,0.455,-1.478
2899.0,-15.01,0.377,0.083,-2.271,0.455,-1.478
2903.0,-14.371,0.377,0.083,-2.357,0.33,-1.382
2907.0,-14.371,0.377,0.083,-2.357,0.33,-1.382
2911.0,-13.744,0.318,-0.02,-2.419,0.213,-1.29
2915.0,-13.744,0.318,-0.02,-2.419,0.213,-1.29
2919.0,-13.396,0.208,0.007,-2.419,0.213,-1.186
2923.0,-13.396,0.208,0.007,-2.475,0.113,-1.186
2927.0,-13.396,0.208,0.007,-2.475,0.113,-1.186
2931.0,-13.524,0.04,0.004,-2.528,0.019,-1.061
2935.0,-13.524,0.04,0.004,-2.528,0.019,-1.061
2939.0,-13.647,-0.165,0.088,-2.528,-0.072,-0.922
2943.0,-13.647,-0.165,0.088,-2.579,-0.072,-0.922
2947.0,-13.647,-0.165,0.088,-2.579,-0.072,-0.922
2951.0,-13.554,-0.308,0.306,-2.62,-0.166,-0.786
2955.0,-13.554,-0.308,0.306,-2.62,-0.166,-0.786
2960.0,-13.169,-0.569,0.12,-2.642,-0.262,-0.673
2964.0,-13.169,-0.569,0.12,-2.642,-0.262,-0.673
2968.0,-13.158,-0.496,0.095,-2.642,-0.262,-0.673
2972.0,-13.158,-0.496,0.095,-2.646,-0.32,-0.605
2976.0,-13.158,-0.496,0.095,-2.646,-0.32,-0.605
2980.0,-13.046,-0.124,0.32,-2.642,-0.367,-0.566
2985.0,-13.046,-0.124,0.32,-2.642,-0.367,-0.566
2989.0,-12.8,0.565,0.625,-2.637,-0.437,-0.518
2993.0,-12.8,0.565,0.625,-2.637,-0.437,-0.518
2997.0,-12.8,0.565,0.625,-2.637,-0.437,-0.518
