deltaTime,Acc_X,Acc_Y,Acc_Z,Gyro_X,Gyro_Y,Gyro_Z
0.0,-8.315,-4.71,6.995,0.27,0.224,0.003
3.0,-8.315,-4.71,6.995,0.27,0.224,0.003
6.0,-8.342,-4.815,7.115,0.293,0.198,-0.007
9.0,-8.342,-4.815,7.115,0.293,0.198,-0.007
12.0,-8.342,-4.815,7.115,0.293,0.198,-0.007
15.0,-8.213,-4.855,7.148,0.342,0.155,-0.036
18.0,-8.213,-4.855,7.148,0.342,0.155,-0.036
21.0,-8.213,-4.855,7.148,0.342,0.155,-0.036
24.0,-8.019,-4.865,6.836,0.413,0.115,-0.073
27.0,-8.019,-4.865,6.836,0.413,0.115,-0.073
30.0,-8.019,-4.865,6.836,0.413,0.115,-0.073
33.0,-8.019,-4.874,6.557,0.413,0.115,-0.073
36.0,-7.935,-4.874,6.557,0.479,0.113,-0.102
40.0,-7.935,-4.874,6.557,0.479,0.113,-0.102
44.0,-7.908,-4.816,6.351,0.479,0.113,-0.122
47.0,-7.908,-4.816,6.351,0.518,0.141,-0.122
51.0,-7.908,-4.816,6.351,0.518,0.141,-0.122
55.0,-7.837,-4.714,6.218,0.528,0.171,-0.145
59.0,-7.837,-4.714,6.218,0.528,0.171,-0.145
62.0,-7.837,-4.714,6.218,0.528,0.171,-0.145
66.0,-7.765,-4.621,6.333,0.519,0.193,-0.173
70.0,-7.765,-4.621,6.333,0.519,0.193,-0.173
73.0,-7.703,-4.494,6.344,0.505,0.199,-0.206
77.0,-7.703,-4.494,6.344,0.505,0.199,-0.206
81.0,-7.703,-4.494,6.344,0.505,0.199,-0.206
85.0,-7.769,-4.38,6.406,0.478,0.196,-0.23
88.0,-7.769,-4.38,6.406,0.478,0.196,-0.23
92.0,-7.769,-4.38,6.406,0.478,0.196,-0.23
96.0,-7.807,-4.32,6.544,0.426,0.196,-0.231
100.0,-7.807,-4.32,6.544,0.426,0.196,-0.231
103.0,-7.717,-4.363,6.783,0.36,0.194,-0.221
107.0,-7.717,-4.363,6.783,0.36,0.194,-0.221
111.0,-7.717,-4.363,6.783,0.36,0.194,-0.221
115.0,-7.479,-4.472,6.954,0.301,0.178,-0.221
119.0,-7.479,-4.472,6.954,0.301,0.178,-0.221
123.0,-7.186,-4.609,7.07,0.301,0.178,-0.238
126.0,-7.186,-4.609,7.07,0.273,0.162,-0.238
130.0,-7.186,-4.609,7.07,0.273,0.162,-0.238
134.0,-7.133,-4.737,7.274,0.277,0.156,-0.26
138.0,-7.133,-4.737,7.274,0.277,0.156,-0.26
142.0,-7.133,-4.737,7.527,0.277,0.156,-0.26
145.0,-7.076,-4.834,7.527,0.331,0.168,-0.272
149.0,-7.076,-4.834,7.527,0.331,0.168,-0.272
153.0,-7.37,-4.81,7.225,0.412,0.149,-0.307
157.0,-7.37,-4.81,7.225,0.412,0.149,-0.307
161.0,-7.37,-4.81,7.225,0.412,0.149,-0.307
165.0,-7.706,-4.372,6.86,0.537,0.073,-0.317
168.0,-7.706,-4.372,6.86,0.537,0.073,-0.317
172.0,-8.03,-3.66,6.384,0.597,0.019,-0.308
176.0,-8.03,-3.66,6.384,0.597,0.019,-0.308
180.0,-8.03,-3.66,6.384,0.597,0.019,-0.308
184.0,-8.19,-3.291,6.173,0.529,-0.027,-0.292
188.0,-8.19,-3.291,6.173,0.529,-0.027,-0.292
191.0,-8.031,-3.501,5.572,0.529,-0.027,-0.292
195.0,-8.031,-3.501,5.572,0.375,-0.152,-0.285
199.0,-8.031,-3.501,5.572,0.375,-0.152,-0.285
203.0,-7.291,-3.701,6.924,0.345,-0.242,-0.301
207.0,-7.291,-3.701,6.924,0.345,-0.242,-0.301
211.0,-7.291,-2.915,6.153,0.345,-0.242,-0.301
215.0,-7.561,-2.915,6.153,0.291,-0.094,-0.319
219.0,-7.561,-2.915,6.153,0.291,-0.094,-0.319
223.0,-7.652,-3.245,6.255,0.155,-0.112,-0.333
227.0,-7.652,-3.245,6.255,0.155,-0.112,-0.333
230.0,-7.652,-3.245,6.233,0.155,-0.112,-0.333
234.0,-7.624,-3.458,6.233,0.121,-0.132,-0.323
238.0,-7.624,-3.458,6.233,0.121,-0.132,-0.323
242.0,-7.281,-3.346,6.194,0.149,-0.13,-0.304
246.0,-7.281,-3.346,6.194,0.149,-0.13,-0.304
250.0,-7.281,-3.346,6.194,0.149,-0.13,-0.304
254.0,-6.86,-3.312,6.24,0.167,-0.11,-0.293
258.0,-6.86,-3.312,6.24,0.167,-0.11,-0.293
262.0,-6.562,-3.268,6.232,0.187,-0.088,-0.296
266.0,-6.562,-3.268,6.232,0.187,-0.088,-0.296
270.0,-6.562,-3.268,6.232,0.187,-0.088,-0.296
273.0,-6.522,-3.19,6.189,0.209,-0.052,-0.287
277.0,-6.522,-3.19,6.189,0.209,-0.052,-0.287
281.0,-6.669,-3.217,6.062,0.237,-0.01,-0.265
285.0,-6.669,-3.217,6.062,0.237,-0.01,-0.265
289.0,-6.669,-3.217,6.062,0.237,-0.01,-0.265
293.0,-7.046,-3.217,6.103,0.274,0.02,-0.242
297.0,-7.046,-3.217,6.103,0.274,0.02,-0.242
301.0,-7.359,-3.144,6.316,0.314,0.01,-0.234
304.0,-7.359,-3.144,6.316,0.314,0.01,-0.234
308.0,-7.359,-3.144,6.316,0.314,0.01,-0.234
312.0,-7.47,-2.947,6.407,0.345,-0.051,-0.236
316.0,-7.47,-2.947,6.407,0.345,-0.051,-0.236
320.0,-7.513,-2.881,6.245,0.345,-0.051,-0.213
324.0,-7.513,-2.881,6.245,0.333,-0.12,-0.213
328.0,-7.513,-2.881,6.245,0.333,-0.12,-0.213
332.0,-7.406,-2.97,6.046,0.281,-0.159,-0.161
336.0,-7.406,-2.97,6.046,0.281,-0.159,-0.161
339.0,-7.0,-3.189,5.922,0.281,-0.159,-0.161
343.0,-7.0,-3.189,5.922,0.235,-0.173,-0.107
347.0,-7.0,-3.189,5.922,0.235,-0.173,-0.107
351.0,-6.414,-3.514,6.087,0.237,-0.171,-0.083
355.0,-6.414,-3.514,6.087,0.237,-0.171,-0.083
359.0,-6.414,-3.605,6.124,0.237,-0.171,-0.083
363.0,-5.99,-3.605,6.124,0.309,-0.166,-0.102
367.0,-5.99,-3.605,6.124,0.309,-0.166,-0.102
371.0,-5.908,-3.611,6.049,0.406,-0.145,-0.12
375.0,-5.908,-3.611,6.049,0.406,-0.145,-0.12
378.0,-5.908,-3.611,6.129,0.406,-0.145,-0.12
382.0,-6.045,-3.851,6.129,0.501,-0.09,-0.113
386.0,-6.045,-3.851,6.129,0.501,-0.09,-0.113
390.0,-6.266,-3.873,6.344,0.63,-0.041,-0.108
394.0,-6.266,-3.873,6.344,0.63,-0.041,-0.108
398.0,-6.266,-3.873,6.344,0.63,-0.041,-0.108
402.0,-6.542,-3.589,6.667,0.756,-0.017,-0.115
406.0,-6.542,-3.589,6.667,0.756,-0.017,-0.115
410.0,-6.899,-3.301,6.89,0.83,-0.032,-0.115
414.0,-6.899,-3.301,6.89,0.83,-0.032,-0.115
418.0,-6.899,-3.301,6.89,0.83,-0.032,-0.115
421.0,-7.13,-3.098,6.832,0.841,-0.076,-0.1
425.0,-7.13,-3.098,6.832,0.841,-0.076,-0.1
429.0,-6.986,-3.094,6.598,0.795,-0.129,-0.074
433.0,-6.986,-3.094,6.598,0.795,-0.129,-0.074
437.0,-6.986,-3.094,6.598,0.795,-0.129,-0.074
441.0,-6.676,-3.103,6.525,0.723,-0.151,-0.066
445.0,-6.676,-3.103,6.525,0.723,-0.151,-0.066
449.0,-6.401,-2.944,6.452,0.642,-0.17,-0.085
453.0,-6.401,-2.944,6.452,0.642,-0.17,-0.085
457.0,-6.401,-2.944,6.452,0.642,-0.17,-0.085
461.0,-6.251,-2.851,6.384,0.549,-0.192,-0.122
464.0,-6.251,-2.851,6.384,0.549,-0.192,-0.122
468.0,-6.156,-2.784,6.441,0.478,-0.222,-0.167
472.0,-6.156,-2.784,6.441,0.478,-0.222,-0.167
476.0,-6.156,-2.784,6.441,0.478,-0.222,-0.167
480.0,-6.12,-2.734,6.288,0.437,-0.269,-0.201
484.0,-6.12,-2.734,6.288,0.437,-0.269,-0.201
488.0,-6.123,-2.792,6.072,0.437,-0.303,-0.215
492.0,-6.123,-2.792,6.072,0.403,-0.303,-0.215
496.0,-6.123,-2.792,6.072,0.403,-0.303,-0.215
500.0,-6.124,-2.893,6.07,0.376,-0.317,-0.213
503.0,-6.124,-2.893,6.07,0.376,-0.317,-0.213
507.0,-6.123,-2.9,6.19,0.376,-0.317,-0.217
511.0,-6.123,-2.9,6.19,0.344,-0.33,-0.217
515.0,-6.123,-2.9,6.19,0.344,-0.33,-0.217
519.0,-6.062,-2.971,6.157,0.299,-0.353,-0.219
523.0,-6.062,-2.971,6.157,0.299,-0.353,-0.219
527.0,-6.096,-3.14,6.133,0.299,-0.353,-0.219
531.0,-6.096,-3.14,6.133,0.252,-0.365,-0.209
535.0,-6.096,-3.14,6.133,0.252,-0.365,-0.209
539.0,-6.072,-3.258,6.198,0.239,-0.365,-0.198
543.0,-6.072,-3.258,6.198,0.239,-0.365,-0.198
546.0,-6.072,-3.258,6.077,0.239,-0.365,-0.198
550.0,-5.844,-3.225,6.077,0.263,-0.37,-0.208
554.0,-5.844,-3.225,6.077,0.263,-0.37,-0.208
558.0,-5.634,-3.023,5.701,0.3,-0.366,-0.237
562.0,-5.634,-3.023,5.701,0.3,-0.366,-0.237
566.0,-5.634,-3.023,5.701,0.3,-0.366,-0.237
570.0,-5.744,-2.724,5.556,0.294,-0.315,-0.246
574.0,-5.744,-2.724,5.556,0.294,-0.315,-0.246
578.0,-6.002,-2.582,5.549,0.229,-0.238,-0.231
582.0,-6.002,-2.582,5.549,0.229,-0.238,-0.231
586.0,-6.002,-2.582,5.549,0.229,-0.238,-0.231
589.0,-6.053,-2.53,5.763,0.143,-0.172,-0.211
593.0,-6.053,-2.53,5.763,0.143,-0.172,-0.211
597.0,-5.955,-2.631,6.2,0.063,-0.127,-0.207
601.0,-5.955,-2.631,6.2,0.063,-0.127,-0.207
605.0,-5.955,-2.631,6.2,0.063,-0.127,-0.207
609.0,-5.687,-2.758,6.592,0.014,-0.11,-0.232
613.0,-5.687,-2.758,6.592,0.014,-0.11,-0.232
617.0,-5.589,-2.837,6.769,0.004,-0.104,-0.256
621.0,-5.589,-2.837,6.769,0.004,-0.104,-0.256
625.0,-5.589,-2.837,6.769,0.004,-0.104,-0.256
628.0,-5.734,-2.88,6.783,0.015,-0.083,-0.255
632.0,-5.734,-2.88,6.783,0.015,-0.083,-0.255
636.0,-5.758,-2.787,6.68,0.031,-0.047,-0.241
640.0,-5.758,-2.787,6.68,0.031,-0.047,-0.241
644.0,-5.758,-2.787,6.68,0.031,-0.047,-0.241
648.0,-5.794,-2.677,6.821,0.02,0.004,-0.229
652.0,-5.794,-2.677,6.821,0.02,0.004,-0.229
656.0,-5.716,-2.57,7.097,0.02,0.034,-0.251
659.0,-5.716,-2.57,7.097,0.007,0.034,-0.251
663.0,-5.716,-2.57,7.097,0.007,0.034,-0.251
667.0,-5.533,-2.486,7.342,0.031,0.031,-0.301
671.0,-5.533,-2.486,7.342,0.031,0.031,-0.301
675.0,-5.533,-2.486,7.456,0.031,0.031,-0.301
679.0,-5.531,-2.524,7.456,0.086,0.026,-0.33
682.0,-5.531,-2.524,7.456,0.086,0.026,-0.33
686.0,-5.713,-2.623,7.406,0.168,0.036,-0.31
690.0,-5.713,-2.623,7.406,0.168,0.036,-0.31
694.0,-5.713,-2.623,7.406,0.168,0.036,-0.31
698.0,-5.927,-2.672,7.431,0.257,0.073,-0.24
701.0,-5.927,-2.672,7.431,0.257,0.073,-0.24
705.0,-5.945,-2.621,7.603,0.322,0.118,-0.154
709.0,-5.945,-2.621,7.603,0.322,0.118,-0.154
713.0,-5.945,-2.621,7.603,0.322,0.118,-0.154
717.0,-5.76,-2.608,7.663,0.365,0.125,-0.091
721.0,-5.76,-2.608,7.663,0.365,0.125,-0.091
724.0,-5.445,-2.695,7.833,0.365,0.125,-0.091
728.0,-5.445,-2.695,7.833,0.384,0.104,-0.065
732.0,-5.445,-2.695,7.833,0.384,0.104,-0.065
736.0,-5.591,-2.95,7.629,0.407,0.075,-0.055
740.0,-5.591,-2.95,7.629,0.407,0.075,-0.055
744.0,-5.591,-2.95,7.629,0.407,0.075,-0.055
747.0,-5.892,-3.067,7.571,0.439,0.054,-0.04
751.0,-5.892,-3.067,7.571,0.439,0.054,-0.04
755.0,-6.1,-3.085,7.412,0.465,0.039,-0.005
759.0,-6.1,-3.085,7.412,0.465,0.039,-0.005
763.0,-6.1,-3.085,7.412,0.465,0.039,-0.005
766.0,-6.038,-2.966,7.391,0.486,0.019,0.039
770.0,-6.038,-2.966,7.391,0.486,0.019,0.039
774.0,-5.925,-2.918,7.47,0.486,0.019,0.039
778.0,-5.925,-2.918,7.47,0.486,0.002,0.081
781.0,-5.925,-2.918,7.47,0.486,0.002,0.081
785.0,-5.926,-3.019,7.543,0.472,-0.011,0.102
789.0,-5.926,-3.019,7.543,0.472,-0.011,0.102
793.0,-5.926,-3.019,7.543,0.472,-0.011,0.102
797.0,-6.022,-3.081,7.638,0.461,-0.027,0.095
800.0,-6.022,-3.081,7.638,0.461,-0.027,0.095
804.0,-6.068,-3.165,7.671,0.462,-0.057,0.074
808.0,-6.068,-3.165,7.671,0.462,-0.057,0.074
812.0,-6.068,-3.165,7.671,0.462,-0.057,0.074
816.0,-6.181,-3.293,7.674,0.473,-0.085,0.049
819.0,-6.181,-3.293,7.674,0.473,-0.085,0.049
823.0,-6.457,-3.334,7.72,0.473,-0.085,0.025
827.0,-6.457,-3.334,7.72,0.482,-0.103,0.025
831.0,-6.457,-3.334,7.72,0.482,-0.103,0.025
835.0,-6.621,-3.33,7.725,0.485,-0.119,0.002
839.0,-6.621,-3.33,7.725,0.485,-0.119,0.002
842.0,-6.621,-3.33,7.725,0.485,-0.119,0.002
846.0,-6.487,-3.337,7.807,0.488,-0.141,-0.026
850.0,-6.487,-3.337,7.807,0.488,-0.141,-0.026
854.0,-6.312,-3.375,8.056,0.499,-0.165,-0.068
858.0,-6.312,-3.375,8.056,0.499,-0.165,-0.068
862.0,-6.312,-3.375,8.056,0.499,-0.165,-0.068
866.0,-6.273,-3.354,8.305,0.535,-0.187,-0.125
870.0,-6.273,-3.354,8.305,0.535,-0.187,-0.125
874.0,-6.334,-3.257,8.384,0.601,-0.209,-0.183
877.0,-6.334,-3.257,8.384,0.601,-0.209,-0.183
881.0,-6.334,-3.257,8.384,0.601,-0.209,-0.183
885.0,-6.561,-3.199,8.494,0.665,-0.22,-0.222
889.0,-6.561,-3.199,8.494,0.665,-0.22,-0.222
893.0,-6.845,-3.19,8.683,0.716,-0.225,-0.243
897.0,-6.845,-3.19,8.683,0.716,-0.225,-0.243
901.0,-6.845,-3.19,8.683,0.716,-0.225,-0.243
905.0,-6.943,-2.693,8.98,0.739,-0.237,-0.266
909.0,-6.943,-2.693,8.98,0.739,-0.237,-0.266
913.0,-6.803,-2.612,9.358,0.691,-0.254,-0.315
917.0,-6.803,-2.612,9.358,0.691,-0.254,-0.315
920.0,-6.803,-2.612,9.358,0.691,-0.254,-0.315
924.0,-6.628,-2.905,9.581,0.674,-0.285,-0.364
928.0,-6.628,-2.905,9.581,0.674,-0.285,-0.364
932.0,-6.611,-3.21,9.689,0.674,-0.314,-0.406
936.0,-6.611,-3.21,9.689,0.767,-0.314,-0.406
940.0,-6.611,-3.21,9.689,0.767,-0.314,-0.406
944.0,-6.745,-3.237,9.771,0.95,-0.345,-0.432
948.0,-6.745,-3.237,9.771,0.95,-0.345,-0.432
952.0,-6.871,-3.169,9.917,0.95,-0.345,-0.44
956.0,-6.871,-3.169,9.917,1.151,-0.405,-0.44
959.0,-6.871,-3.169,9.917,1.151,-0.405,-0.44
963.0,-6.983,-3.151,10.166,1.323,-0.499,-0.465
967.0,-6.983,-3.151,10.166,1.323,-0.499,-0.465
971.0,-7.046,-2.98,10.481,1.323,-0.499,-0.518
975.0,-7.046,-2.98,10.481,1.479,-0.615,-0.518
979.0,-7.046,-2.98,10.481,1.479,-0.615,-0.518
983.0,-6.947,-2.655,10.506,1.618,-0.745,-0.589
987.0,-6.947,-2.655,10.506,1.618,-0.745,-0.589
991.0,-6.797,-2.612,10.489,1.618,-0.863,-0.652
995.0,-6.797,-2.612,10.489,1.73,-0.863,-0.652
999.0,-6.797,-2.612,10.489,1.73,-0.863,-0.652
1003.0,-6.786,-2.856,10.592,1.827,-0.954,-0.692
1007.0,-6.786,-2.856,10.592,1.827,-0.954,-0.692
1011.0,-6.944,-3.374,11.031,1.935,-1.022,-0.71
1016.0,-6.944,-3.374,11.031,1.935,-1.022,-0.71
1020.0,-6.944,-3.374,11.031,1.935,-1.022,-0.71
1024.0,-7.248,-4.2,11.721,2.092,-1.095,-0.736
1028.0,-7.248,-4.2,11.721,2.092,-1.095,-0.736
1032.0,-7.56,-4.795,12.105,2.324,-1.186,-0.804
1036.0,-7.56,-4.795,12.105,2.324,-1.186,-0.804
1040.0,-7.56,-4.795,12.296,2.324,-1.186,-0.804
1044.0,-7.701,-5.139,12.296,2.63,-1.279,-0.905
1048.0,-7.701,-5.139,12.296,2.63,-1.279,-0.905
1052.0,-7.671,-5.173,12.311,2.991,-1.363,-1.015
1056.0,-7.671,-5.173,12.311,2.991,-1.363,-1.015
1060.0,-7.527,-4.783,12.136,2.991,-1.435,-1.111
1065.0,-7.527,-4.783,12.136,3.379,-1.435,-1.111
1069.0,-7.527,-4.783,12.136,3.379,-1.435,-1.111
1073.0,-7.328,-4.25,11.879,3.758,-1.512,-1.165
1077.0,-7.328,-4.25,11.879,3.758,-1.512,-1.165
1081.0,-7.02,-3.786,11.571,4.102,-1.612,-1.193
1085.0,-7.02,-3.786,11.571,4.102,-1.612,-1.193
1089.0,-7.02,-3.786,11.571,4.102,-1.612,-1.193
1093.0,-6.646,-3.416,11.273,4.403,-1.725,-1.216
1097.0,-6.646,-3.416,11.273,4.403,-1.725,-1.216
1101.0,-6.226,-2.971,10.917,4.659,-1.836,-1.236
1105.0,-6.226,-2.971,10.917,4.659,-1.836,-1.236
1109.0,-5.766,-2.514,10.773,4.659,-1.836,-1.236
1113.0,-5.766,-2.514,10.773,4.864,-1.938,-1.253
1118.0,-5.766,-2.514,10.773,4.864,-1.938,-1.253
1122.0,-5.359,-1.952,10.574,4.981,-2.041,-1.273
1126.0,-5.359,-1.952,10.574,4.981,-2.041,-1.273
1130.0,-4.958,-1.204,10.186,4.995,-2.138,-1.297
1134.0,-4.958,-1.204,10.186,4.995,-2.138,-1.297
1138.0,-4.958,-1.204,10.186,4.995,-2.138,-1.297
1142.0,-4.574,-0.418,9.76,4.995,-2.213,-1.315
1146.0,-4.574,-0.418,9.76,4.995,-2.213,-1.315
1150.0,-4.321,0.242,9.382,4.994,-2.259,-1.326
1154.0,-4.321,0.242,9.382,4.994,-2.259,-1.326
1158.0,-4.321,0.242,9.382,4.994,-2.259,-1.326
1162.0,-4.091,0.623,9.258,4.941,-2.296,-1.351
1166.0,-4.091,0.623,9.258,4.941,-2.296,-1.351
1170.0,-3.827,0.882,9.085,4.777,-2.345,-1.417
1173.0,-3.827,0.882,9.085,4.777,-2.345,-1.417
1177.0,-3.827,0.882,9.085,4.777,-2.345,-1.417
1181.0,-3.477,1.135,8.618,4.574,-2.395,-1.514
1185.0,-3.477,1.135,8.618,4.574,-2.395,-1.514
1189.0,-2.994,1.302,8.174,4.356,-2.416,-1.613
1193.0,-2.994,1.302,8.174,4.356,-2.416,-1.613
1197.0,-2.994,1.302,8.174,4.356,-2.416,-1.613
1201.0,-2.681,1.393,7.799,4.144,-2.404,-1.685
1205.0,-2.681,1.393,7.799,4.144,-2.404,-1.685
1209.0,-2.498,1.367,7.208,3.96,-2.382,-1.725
1213.0,-2.498,1.367,7.208,3.96,-2.382,-1.725
1216.0,-2.498,1.367,7.208,3.96,-2.382,-1.725
1220.0,-2.17,1.141,6.678,3.81,-2.343,-1.75
1224.0,-2.17,1.141,6.678,3.81,-2.343,-1.75
1228.0,-1.813,0.733,6.184,3.81,-2.343,-1.782
1232.0,-1.813,0.733,6.184,3.705,-2.271,-1.782
1236.0,-1.813,0.733,6.184,3.705,-2.271,-1.782
1240.0,-1.623,0.402,5.81,3.649,-2.172,-1.833
1244.0,-1.623,0.402,5.81,3.649,-2.172,-1.833
1248.0,-1.563,0.073,5.338,3.649,-2.172,-1.833
1252.0,-1.563,0.073,5.338,3.631,-2.066,-1.912
1255.0,-1.563,0.073,5.338,3.631,-2.066,-1.912
1259.0,-1.633,0.048,4.896,3.626,-1.957,-2.018
1263.0,-1.633,0.048,4.896,3.626,-1.957,-2.018
1267.0,-1.633,0.333,4.348,3.626,-1.957,-2.018
1271.0,-1.805,0.333,4.348,3.604,-1.854,-2.134
1275.0,-1.805,0.333,4.348,3.604,-1.854,-2.134
1279.0,-1.871,0.887,3.766,3.54,-1.763,-2.234
1283.0,-1.871,0.887,3.766,3.54,-1.763,-2.234
1287.0,-1.871,0.887,3.06,3.54,-1.763,-2.234
1291.0,-1.727,1.327,3.06,3.419,-1.668,-2.293
1295.0,-1.727,1.327,3.06,3.419,-1.668,-2.293
1298.0,-1.519,1.717,2.363,3.241,-1.547,-2.326
1302.0,-1.519,1.717,2.363,3.241,-1.547,-2.326
1306.0,-1.519,1.717,2.363,3.241,-1.547,-2.326
1310.0,-1.391,2.084,1.826,3.011,-1.41,-2.35
1314.0,-1.391,2.084,1.826,3.011,-1.41,-2.35
1318.0,-1.419,2.48,1.406,2.735,-1.277,-2.38
1322.0,-1.419,2.48,1.406,2.735,-1.277,-2.38
1326.0,-1.419,2.48,1.406,2.735,-1.277,-2.38
1330.0,-1.495,2.87,1.027,2.418,-1.15,-2.413
1334.0,-1.495,2.87,1.027,2.418,-1.15,-2.413
1338.0,-1.612,3.412,0.743,2.078,-1.017,-2.441
1341.0,-1.612,3.412,0.743,2.078,-1.017,-2.441
1345.0,-1.612,3.412,0.743,2.078,-1.017,-2.441
1349.0,-1.856,4.184,0.626,1.744,-0.883,-2.44
1353.0,-1.856,4.184,0.626,1.744,-0.883,-2.44
1357.0,-2.402,5.267,0.96,1.435,-0.76,-2.362
1361.0,-2.402,5.267,0.96,1.435,-0.76,-2.362
1365.0,-2.402,5.267,0.96,1.435,-0.76,-2.362
1369.0,-3.277,6.306,1.515,1.177,-0.676,-2.169
1373.0,-3.277,6.306,1.515,1.177,-0.676,-2.169
1377.0,-4.173,7.31,2.186,0.98,-0.646,-1.88
1380.0,-4.173,7.31,2.186,0.98,-0.646,-1.88
1384.0,-4.173,7.31,2.186,0.98,-0.646,-1.88
1388.0,-5.07,8.307,2.746,0.844,-0.661,-1.538
1392.0,-5.07,8.307,2.746,0.844,-0.661,-1.538
1396.0,-5.739,9.226,3.191,0.844,-0.71,-1.16
1400.0,-5.739,9.226,3.191,0.745,-0.71,-1.16
1404.0,-5.739,9.226,3.191,0.745,-0.71,-1.16
1408.0,-6.16,9.865,3.489,0.661,-0.766,-0.771
1412.0,-6.16,9.865,3.489,0.661,-0.766,-0.771
1416.0,-6.59,10.548,3.518,0.661,-0.766,-0.408
1420.0,-6.59,10.548,3.518,0.58,-0.806,-0.408
1424.0,-6.59,10.548,3.518,0.58,-0.806,-0.408
1428.0,-7.021,11.517,3.388,0.467,-0.82,-0.043
1432.0,-7.021,11.517,3.388,0.467,-0.82,-0.043
1436.0,-7.248,12.593,3.441,0.467,-0.801,0.362
1440.0,-7.248,12.593,3.441,0.291,-0.801,0.362
1443.0,-7.248,12.593,3.441,0.291,-0.801,0.362
1447.0,-7.541,13.605,3.657,0.058,-0.767,0.788
1451.0,-7.541,13.605,3.657,0.058,-0.767,0.788
1455.0,-7.835,14.499,3.916,0.058,-0.767,1.194
1459.0,-7.835,14.499,3.916,-0.212,-0.737,1.194
1463.0,-7.835,14.499,3.916,-0.212,-0.737,1.194
1467.0,-8.196,15.36,4.382,-0.494,-0.706,1.535
1471.0,-8.196,15.36,4.382,-0.494,-0.706,1.535
1475.0,-8.521,16.013,5.131,-0.494,-0.676,1.849
1479.0,-8.521,16.013,5.131,-0.78,-0.676,1.849
1483.0,-8.521,16.013,5.131,-0.78,-0.676,1.849
1487.0,-8.73,16.206,6.166,-1.05,-0.633,2.178
1491.0,-8.73,16.206,6.166,-1.05,-0.633,2.178
1495.0,-9.197,16.073,7.42,-1.258,-0.593,2.506
1499.0,-9.197,16.073,7.42,-1.258,-0.593,2.506
1503.0,-9.197,16.073,7.42,-1.258,-0.593,2.506
1507.0,-10.148,15.954,8.457,-1.366,-0.598,2.847
1511.0,-10.148,15.954,8.457,-1.366,-0.598,2.847
1515.0,-11.136,15.748,8.981,-1.373,-0.652,3.227
1519.0,-11.136,15.748,8.981,-1.373,-0.652,3.227
1523.0,-11.136,15.748,8.981,-1.373,-0.652,3.227
1527.0,-11.791,15.523,9.274,-1.316,-0.736,3.653
1531.0,-11.791,15.523,9.274,-1.316,-0.736,3.653
1536.0,-12.052,15.514,9.279,-1.229,-0.83,4.118
1540.0,-12.052,15.514,9.279,-1.229,-0.83,4.118
1544.0,-12.051,15.74,9.205,-1.229,-0.83,4.118
1548.0,-12.051,15.74,9.205,-1.137,-0.923,4.599
1552.0,-12.051,15.74,9.205,-1.137,-0.923,4.599
1556.0,-11.77,15.97,8.964,-1.062,-1.024,4.963
1560.0,-11.77,15.97,8.964,-1.062,-1.024,4.963
1564.0,-11.187,15.817,8.783,-1.031,-1.138,5.013
1568.0,-11.187,15.817,8.783,-1.031,-1.138,5.013
1572.0,-11.187,15.817,8.783,-1.031,-1.138,5.013
1576.0,-10.617,15.167,8.675,-1.035,-1.255,5.013
1580.0,-10.617,15.167,8.675,-1.035,-1.255,5.013
1584.0,-10.076,14.074,8.841,-1.053,-1.367,5.013
1589.0,-10.076,14.074,8.841,-1.053,-1.367,5.013
1593.0,-10.076,14.074,9.144,-1.053,-1.367,5.013
1597.0,-9.443,12.641,9.144,-1.061,-1.481,5.013
1601.0,-9.443,12.641,9.144,-1.061,-1.481,5.013
1605.0,-8.623,11.161,9.541,-1.043,-1.6,5.013
1609.0,-8.623,11.161,9.541,-1.043,-1.6,5.013
1613.0,-8.623,9.934,9.753,-1.043,-1.6,5.013
1617.0,-7.808,9.934,9.753,-0.989,-1.73,5.013
1620.0,-7.808,9.934,9.753,-0.989,-1.73,5.013
1624.0,-6.972,8.806,9.467,-0.93,-1.865,5.013
1628.0,-6.972,8.806,9.467,-0.93,-1.865,5.013
1632.0,-6.972,8.806,8.877,-0.93,-1.865,5.013
1636.0,-6.099,7.789,8.877,-0.917,-1.964,5.013
1640.0,-6.099,7.789,8.877,-0.917,-1.964,5.013
1644.0,-5.353,6.756,8.305,-0.975,-2.016,5.013
1648.0,-5.353,6.756,8.305,-0.975,-2.016,5.013
1652.0,-5.353,6.756,8.305,-0.975,-2.016,5.013
1656.0,-4.909,5.852,7.901,-1.087,-2.041,5.013
1660.0,-4.909,5.852,7.901,-1.087,-2.041,5.013
1663.0,-4.692,5.059,7.6,-1.231,-2.072,5.013
1667.0,-4.692,5.059,7.6,-1.231,-2.072,5.013
1671.0,-4.692,5.059,7.6,-1.231,-2.072,5.013
1675.0,-4.42,3.967,6.842,-1.399,-2.123,5.013
1679.0,-4.42,3.967,6.842,-1.399,-2.123,5.013
1683.0,-4.047,2.902,5.852,-1.579,-2.153,5.013
1687.0,-4.047,2.902,5.852,-1.579,-2.153,5.013
1691.0,-4.047,2.902,5.852,-1.579,-2.153,5.013
1695.0,-3.705,2.232,5.176,-1.754,-2.135,5.013
1699.0,-3.705,2.232,5.176,-1.754,-2.135,5.013
1703.0,-3.412,1.659,4.762,-1.904,-2.102,5.013
1706.0,-3.412,1.659,4.762,-1.904,-2.102,5.013
1710.0,-3.412,1.659,4.762,-1.904,-2.102,5.013
1714.0,-2.897,0.756,4.031,-2.034,-2.075,5.013
1718.0,-2.897,0.756,4.031,-2.034,-2.075,5.013
1722.0,-2.127,-0.226,3.271,-2.162,-2.014,5.013
1726.0,-2.127,-0.226,3.271,-2.162,-2.014,5.013
1730.0,-2.127,-0.226,3.271,-2.162,-2.014,5.013
1734.0,-1.384,-1.076,2.587,-2.292,-1.911,5.013
1738.0,-1.384,-1.076,2.587,-2.292,-1.911,5.013
1742.0,-1.007,-1.79,1.89,-2.436,-1.767,5.013
1746.0,-1.007,-1.79,1.89,-2.436,-1.767,5.013
1750.0,-1.007,-1.79,1.89,-2.436,-1.767,5.013
1754.0,-1.15,-2.274,1.568,-2.599,-1.585,5.013
1758.0,-1.15,-2.274,1.568,-2.599,-1.585,5.013
1762.0,-1.772,-3.017,1.482,-2.768,-1.393,5.013
1766.0,-1.772,-3.017,1.482,-2.768,-1.393,5.013
1770.0,-1.772,-3.017,1.482,-2.768,-1.393,5.013
1774.0,-2.719,-4.335,1.362,-2.924,-1.217,5.013
1778.0,-2.719,-4.335,1.362,-2.924,-1.217,5.013
1782.0,-3.763,-6.839,1.546,-3.028,-1.041,5.013
1786.0,-3.763,-6.839,1.546,-3.028,-1.041,5.013
1790.0,-3.763,-6.839,1.546,-3.028,-1.041,5.013
1794.0,-5.292,-10.027,1.978,-2.982,-0.873,5.013
1798.0,-5.292,-10.027,1.978,-2.982,-0.873,5.013
1802.0,-7.192,-12.499,1.486,-2.685,-0.746,5.013
1806.0,-7.192,-12.499,1.486,-2.685,-0.746,5.013
1810.0,-8.493,-13.944,0.491,-2.685,-0.746,5.013
1814.0,-8.493,-13.944,0.491,-2.151,-0.633,5.013
1818.0,-8.493,-13.944,0.491,-2.151,-0.633,5.013
1822.0,-8.358,-14.344,-0.185,-1.493,-0.551,5.011
1827.0,-8.358,-14.344,-0.185,-1.493,-0.551,5.011
1831.0,-6.967,-14.592,-0.553,-0.847,-0.525,4.915
1835.0,-6.967,-14.592,-0.553,-0.847,-0.525,4.915
1839.0,-6.967,-14.592,-0.553,-0.847,-0.525,4.915
1843.0,-5.224,-14.773,-1.07,-0.273,-0.518,4.679
1847.0,-5.224,-14.773,-1.07,-0.273,-0.518,4.679
1852.0,-3.873,-15.284,-1.603,0.248,-0.498,4.389
1856.0,-3.873,-15.284,-1.603,0.248,-0.498,4.389
1860.0,-2.904,-15.6,-1.947,0.248,-0.498,4.038
1864.0,-2.904,-15.6,-1.947,0.734,-0.504,4.038
1868.0,-2.904,-15.6,-1.947,0.734,-0.504,4.038
1872.0,-1.925,-15.373,-2.05,1.159,-0.547,3.652
1876.0,-1.925,-15.373,-2.05,1.159,-0.547,3.652
1880.0,-0.712,-14.706,-1.905,1.486,-0.575,3.281
1884.0,-0.712,-14.706,-1.905,1.486,-0.575,3.281
1888.0,-0.712,-14.706,-1.905,1.486,-0.575,3.281
1892.0,0.688,-13.889,-1.495,1.679,-0.555,2.955
1896.0,0.688,-13.889,-1.495,1.679,-0.555,2.955
1900.0,2.186,-12.849,-0.902,1.73,-0.495,2.657
1904.0,2.186,-12.849,-0.902,1.73,-0.495,2.657
1908.0,2.186,-12.849,-0.902,1.73,-0.495,2.657
1912.0,3.476,-11.557,-0.302,1.646,-0.396,2.379
1916.0,3.476,-11.557,-0.302,1.646,-0.396,2.379
1920.0,4.443,-10.378,0.321,1.43,-0.259,2.129
1924.0,4.443,-10.378,0.321,1.43,-0.259,2.129
1928.0,4.443,-10.378,0.321,1.43,-0.259,2.129
1932.0,5.265,-9.587,0.845,1.109,-0.116,1.911
1936.0,5.265,-9.587,0.845,1.109,-0.116,1.911
1940.0,6.19,-8.874,1.479,0.735,0.048,1.732
1943.0,6.19,-8.874,1.479,0.735,0.048,1.732
1947.0,6.19,-8.874,1.479,0.735,0.048,1.732
1951.0,5.932,-8.598,1.72,0.361,0.337,1.588
1955.0,5.932,-8.598,1.72,0.361,0.337,1.588
1958.0,6.178,-7.759,2.077,0.361,0.337,1.588
1962.0,6.178,-7.759,2.077,0.109,0.344,1.474
1966.0,6.178,-7.759,2.077,0.109,0.344,1.474
1970.0,5.867,-7.12,2.183,-0.08,0.472,1.49
1973.0,5.867,-7.12,2.183,-0.08,0.472,1.49
1977.0,5.867,-7.12,2.183,-0.08,0.472,1.49
1981.0,5.332,-6.703,2.155,-0.162,0.634,1.603
1985.0,5.332,-6.703,2.155,-0.162,0.634,1.603
1989.0,4.799,-6.373,2.283,-0.152,0.786,1.795
1993.0,4.799,-6.373,2.283,-0.152,0.786,1.795
1996.0,4.799,-6.373,2.283,-0.152,0.786,1.795
2000.0,4.171,-6.096,2.755,-0.074,0.921,2.035
2004.0,4.171,-6.096,2.755,-0.074,0.921,2.035
2008.0,3.539,-6.055,3.11,-0.074,0.921,2.28
2012.0,3.539,-6.055,3.11,0.036,1.021,2.28
2015.0,3.539,-6.055,3.11,0.036,1.021,2.28
2019.0,2.813,-5.964,3.22,0.147,1.092,2.485
2023.0,2.813,-5.964,3.22,0.147,1.092,2.485
2027.0,2.813,-5.964,3.22,0.147,1.092,2.485
2030.0,2.015,-5.727,3.157,0.239,1.153,2.637
2034.0,2.015,-5.727,3.157,0.239,1.153,2.637
2038.0,1.226,-5.52,3.06,0.239,1.222,2.75
2041.0,1.226,-5.52,3.06,0.302,1.222,2.75
2045.0,1.226,-5.52,3.06,0.302,1.222,2.75
2049.0,0.526,-5.292,2.817,0.337,1.305,2.82
2053.0,0.526,-5.292,2.817,0.337,1.305,2.82
2056.0,0.526,-5.292,2.817,0.337,1.305,2.82
2060.0,-0.15,-4.968,2.435,0.351,1.422,2.855
2064.0,-0.15,-4.968,2.435,0.351,1.422,2.855
2068.0,-0.857,-4.672,1.985,0.355,1.592,2.861
2072.0,-0.857,-4.672,1.985,0.355,1.592,2.861
2075.0,-0.857,-4.672,1.985,0.355,1.592,2.861
2079.0,-1.583,-4.281,1.428,0.365,1.813,2.841
2083.0,-1.583,-4.281,1.428,0.365,1.813,2.841
2087.0,-2.53,-3.708,0.878,0.365,1.813,2.816
2091.0,-2.53,-3.708,0.878,0.396,2.086,2.816
2095.0,-2.53,-3.708,0.878,0.396,2.086,2.816
2098.0,-3.714,-3.256,0.51,0.454,2.398,2.819
2102.0,-3.714,-3.256,0.51,0.454,2.398,2.819
2106.0,-3.714,-3.256,0.48,0.454,2.398,2.819
2110.0,-4.752,-3.194,0.48,0.544,2.713,2.849
2114.0,-4.752,-3.194,0.48,0.544,2.713,2.849
2117.0,-5.405,-3.452,0.581,0.687,2.998,2.886
2121.0,-5.405,-3.452,0.581,0.687,2.998,2.886
2125.0,-5.405,-3.452,0.581,0.687,2.998,2.886
2129.0,-5.821,-3.904,0.805,0.909,3.244,2.918
2133.0,-5.821,-3.904,0.805,0.909,3.244,2.918
2137.0,-6.21,-4.379,0.877,1.229,3.452,2.931
2140.0,-6.21,-4.379,0.877,1.229,3.452,2.931
2144.0,-6.21,-4.379,0.877,1.229,3.452,2.931
2148.0,-6.66,-4.747,0.735,1.633,3.642,2.921
2152.0,-6.66,-4.747,0.735,1.633,3.642,2.921
2156.0,-7.183,-5.082,0.409,1.633,3.642,2.921
2159.0,-7.183,-5.082,0.409,2.099,3.828,2.893
2163.0,-7.183,-5.082,0.409,2.099,3.828,2.893
2167.0,-7.72,-5.283,-0.28,2.59,4.026,2.851
2171.0,-7.72,-5.283,-0.28,2.59,4.026,2.851
2175.0,-7.72,-5.283,-0.28,2.59,4.026,2.851
2179.0,-8.294,-5.325,-0.931,3.064,4.269,2.796
2183.0,-8.294,-5.325,-0.931,3.064,4.269,2.796
2187.0,-8.903,-5.301,-1.321,3.497,4.555,2.732
2191.0,-8.903,-5.301,-1.321,3.497,4.555,2.732
2194.0,-8.903,-5.301,-1.321,3.497,4.555,2.732
2198.0,-9.581,-5.267,-1.468,3.879,4.852,2.66
2202.0,-9.581,-5.267,-1.468,3.879,4.852,2.66
2206.0,-10.248,-5.086,-1.655,4.194,5.007,2.572
2210.0,-10.248,-5.086,-1.655,4.194,5.007,2.572
2214.0,-10.248,-5.086,-1.655,4.194,5.007,2.572
2218.0,-11.011,-4.81,-1.653,4.436,5.015,2.472
2222.0,-11.011,-4.81,-1.653,4.436,5.015,2.472
2226.0,-11.802,-4.482,-1.445,4.604,5.015,2.376
2230.0,-11.802,-4.482,-1.445,4.604,5.015,2.376
2234.0,-11.802,-4.482,-1.445,4.604,5.015,2.376
2238.0,-12.38,-4.298,-0.712,4.705,5.015,2.288
2242.0,-12.38,-4.298,-0.712,4.705,5.015,2.288
2246.0,-12.845,-4.345,0.312,4.763,5.015,2.185
2250.0,-12.845,-4.345,0.312,4.763,5.015,2.185
2254.0,-12.845,-4.345,0.312,4.763,5.015,2.185
2258.0,-13.474,-4.573,1.455,4.807,5.015,2.031
2262.0,-13.474,-4.573,1.455,4.807,5.015,2.031
2266.0,-14.598,-4.72,2.926,4.855,5.015,1.809
2270.0,-14.598,-4.72,2.926,4.855,5.015,1.809
2273.0,-14.598,-4.72,2.926,4.855,5.015,1.809
2277.0,-16.041,-4.568,3.679,4.896,5.015,1.516
2281.0,-16.041,-4.568,3.679,4.896,5.015,1.516
2285.0,-17.602,-4.088,3.749,4.899,5.015,1.19
2289.0,-17.602,-4.088,3.749,4.899,5.015,1.19
2293.0,-17.602,-4.088,3.749,4.899,5.015,1.19
2297.0,-19.101,-3.383,3.954,4.818,5.015,0.852
2301.0,-19.101,-3.383,3.954,4.818,5.015,0.852
2305.0,-19.6,-2.512,3.711,4.613,5.015,0.506
2309.0,-19.6,-2.512,3.711,4.613,5.015,0.506
2313.0,-19.6,-2.512,3.711,4.613,5.015,0.506
2316.0,-19.6,-1.535,3.298,4.272,5.015,0.173
2320.0,-19.6,-1.535,3.298,4.272,5.015,0.173
2324.0,-19.6,-0.675,3.3,3.797,5.015,-0.123
2328.0,-19.6,-0.675,3.3,3.797,5.015,-0.123
2332.0,-19.6,-0.675,3.3,3.797,5.015,-0.123
2336.0,-19.6,0.072,3.953,3.216,5.015,-0.39
2340.0,-19.6,0.072,3.953,3.216,5.015,-0.39
2344.0,-19.6,0.904,4.697,2.564,5.006,-0.64
2348.0,-19.6,0.904,4.697,2.564,5.006,-0.64
2352.0,-19.6,0.904,4.697,2.564,5.006,-0.64
2356.0,-19.6,1.677,5.227,1.854,4.805,-0.844
2360.0,-19.6,1.677,5.227,1.854,4.805,-0.844
2364.0,-19.6,2.187,5.633,1.1,4.429,-0.976
2367.0,-19.6,2.187,5.633,1.1,4.429,-0.976
2371.0,-19.6,2.187,5.633,1.1,4.429,-0.976
2375.0,-19.34,2.338,5.972,0.332,4.055,-1.023
2379.0,-19.34,2.338,5.972,0.332,4.055,-1.023
2383.0,-18.965,2.112,6.192,0.332,4.055,-0.997
2387.0,-18.965,2.112,6.192,-0.413,3.699,-0.997
2391.0,-18.965,2.112,6.192,-0.413,3.699,-0.997
2395.0,-18.696,1.564,6.289,-1.091,3.37,-0.928
2399.0,-18.696,1.564,6.289,-1.091,3.37,-0.928
2403.0,-18.275,0.925,6.386,-1.091,3.059,-0.846
2407.0,-18.275,0.925,6.386,-1.673,3.059,-0.846
2411.0,-18.275,0.925,6.386,-1.673,3.059,-0.846
2415.0,-17.48,0.49,6.257,-2.159,2.759,-0.773
2419.0,-17.48,0.49,6.257,-2.159,2.759,-0.773
2423.0,-16.486,0.072,6.099,-2.566,2.482,-0.709
2427.0,-16.486,0.072,6.099,-2.566,2.482,-0.709
2431.0,-16.486,0.072,6.099,-2.566,2.482,-0.709
2435.0,-15.527,-0.367,5.876,-2.89,2.239,-0.651
2439.0,-15.527,-0.367,5.876,-2.89,2.239,-0.651
2443.0,-14.675,-0.935,5.679,-3.119,2.027,-0.593
2447.0,-14.675,-0.935,5.679,-3.119,2.027,-0.593
2451.0,-14.675,-0.935,5.679,-3.119,2.027,-0.593
2455.0,-14.13,-1.33,5.91,-3.262,1.816,-0.531
2459.0,-14.13,-1.33,5.91,-3.262,1.816,-0.531
2463.0,-13.719,-1.446,5.951,-3.352,1.563,-0.443
2468.0,-13.719,-1.446,5.951,-3.352,1.563,-0.443
2472.0,-13.338,-1.709,5.677,-3.352,1.563,-0.443
2476.0,-13.338,-1.709,5.677,-3.414,1.3,-0.323
2480.0,-13.338,-1.709,5.677,-3.414,1.3,-0.323
2484.0,-13.02,-2.003,5.341,-3.463,1.057,-0.187
2488.0,-13.02,-2.003,5.341,-3.463,1.057,-0.187
2492.0,-12.697,-2.612,4.899,-3.499,0.84,-0.048
2496.0,-12.697,-2.612,4.899,-3.499,0.84,-0.048
2500.0,-12.697,-2.612,4.899,-3.499,0.84,-0.048
2504.0,-12.327,-3.149,4.537,-3.506,0.642,0.078
2508.0,-12.327,-3.149,4.537,-3.506,0.642,0.078
2512.0,-12.015,-3.608,4.216,-3.479,0.447,0.189
2516.0,-12.015,-3.608,4.216,-3.479,0.447,0.189
2520.0,-12.015,-3.608,4.216,-3.479,0.447,0.189
2524.0,-11.81,-4.009,3.861,-3.418,0.255,0.274
2528.0,-11.81,-4.009,3.861,-3.418,0.255,0.274
2532.0,-11.716,-4.275,3.335,-3.327,0.082,0.324
2536.0,-11.716,-4.275,3.335,-3.327,0.082,0.324
2540.0,-11.716,-4.275,3.335,-3.327,0.082,0.324
2544.0,-11.567,-4.429,2.843,-3.206,-0.054,0.341
2548.0,-11.567,-4.429,2.843,-3.206,-0.054,0.341
2552.0,-11.218,-4.452,2.5,-3.062,-0.161,0.324
2556.0,-11.218,-4.452,2.5,-3.062,-0.161,0.324
2561.0,-10.75,-4.38,2.221,-3.062,-0.161,0.324
2565.0,-10.75,-4.38,2.221,-2.897,-0.256,0.28
2569.0,-10.75,-4.38,2.221,-2.897,-0.256,0.28
2573.0,-10.424,-4.235,1.971,-2.718,-0.34,0.221
2577.0,-10.424,-4.235,1.971,-2.718,-0.34,0.221
2581.0,-10.376,-4.005,1.758,-2.529,-0.408,0.17
2585.0,-10.376,-4.005,1.758,-2.529,-0.408,0.17
2589.0,-10.376,-4.005,1.758,-2.529,-0.408,0.17
2593.0,-10.522,-3.869,1.571,-2.337,-0.465,0.148
2597.0,-10.522,-3.869,1.571,-2.337,-0.465,0.148
2601.0,-10.754,-3.723,1.409,-2.152,-0.526,0.154
2605.0,-10.754,-3.723,1.409,-2.152,-0.526,0.154
2609.0,-10.754,-3.723,1.16,-2.152,-0.526,0.154
2614.0,-10.867,-3.729,1.16,-1.986,-0.606,0.172
2618.0,-10.867,-3.729,1.16,-1.986,-0.606,0.172
2622.0,-10.939,-3.699,0.825,-1.849,-0.703,0.17
2626.0,-10.939,-3.699,0.825,-1.849,-0.703,0.17
2630.0,-10.953,-3.666,0.367,-1.849,-0.703,0.148
2634.0,-10.953,-3.666,0.367,-1.742,-0.797,0.148
2638.0,-10.953,-3.666,0.367,-1.742,-0.797,0.148
2642.0,-10.814,-3.678,-0.061,-1.661,-0.868,0.101
2646.0,-10.814,-3.678,-0.061,-1.661,-0.868,0.101
2650.0,-10.446,-3.694,-0.336,-1.593,-0.913,0.025
2655.0,-10.446,-3.694,-0.336,-1.593,-0.913,0.025
2659.0,-10.446,-3.694,-0.552,-1.593,-0.913,0.025
2663.0,-9.97,-3.639,-0.552,-1.52,-0.937,-0.077
2667.0,-9.97,-3.639,-0.552,-1.52,-0.937,-0.077
2671.0,-9.72,-3.513,-0.7,-1.428,-0.939,-0.203
2675.0,-9.72,-3.513,-0.7,-1.428,-0.939,-0.203
2680.0,-9.685,-3.345,-0.785,-1.311,-0.924,-0.33
2684.0,-9.685,-3.345,-0.785,-1.311,-0.924,-0.33
2688.0,-9.685,-3.345,-0.785,-1.311,-0.924,-0.33
2692.0,-9.666,-3.146,-0.76,-1.167,-0.905,-0.439
2696.0,-9.666,-3.146,-0.76,-1.167,-0.905,-0.439
2700.0,-9.56,-2.991,-0.735,-1.003,-0.896,-0.524
2705.0,-9.56,-2.991,-0.735,-1.003,-0.896,-0.524
2709.0,-9.484,-2.808,-0.736,-1.003,-0.896,-0.592
2713.0,-9.484,-2.808,-0.736,-0.826,-0.896,-0.592
2717.0,-9.484,-2.808,-0.736,-0.826,-0.896,-0.592
2721.0,-9.425,-2.609,-0.745,-0.647,-0.894,-0.636
2725.0,-9.425,-2.609,-0.745,-0.647,-0.894,-0.636
2730.0,-9.366,-2.46,-0.832,-0.479,-0.888,-0.653
2734.0,-9.366,-2.46,-0.832,-0.479,-0.888,-0.653
2738.0,-9.366,-2.264,-0.964,-0.479,-0.888,-0.653
2742.0,-9.318,-2.264,-0.964,-0.33,-0.877,-0.648
2746.0,-9.318,-2.264,-0.964,-0.33,-0.877,-0.648
2750.0,-9.211,-2.0,-1.174,-0.207,-0.861,-0.623
2755.0,-9.211,-2.0,-1.174,-0.207,-0.861,-0.623
2759.0,-9.077,-1.722,-1.379,-0.113,-0.843,-0.581
2763.0,-9.077,-1.722,-1.379,-0.113,-0.843,-0.581
2767.0,-9.077,-1.722,-1.379,-0.113,-0.843,-0.581
2771.0,-8.927,-1.456,-1.598,-0.052,-0.826,-0.524
2775.0,-8.927,-1.456,-1.598,-0.052,-0.826,-0.524
2780.0,-8.8,-1.262,-1.862,-0.021,-0.796,-0.45
2784.0,-8.8,-1.262,-1.862,-0.021,-0.796,-0.45
2788.0,-8.818,-1.186,-1.972,-0.021,-0.743,-0.361
2792.0,-8.818,-1.186,-1.972,-0.021,-0.743,-0.361
2796.0,-8.818,-1.186,-1.972,-0.021,-0.743,-0.361
2800.0,-9.022,-1.222,-1.987,-0.049,-0.679,-0.262
2805.0,-9.022,-1.222,-1.987,-0.049,-0.679,-0.262
2809.0,-9.35,-1.259,-2.067,-0.104,-0.617,-0.169
2813.0,-9.35,-1.259,-2.067,-0.104,-0.617,-0.169
2817.0,-9.834,-1.282,-2.078,-0.104,-0.617,-0.169
2821.0,-9.834,-1.282,-2.078,-0.189,-0.56,-0.092
2825.0,-9.834,-1.282,-2.078,-0.189,-0.56,-0.092
2830.0,-10.214,-1.289,-1.918,-0.291,-0.512,-0.025
2834.0,-10.214,-1.289,-1.918,-0.291,-0.512,-0.025
2838.0,-10.29,-1.312,-1.702,-0.4,-0.486,0.027
2842.0,-10.29,-1.312,-1.702,-0.4,-0.486,0.027
2846.0,-10.29,-1.312,-1.59,-0.4,-0.486,0.027
2851.0,-10.16,-1.289,-1.59,-0.505,-0.477,0.053
2855.0,-10.16,-1.289,-1.59,-0.505,-0.477,0.053
2859.0,-10.042,-1.201,-1.535,-0.601,-0.462,0.055
2863.0,-10.042,-1.201,-1.535,-0.601,-0.462,0.055
2867.0,-9.995,-1.07,-1.448,-0.682,-0.425,0.039
2871.0,-9.995,-1.07,-1.448,-0.682,-0.425,0.039
2875.0,-9.995,-1.07,-1.448,-0.682,-0.425,0.039
2880.0,-9.936,-0.917,-1.19,-0.75,-0.381,0.017
2884.0,-9.936,-0.917,-1.19,-0.75,-0.381,0.017
2888.0,-9.816,-0.784,-1.026,-0.802,-0.353,-0.002
2892.0,-9.816,-0.784,-1.026,-0.802,-0.353,-0.002
2896.0,-9.682,-0.644,-0.973,-0.802,-0.353,-0.002
2900.0,-9.682,-0.644,-0.973,-0.835,-0.338,-0.015
2904.0,-9.682,-0.644,-0.973,-0.835,-0.338,-0.015
2909.0,-9.602,-0.556,-0.988,-0.852,-0.328,-0.022
2913.0,-9.602,-0.556,-0.988,-0.852,-0.328,-0.022
2917.0,-9.528,-0.529,-1.013,-0.858,-0.317,-0.019
2921.0,-9.528,-0.529,-1.013,-0.858,-0.317,-0.019
2925.0,-9.528,-0.529,-1.013,-0.858,-0.317,-0.019
2929.0,-9.365,-0.615,-0.974,-0.862,-0.302,-0.005
2934.0,-9.365,-0.615,-0.974,-0.862,-0.302,-0.005
2938.0,-9.151,-0.694,-0.948,-0.869,-0.282,0.011
2942.0,-9.151,-0.694,-0.948,-0.869,-0.282,0.011
2946.0,-8.935,-0.805,-0.91,-0.869,-0.257,0.021
2950.0,-8.935,-0.805,-0.91,-0.884,-0.257,0.021
2954.0,-8.935,-0.805,-0.91,-0.884,-0.257,0.021
2958.0,-8.864,-0.939,-0.866,-0.909,-0.232,0.023
2962.0,-8.864,-0.939,-0.866,-0.909,-0.232,0.023
2966.0,-8.881,-1.069,-0.785,-0.944,-0.205,0.022
2970.0,-8.881,-1.069,-0.785,-0.944,-0.205,0.022
2974.0,-8.881,-1.069,-0.785,-0.944,-0.205,0.022
2978.0,-8.958,-1.186,-0.622,-0.988,-0.179,0.025
2983.0,-8.958,-1.186,-0.622,-0.988,-0.179,0.025
2987.0,-8.991,-1.293,-0.421,-1.039,-0.156,0.036
2991.0,-8.991,-1.293,-0.421,-1.039,-0.156,0.036
2995.0,-9.14,-1.357,-0.229,-1.039,-0.156,0.036
2999.0,-9.14,-1.357,-0.229,-1.092,-0.138,0.055
