deltaTime,Acc_X,Acc_Y,Acc_Z,Gyro_X,Gyro_Y,Gyro_Z
0.0,-6.79,-0.543,2.418,0.459,0.47,-0.706
3.0,-6.961,-0.588,2.418,0.463,0.509,-0.734
6.0,-6.961,-0.588,2.418,0.463,0.509,-0.734
9.0,-6.961,-0.588,2.418,0.463,0.509,-0.734
12.0,-7.339,-0.529,2.641,0.49,0.536,-0.755
15.0,-7.339,-0.529,2.641,0.49,0.536,-0.755
18.0,-7.339,-0.529,2.641,0.49,0.536,-0.755
21.0,-7.921,-0.31,2.736,0.504,0.533,-0.764
24.0,-7.921,-0.31,2.736,0.504,0.533,-0.764
27.0,-7.921,-0.31,2.736,0.504,0.533,-0.764
30.0,-8.736,-0.051,3.086,0.504,0.533,-0.764
33.0,-8.736,-0.051,3.086,0.467,0.512,-0.736
36.0,-8.736,-0.051,3.086,0.467,0.512,-0.736
39.0,-8.985,0.182,3.59,0.467,0.512,-0.736
43.0,-8.985,0.182,3.59,0.385,0.46,-0.661
47.0,-8.985,0.182,3.59,0.385,0.46,-0.661
50.0,-8.387,0.028,4.323,0.283,0.417,-0.572
54.0,-8.387,0.028,4.323,0.283,0.417,-0.572
57.0,-8.387,0.028,4.323,0.283,0.417,-0.572
61.0,-7.648,-0.556,5.2,0.257,0.384,-0.505
65.0,-7.648,-0.556,5.2,0.257,0.384,-0.505
69.0,-7.648,-0.556,5.812,0.257,0.384,-0.505
72.0,-7.211,-1.128,5.812,0.364,0.354,-0.486
76.0,-7.211,-1.128,5.812,0.364,0.354,-0.486
80.0,-7.254,-1.344,6.207,0.577,0.341,-0.499
84.0,-7.254,-1.344,6.207,0.577,0.341,-0.499
87.0,-7.254,-1.344,6.207,0.577,0.341,-0.499
91.0,-7.634,-1.12,6.377,0.832,0.328,-0.517
95.0,-7.634,-1.12,6.377,0.832,0.328,-0.517
98.0,-7.892,-0.683,6.306,0.832,0.328,-0.517
102.0,-7.892,-0.683,6.306,1.039,0.291,-0.535
106.0,-7.892,-0.683,6.306,1.039,0.291,-0.535
110.0,-7.478,-0.09,6.15,1.159,0.24,-0.54
114.0,-7.478,-0.09,6.15,1.159,0.24,-0.54
117.0,-7.478,-0.09,6.15,1.159,0.24,-0.54
121.0,-7.025,0.076,6.124,1.199,0.227,-0.515
125.0,-7.025,0.076,6.124,1.199,0.227,-0.515
129.0,-7.037,0.092,6.308,1.213,0.266,-0.461
132.0,-7.037,0.092,6.308,1.213,0.266,-0.461
136.0,-7.037,0.092,6.308,1.213,0.266,-0.461
140.0,-7.499,0.019,6.839,1.215,0.322,-0.383
144.0,-7.499,0.019,6.839,1.215,0.322,-0.383
147.0,-7.499,0.019,6.839,1.215,0.322,-0.383
151.0,-8.378,0.217,7.373,1.174,0.358,-0.277
155.0,-8.378,0.217,7.373,1.174,0.358,-0.277
159.0,-9.239,0.503,7.874,1.01,0.382,-0.151
162.0,-9.239,0.503,7.874,1.01,0.382,-0.151
166.0,-9.239,0.503,7.874,1.01,0.382,-0.151
170.0,-9.427,0.522,8.405,0.776,0.391,-0.019
174.0,-9.427,0.522,8.405,0.776,0.391,-0.019
177.0,-9.427,0.522,8.609,0.776,0.391,-0.019
181.0,-9.514,0.148,8.609,0.552,0.393,0.087
185.0,-9.514,0.148,8.609,0.552,0.393,0.087
188.0,-9.638,-0.593,8.828,0.379,0.414,0.163
192.0,-9.638,-0.593,8.828,0.379,0.414,0.163
196.0,-9.638,-0.593,8.828,0.379,0.414,0.163
200.0,-9.535,-0.93,9.392,0.283,0.444,0.194
203.0,-9.535,-0.93,9.392,0.283,0.444,0.194
207.0,-9.535,-1.017,9.814,0.283,0.444,0.194
211.0,-9.664,-1.017,9.814,0.253,0.447,0.182
214.0,-9.664,-1.017,9.814,0.253,0.447,0.182
218.0,-10.232,-1.102,10.037,0.275,0.432,0.162
222.0,-10.232,-1.102,10.037,0.275,0.432,0.162
226.0,-10.232,-1.102,10.037,0.275,0.432,0.162
230.0,-11.272,-0.811,10.17,0.31,0.407,0.171
234.0,-11.272,-0.811,10.17,0.31,0.407,0.171
238.0,-11.821,-0.205,10.415,0.273,0.359,0.202
242.0,-11.821,-0.205,10.415,0.273,0.359,0.202
246.0,-11.821,-0.205,10.415,0.273,0.359,0.202
249.0,-11.795,-0.057,10.635,0.153,0.279,0.237
253.0,-11.795,-0.057,10.635,0.153,0.279,0.237
257.0,-11.401,-0.138,10.895,0.008,0.204,0.255
261.0,-11.401,-0.138,10.895,0.008,0.204,0.255
265.0,-11.401,-0.138,10.895,0.008,0.204,0.255
269.0,-10.987,-0.264,11.11,-0.118,0.145,0.25
273.0,-10.987,-0.264,11.11,-0.118,0.145,0.25
277.0,-10.839,-0.409,11.359,-0.22,0.126,0.239
281.0,-10.839,-0.409,11.359,-0.22,0.126,0.239
285.0,-10.839,-0.409,11.359,-0.22,0.126,0.239
289.0,-10.88,-0.635,11.743,-0.3,0.148,0.232
293.0,-10.88,-0.635,11.743,-0.3,0.148,0.232
297.0,-10.893,-1.079,12.331,-0.331,0.178,0.24
301.0,-10.893,-1.079,12.331,-0.331,0.178,0.24
305.0,-10.893,-1.079,12.331,-0.331,0.178,0.24
309.0,-10.817,-1.603,13.019,-0.279,0.192,0.259
313.0,-10.817,-1.603,13.019,-0.279,0.192,0.259
317.0,-10.89,-1.79,13.575,-0.158,0.157,0.266
321.0,-10.89,-1.79,13.575,-0.158,0.157,0.266
325.0,-10.89,-1.79,13.575,-0.158,0.157,0.266
329.0,-10.886,-1.504,13.953,-0.034,0.068,0.258
333.0,-10.886,-1.504,13.953,-0.034,0.068,0.258
337.0,-10.821,-1.393,13.91,0.075,-0.066,0.258
341.0,-10.821,-1.393,13.91,0.075,-0.066,0.258
345.0,-10.821,-1.393,13.91,0.075,-0.066,0.258
349.0,-11.367,-1.557,13.567,0.193,-0.209,0.279
353.0,-11.367,-1.557,13.567,0.193,-0.209,0.279
357.0,-11.479,-1.341,12.979,0.323,-0.394,0.333
361.0,-11.479,-1.341,12.979,0.323,-0.394,0.333
365.0,-11.479,-1.341,12.388,0.323,-0.394,0.333
369.0,-11.798,-1.006,12.388,0.421,-0.579,0.403
373.0,-11.798,-1.006,12.388,0.421,-0.579,0.403
377.0,-12.455,-1.095,11.984,0.496,-0.785,0.473
381.0,-12.455,-1.095,11.984,0.496,-0.785,0.473
385.0,-12.593,-0.526,11.523,0.496,-0.785,0.473
389.0,-12.593,-0.526,11.523,0.605,-1.023,0.544
393.0,-12.593,-0.526,11.523,0.605,-1.023,0.544
397.0,-12.927,0.518,11.119,0.652,-1.297,0.554
401.0,-12.927,0.518,11.119,0.652,-1.297,0.554
405.0,-13.522,1.044,10.66,0.652,-1.297,0.554
408.0,-13.522,1.044,10.66,0.613,-1.652,0.499
412.0,-13.522,1.044,10.66,0.613,-1.652,0.499
416.0,-13.747,1.869,9.927,0.547,-2.045,0.451
420.0,-13.747,1.869,9.927,0.547,-2.045,0.451
424.0,-13.747,1.869,9.101,0.547,-2.045,0.451
428.0,-14.178,2.606,9.101,0.416,-2.39,0.456
432.0,-14.178,2.606,9.101,0.416,-2.39,0.456
435.0,-15.002,3.0,8.682,0.208,-2.64,0.512
439.0,-15.002,3.0,8.682,0.208,-2.64,0.512
443.0,-15.002,3.0,8.682,0.208,-2.64,0.512
447.0,-15.525,2.87,8.799,-0.027,-2.816,0.599
451.0,-15.525,2.87,8.799,-0.027,-2.816,0.599
455.0,-15.329,2.356,9.204,-0.21,-2.969,0.692
459.0,-15.329,2.356,9.204,-0.21,-2.969,0.692
462.0,-15.329,2.356,9.204,-0.21,-2.969,0.692
466.0,-15.252,1.762,9.631,-0.279,-3.128,0.767
470.0,-15.252,1.762,9.631,-0.279,-3.128,0.767
474.0,-15.492,1.234,10.024,-0.279,-3.293,0.829
478.0,-15.492,1.234,10.024,-0.22,-3.293,0.829
482.0,-15.492,1.234,10.024,-0.22,-3.293,0.829
486.0,-15.663,0.488,10.151,-0.029,-3.47,0.887
490.0,-15.663,0.488,10.151,-0.029,-3.47,0.887
494.0,-15.117,-0.346,9.532,0.298,-3.666,0.949
498.0,-15.117,-0.346,9.532,0.298,-3.666,0.949
502.0,-15.117,-0.346,9.532,0.298,-3.666,0.949
506.0,-13.869,-1.094,8.586,0.748,-3.865,1.009
510.0,-13.869,-1.094,8.586,0.748,-3.865,1.009
514.0,-12.788,-1.533,7.748,0.748,-4.009,1.051
518.0,-12.788,-1.533,7.748,1.289,-4.009,1.051
521.0,-12.788,-1.533,7.748,1.289,-4.009,1.051
525.0,-11.899,-1.561,7.187,1.861,-4.042,1.092
529.0,-11.899,-1.561,7.187,1.861,-4.042,1.092
533.0,-10.962,-1.37,6.602,1.861,-4.042,1.145
537.0,-10.962,-1.37,6.602,2.398,-3.973,1.145
541.0,-10.962,-1.37,6.602,2.398,-3.973,1.145
545.0,-9.875,-1.022,6.276,2.861,-3.851,1.192
549.0,-9.875,-1.022,6.276,2.861,-3.851,1.192
553.0,-8.92,-0.616,6.317,2.861,-3.851,1.192
556.0,-8.92,-0.616,6.317,3.235,-3.727,1.211
560.0,-8.92,-0.616,6.317,3.235,-3.727,1.211
564.0,-8.174,-0.19,6.117,3.507,-3.618,1.197
568.0,-8.174,-0.19,6.117,3.507,-3.618,1.197
572.0,-8.174,-0.19,6.117,3.507,-3.618,1.197
575.0,-7.456,0.019,5.782,3.66,-3.514,1.166
579.0,-7.456,0.019,5.782,3.66,-3.514,1.166
583.0,-6.531,-0.047,5.356,3.702,-3.405,1.117
587.0,-6.531,-0.047,5.356,3.702,-3.405,1.117
591.0,-6.531,-0.047,5.356,3.702,-3.405,1.117
594.0,-5.545,-0.464,4.875,3.663,-3.279,1.039
598.0,-5.545,-0.464,4.875,3.663,-3.279,1.039
602.0,-4.774,-1.018,4.437,3.663,-3.279,1.039
606.0,-4.774,-1.018,4.437,3.576,-3.133,0.93
610.0,-4.774,-1.018,4.437,3.576,-3.133,0.93
613.0,-4.134,-1.455,4.086,3.464,-2.984,0.811
617.0,-4.134,-1.455,4.086,3.464,-2.984,0.811
621.0,-4.134,-1.455,4.086,3.464,-2.984,0.811
625.0,-3.464,-1.683,3.846,3.347,-2.831,0.693
629.0,-3.464,-1.683,3.846,3.347,-2.831,0.693
633.0,-2.908,-1.706,3.557,3.239,-2.665,0.575
636.0,-2.908,-1.706,3.557,3.239,-2.665,0.575
640.0,-2.908,-1.706,3.557,3.239,-2.665,0.575
644.0,-2.458,-1.682,3.072,3.153,-2.498,0.458
648.0,-2.458,-1.682,3.072,3.153,-2.498,0.458
652.0,-2.085,-1.607,2.542,3.153,-2.498,0.359
655.0,-2.085,-1.607,2.542,3.079,-2.345,0.359
659.0,-2.085,-1.607,2.542,3.079,-2.345,0.359
663.0,-1.808,-1.699,2.161,3.01,-2.213,0.3
667.0,-1.808,-1.699,2.161,3.01,-2.213,0.3
671.0,-1.808,-1.699,1.882,3.01,-2.213,0.3
675.0,-1.793,-1.832,1.882,2.957,-2.106,0.278
678.0,-1.793,-1.832,1.882,2.957,-2.106,0.278
682.0,-1.873,-1.59,1.797,2.913,-2.016,0.291
686.0,-1.873,-1.59,1.797,2.913,-2.016,0.291
690.0,-1.873,-1.59,1.797,2.913,-2.016,0.291
694.0,-1.994,-1.213,1.616,2.871,-1.93,0.329
698.0,-1.994,-1.213,1.616,2.871,-1.93,0.329
701.0,-2.043,-0.735,1.228,2.82,-1.85,0.382
705.0,-2.043,-0.735,1.228,2.82,-1.85,0.382
709.0,-2.043,-0.735,1.228,2.82,-1.85,0.382
713.0,-1.864,-0.282,0.914,2.745,-1.761,0.447
717.0,-1.864,-0.282,0.914,2.745,-1.761,0.447
720.0,-1.631,0.29,0.716,2.745,-1.761,0.447
724.0,-1.631,0.29,0.716,2.645,-1.663,0.521
728.0,-1.631,0.29,0.716,2.645,-1.663,0.521
732.0,-1.713,1.111,0.623,2.514,-1.564,0.606
735.0,-1.713,1.111,0.623,2.514,-1.564,0.606
739.0,-1.713,1.111,0.623,2.514,-1.564,0.606
743.0,-2.02,1.873,0.581,2.322,-1.48,0.72
747.0,-2.02,1.873,0.581,2.322,-1.48,0.72
750.0,-2.097,2.499,0.518,2.322,-1.48,0.857
754.0,-2.097,2.499,0.518,2.051,-1.407,0.857
758.0,-2.097,2.499,0.518,2.051,-1.407,0.857
761.0,-1.947,2.888,0.425,1.71,-1.334,0.985
765.0,-1.947,2.888,0.425,1.71,-1.334,0.985
769.0,-1.947,2.888,0.425,1.71,-1.334,0.985
773.0,-1.609,3.224,0.168,1.322,-1.263,1.081
776.0,-1.609,3.224,0.168,1.322,-1.263,1.081
780.0,-1.155,3.443,-0.092,1.322,-1.173,1.156
784.0,-1.155,3.443,-0.092,0.929,-1.173,1.156
788.0,-1.155,3.443,-0.092,0.929,-1.173,1.156
792.0,-0.84,3.666,-0.122,0.588,-1.051,1.216
795.0,-0.84,3.666,-0.122,0.588,-1.051,1.216
799.0,-0.84,4.035,-0.051,0.588,-1.051,1.216
803.0,-0.732,4.035,-0.051,0.345,-0.918,1.273
807.0,-0.732,4.035,-0.051,0.345,-0.918,1.273
811.0,-0.709,4.548,-0.037,0.215,-0.787,1.357
815.0,-0.709,4.548,-0.037,0.215,-0.787,1.357
818.0,-0.709,4.548,-0.037,0.215,-0.787,1.357
822.0,-0.758,5.366,0.001,0.19,-0.654,1.486
826.0,-0.758,5.366,0.001,0.19,-0.654,1.486
830.0,-0.954,6.191,0.043,0.254,-0.521,1.679
833.0,-0.954,6.191,0.043,0.254,-0.521,1.679
837.0,-0.954,6.191,0.043,0.254,-0.521,1.679
841.0,-1.044,7.153,0.186,0.391,-0.395,1.931
845.0,-1.044,7.153,0.186,0.391,-0.395,1.931
848.0,-1.044,7.153,0.186,0.391,-0.395,1.931
852.0,-1.046,7.917,0.352,0.584,-0.27,2.222
856.0,-1.046,7.917,0.352,0.584,-0.27,2.222
859.0,-0.639,8.533,0.55,0.804,-0.141,2.487
863.0,-0.639,8.533,0.55,0.804,-0.141,2.487
867.0,-0.639,8.533,0.55,0.804,-0.141,2.487
871.0,0.159,9.081,0.745,1.03,-0.009,2.683
874.0,0.159,9.081,0.745,1.03,-0.009,2.683
878.0,0.159,9.081,0.942,1.03,-0.009,2.683
882.0,1.098,9.78,0.942,1.244,0.132,2.818
885.0,1.098,9.78,0.942,1.244,0.132,2.818
889.0,1.759,10.84,1.166,1.244,0.306,2.923
892.0,1.759,10.84,1.166,1.435,0.306,2.923
896.0,1.759,10.84,1.166,1.435,0.306,2.923
900.0,2.458,12.263,1.236,1.609,0.514,3.003
903.0,2.458,12.263,1.236,1.609,0.514,3.003
907.0,2.458,12.263,1.236,1.609,0.514,3.003
911.0,3.437,13.737,1.483,1.768,0.766,3.049
914.0,3.437,13.737,1.483,1.768,0.766,3.049
918.0,4.458,14.99,2.064,1.768,0.766,3.049
922.0,4.458,14.99,2.064,1.893,1.049,3.089
925.0,4.458,14.99,2.064,1.893,1.049,3.089
929.0,5.349,15.844,2.712,1.968,1.323,3.138
932.0,5.349,15.844,2.712,1.968,1.323,3.138
936.0,5.349,15.844,2.712,1.968,1.323,3.138
940.0,6.223,16.469,3.233,1.98,1.56,3.128
943.0,6.223,16.469,3.233,1.98,1.56,3.128
947.0,6.223,16.469,3.635,1.98,1.56,3.128
951.0,7.201,17.099,3.635,1.928,1.746,3.009
954.0,7.201,17.099,3.635,1.928,1.746,3.009
958.0,7.881,17.901,3.96,1.809,1.908,2.819
962.0,7.881,17.901,3.96,1.809,1.908,2.819
965.0,7.881,17.901,3.96,1.809,1.908,2.819
969.0,8.057,18.768,4.165,1.653,2.032,2.617
973.0,8.057,18.768,4.165,1.653,2.032,2.617
976.0,8.057,18.768,4.165,1.653,2.032,2.617
980.0,7.958,19.487,3.928,1.448,2.1,2.474
984.0,7.958,19.487,3.928,1.448,2.1,2.474
987.0,8.042,19.596,3.671,1.448,2.1,2.433
991.0,8.042,19.596,3.671,1.19,2.166,2.433
994.0,8.042,19.596,3.671,1.19,2.166,2.433
998.0,8.264,19.596,3.728,0.916,2.264,2.466
1002.0,8.264,19.596,3.728,0.916,2.264,2.466
1005.0,8.264,19.596,3.728,0.916,2.264,2.466
1009.0,8.22,19.596,4.003,0.66,2.41,2.584
1013.0,8.22,19.596,4.003,0.66,2.41,2.584
1017.0,8.045,19.531,4.517,0.66,2.41,2.584
1020.0,8.045,19.531,4.517,0.435,2.583,2.822
1024.0,8.045,19.531,4.517,0.435,2.583,2.822
1028.0,7.512,18.937,5.07,0.236,2.762,3.151
1032.0,7.512,18.937,5.07,0.236,2.762,3.151
1035.0,7.512,18.937,5.07,0.236,2.762,3.151
1039.0,6.352,18.141,5.329,0.024,2.949,3.561
1043.0,6.352,18.141,5.329,0.024,2.949,3.561
1047.0,5.011,17.031,5.55,0.024,3.131,4.016
1050.0,5.011,17.031,5.55,-0.256,3.131,4.016
1054.0,5.011,17.031,5.55,-0.256,3.131,4.016
1058.0,3.782,15.642,5.7,-0.621,3.27,4.438
1062.0,3.782,15.642,5.7,-0.621,3.27,4.438
1066.0,3.782,15.642,5.75,-0.621,3.27,4.438
1069.0,2.91,14.335,5.75,-1.084,3.36,4.81
1073.0,2.91,14.335,5.75,-1.084,3.36,4.81
1077.0,2.087,12.691,6.159,-1.629,3.418,5.002
1081.0,2.087,12.691,6.159,-1.629,3.418,5.002
1085.0,2.087,12.691,6.159,-1.629,3.418,5.002
1088.0,0.511,10.813,6.303,-2.248,3.422,5.013
1092.0,0.511,10.813,6.303,-2.248,3.422,5.013
1096.0,-1.871,8.635,6.443,-2.925,3.441,5.013
1100.0,-1.871,8.635,6.443,-2.925,3.441,5.013
1104.0,-1.871,8.635,6.443,-2.925,3.441,5.013
1108.0,-4.563,6.203,6.304,-3.629,3.425,5.013
1111.0,-4.563,6.203,6.304,-3.629,3.425,5.013
1115.0,-6.704,3.412,6.386,-3.629,3.425,5.013
1119.0,-6.704,3.412,6.386,-4.328,3.31,5.013
1123.0,-6.704,3.412,6.386,-4.328,3.31,5.013
1127.0,-8.505,0.492,6.368,-4.898,3.061,5.013
1130.0,-8.505,0.492,6.368,-4.898,3.061,5.013
1134.0,-8.505,0.492,6.368,-4.898,3.061,5.013
1138.0,-9.702,-1.876,6.121,-5.013,2.719,4.993
1142.0,-9.702,-1.876,6.121,-5.013,2.719,4.993
1146.0,-10.135,-3.899,6.297,-5.013,2.368,4.688
1150.0,-10.135,-3.899,6.297,-5.013,2.368,4.688
1154.0,-10.135,-3.899,6.297,-5.013,2.368,4.688
1158.0,-10.085,-5.888,6.627,-5.013,2.03,4.156
1162.0,-10.085,-5.888,6.627,-5.013,2.03,4.156
1166.0,-9.966,-7.589,6.717,-5.013,1.716,3.646
1170.0,-9.966,-7.589,6.717,-5.013,1.716,3.646
1174.0,-9.966,-7.589,6.717,-5.013,1.716,3.646
1178.0,-9.242,-9.087,6.286,-5.013,1.399,3.182
1182.0,-9.242,-9.087,6.286,-5.013,1.399,3.182
1185.0,-7.711,-10.327,5.508,-5.013,1.102,2.747
1189.0,-7.711,-10.327,5.508,-5.013,1.102,2.747
1193.0,-7.711,-10.327,5.508,-5.013,1.102,2.747
1197.0,-5.763,-10.991,4.915,-5.013,0.843,2.331
1201.0,-5.763,-10.991,4.915,-5.013,0.843,2.331
1205.0,-3.383,-11.974,5.135,-5.013,0.595,1.932
1209.0,-3.383,-11.974,5.135,-5.013,0.595,1.932
1213.0,-3.383,-11.974,5.135,-5.013,0.595,1.932
1217.0,-0.82,-13.058,5.582,-4.972,0.357,1.576
1221.0,-0.82,-13.058,5.582,-4.972,0.357,1.576
1225.0,1.01,-13.686,5.917,-4.426,0.19,1.289
1229.0,1.01,-13.686,5.917,-4.426,0.19,1.289
1233.0,1.01,-13.686,5.917,-4.426,0.19,1.289
1237.0,2.127,-14.078,5.878,-3.462,0.099,1.067
1241.0,2.127,-14.078,5.878,-3.462,0.099,1.067
1245.0,2.862,-13.987,5.419,-2.399,0.085,0.902
1249.0,2.862,-13.987,5.419,-2.399,0.085,0.902
1253.0,2.862,-13.987,5.419,-2.399,0.085,0.902
1257.0,3.436,-13.475,5.177,-1.321,0.136,0.797
1261.0,3.436,-13.475,5.177,-1.321,0.136,0.797
1264.0,4.162,-12.76,5.192,-0.299,0.204,0.737
1268.0,4.162,-12.76,5.192,-0.299,0.204,0.737
1272.0,4.162,-12.76,5.192,-0.299,0.204,0.737
1276.0,4.988,-11.854,5.287,0.602,0.271,0.692
1280.0,4.988,-11.854,5.287,0.602,0.271,0.692
1284.0,5.649,-10.948,5.329,1.341,0.333,0.639
1288.0,5.649,-10.948,5.329,1.341,0.333,0.639
1291.0,5.649,-10.948,5.329,1.341,0.333,0.639
1295.0,6.059,-10.129,5.004,1.892,0.392,0.559
1299.0,6.059,-10.129,5.004,1.892,0.392,0.559
1303.0,6.01,-9.316,4.572,1.892,0.392,0.559
1307.0,6.01,-9.316,4.572,2.254,0.467,0.448
1310.0,6.01,-9.316,4.572,2.254,0.467,0.448
1314.0,5.514,-8.602,4.281,2.444,0.55,0.314
1318.0,5.514,-8.602,4.281,2.444,0.55,0.314
1322.0,5.514,-8.602,4.281,2.444,0.55,0.314
1325.0,4.842,-7.895,4.201,2.496,0.618,0.166
1329.0,4.842,-7.895,4.201,2.496,0.618,0.166
1333.0,4.226,-7.198,4.311,2.496,0.618,0.024
1336.0,4.226,-7.198,4.311,2.438,0.646,0.024
1340.0,4.226,-7.198,4.311,2.438,0.646,0.024
1344.0,3.77,-6.621,4.466,2.282,0.651,-0.099
1348.0,3.77,-6.621,4.466,2.282,0.651,-0.099
1352.0,3.77,-6.621,4.466,2.282,0.651,-0.099
1355.0,3.335,-6.201,4.541,2.045,0.643,-0.215
1359.0,3.335,-6.201,4.541,2.045,0.643,-0.215
1363.0,2.882,-5.841,4.468,1.753,0.602,-0.348
1367.0,2.882,-5.841,4.468,1.753,0.602,-0.348
1371.0,2.882,-5.841,4.468,1.753,0.602,-0.348
1374.0,2.42,-5.533,4.243,1.425,0.557,-0.497
1378.0,2.42,-5.533,4.243,1.425,0.557,-0.497
1382.0,1.986,-5.283,4.016,1.425,0.557,-0.644
1386.0,1.986,-5.283,4.016,1.08,0.535,-0.644
1390.0,1.986,-5.283,4.016,1.08,0.535,-0.644
1394.0,1.576,-5.099,3.941,0.75,0.536,-0.779
1397.0,1.576,-5.099,3.941,0.75,0.536,-0.779
1401.0,1.576,-5.099,3.976,0.75,0.536,-0.779
1405.0,1.272,-4.956,3.976,0.464,0.532,-0.897
1409.0,1.272,-4.956,3.976,0.464,0.532,-0.897
1413.0,1.116,-4.87,3.988,0.239,0.522,-0.991
1417.0,1.116,-4.87,3.988,0.239,0.522,-0.991
1420.0,1.116,-4.87,3.988,0.239,0.522,-0.991
1424.0,1.048,-4.831,3.988,0.086,0.53,-1.059
1428.0,1.048,-4.831,3.988,0.086,0.53,-1.059
1432.0,1.107,-4.923,4.281,-0.002,0.566,-1.097
1436.0,1.107,-4.923,4.281,-0.002,0.566,-1.097
1440.0,1.107,-4.923,4.281,-0.002,0.566,-1.097
1444.0,1.118,-5.002,4.822,-0.018,0.612,-1.116
1447.0,1.118,-5.002,4.822,-0.018,0.612,-1.116
1451.0,0.955,-4.997,5.373,-0.018,0.649,-1.13
1455.0,0.955,-4.997,5.373,0.034,0.649,-1.13
1459.0,0.955,-4.997,5.373,0.034,0.649,-1.13
1463.0,0.614,-4.899,5.801,0.139,0.673,-1.145
1467.0,0.614,-4.899,5.801,0.139,0.673,-1.145
1471.0,0.614,-4.734,6.035,0.139,0.673,-1.145
1474.0,0.229,-4.734,6.035,0.278,0.688,-1.153
1478.0,0.229,-4.734,6.035,0.278,0.688,-1.153
1482.0,-0.211,-4.569,6.511,0.425,0.712,-1.147
1486.0,-0.211,-4.569,6.511,0.425,0.712,-1.147
1490.0,-0.211,-4.569,6.511,0.425,0.712,-1.147
1494.0,-0.474,-4.438,7.155,0.572,0.73,-1.126
1498.0,-0.474,-4.438,7.155,0.572,0.73,-1.126
1501.0,-0.447,-4.283,7.536,0.727,0.707,-1.104
1505.0,-0.447,-4.283,7.536,0.727,0.707,-1.104
1509.0,-0.447,-4.283,7.536,0.727,0.707,-1.104
1513.0,-0.455,-4.032,7.901,0.867,0.679,-1.075
1517.0,-0.455,-4.032,7.901,0.867,0.679,-1.075
1521.0,-0.433,-3.891,8.463,0.981,0.679,-1.026
1525.0,-0.433,-3.891,8.463,0.981,0.679,-1.026
1529.0,-0.433,-3.891,8.463,0.981,0.679,-1.026
1533.0,-0.385,-3.857,9.33,1.078,0.689,-0.971
1537.0,-0.385,-3.857,9.33,1.078,0.689,-0.971
1541.0,-0.412,-3.746,10.252,1.165,0.695,-0.934
1545.0,-0.412,-3.746,10.252,1.165,0.695,-0.934
1549.0,-0.412,-3.746,10.252,1.165,0.695,-0.934
1553.0,-0.498,-3.502,11.128,1.24,0.699,-0.913
1557.0,-0.498,-3.502,11.128,1.24,0.699,-0.913
1561.0,-0.578,-3.194,11.958,1.288,0.698,-0.905
1565.0,-0.578,-3.194,11.958,1.288,0.698,-0.905
1569.0,-0.578,-3.194,11.958,1.288,0.698,-0.905
1573.0,-0.767,-2.76,12.732,1.303,0.693,-0.928
1576.0,-0.767,-2.76,12.732,1.303,0.693,-0.928
1580.0,-1.039,-2.178,13.568,1.291,0.683,-0.973
1584.0,-1.039,-2.178,13.568,1.291,0.683,-0.973
1588.0,-1.039,-2.178,13.568,1.291,0.683,-0.973
1592.0,-0.914,-1.637,14.382,1.247,0.643,-0.999
1596.0,-0.914,-1.637,14.382,1.247,0.643,-0.999
1600.0,-0.125,-1.287,14.876,1.178,0.563,-0.979
1604.0,-0.125,-1.287,14.876,1.178,0.563,-0.979
1608.0,-0.125,-1.287,15.325,1.178,0.563,-0.979
1612.0,0.449,-1.059,15.325,1.095,0.499,-0.911
1616.0,0.449,-1.059,15.325,1.095,0.499,-0.911
1620.0,0.099,-0.977,16.1,1.015,0.5,-0.797
1624.0,0.099,-0.977,16.1,1.015,0.5,-0.797
1628.0,0.099,-0.977,16.1,1.015,0.5,-0.797
1632.0,-0.903,-0.745,17.006,0.974,0.507,-0.709
1636.0,-0.903,-0.745,17.006,0.974,0.507,-0.709
1640.0,-2.045,-0.312,17.886,0.968,0.467,-0.645
1644.0,-2.045,-0.312,17.886,0.968,0.467,-0.645
1648.0,-2.045,-0.312,18.169,0.968,0.467,-0.645
1652.0,-2.432,0.008,18.169,0.987,0.361,-0.554
1656.0,-2.432,0.008,18.169,0.987,0.361,-0.554
1660.0,-2.154,0.277,18.194,1.032,0.195,-0.442
1664.0,-2.154,0.277,18.194,1.032,0.195,-0.442
1668.0,-2.154,0.277,18.194,1.032,0.195,-0.442
1671.0,-1.665,0.482,17.365,1.086,-0.005,-0.304
1675.0,-1.665,0.482,17.365,1.086,-0.005,-0.304
1679.0,-0.961,0.849,16.09,1.12,-0.2,-0.193
1683.0,-0.961,0.849,16.09,1.12,-0.2,-0.193
1687.0,-0.961,0.849,15.369,1.12,-0.2,-0.193
1691.0,0.035,1.354,15.369,1.114,-0.346,-0.137
1695.0,0.035,1.354,15.369,1.114,-0.346,-0.137
1699.0,1.467,1.795,14.512,1.07,-0.459,-0.1
1703.0,1.467,1.795,14.512,1.07,-0.459,-0.1
1707.0,1.467,1.795,14.512,1.07,-0.459,-0.1
1711.0,2.905,2.332,13.376,0.987,-0.542,-0.067
1715.0,2.905,2.332,13.376,0.987,-0.542,-0.067
1719.0,3.908,2.727,12.374,0.86,-0.557,-0.029
1723.0,3.908,2.727,12.374,0.86,-0.557,-0.029
1727.0,3.908,2.727,12.374,0.86,-0.557,-0.029
1730.0,3.93,2.987,11.313,0.705,-0.478,0.043
1734.0,3.93,2.987,11.313,0.705,-0.478,0.043
1738.0,2.912,3.065,10.649,0.537,-0.312,0.135
1742.0,2.912,3.065,10.649,0.537,-0.312,0.135
1746.0,2.912,3.065,10.649,0.537,-0.312,0.135
1750.0,1.702,2.767,10.459,0.401,-0.106,0.248
1753.0,1.702,2.767,10.459,0.401,-0.106,0.248
1757.0,1.043,2.158,9.998,0.401,-0.106,0.384
1761.0,1.043,2.158,9.998,0.34,0.048,0.384
1765.0,1.043,2.158,9.998,0.34,0.048,0.384
1768.0,1.183,1.574,9.036,0.353,0.14,0.515
1772.0,1.183,1.574,9.036,0.353,0.14,0.515
1776.0,1.183,1.574,9.036,0.353,0.14,0.515
1779.0,1.893,1.198,7.873,0.411,0.227,0.6
1783.0,1.893,1.198,7.873,0.411,0.227,0.6
1786.0,2.291,1.239,7.098,0.411,0.227,0.6
1790.0,2.291,1.239,7.098,0.479,0.364,0.61
1794.0,2.291,1.239,7.098,0.479,0.364,0.61
1797.0,1.844,1.662,6.413,0.533,0.558,0.589
1801.0,1.844,1.662,6.413,0.533,0.558,0.589
1805.0,1.844,1.662,6.413,0.533,0.558,0.589
1808.0,1.04,2.165,5.476,0.564,0.789,0.589
1812.0,1.04,2.165,5.476,0.564,0.789,0.589
1816.0,1.04,2.165,5.476,0.564,0.789,0.589
1819.0,0.4,2.713,4.481,0.574,1.05,0.582
1823.0,0.4,2.713,4.481,0.574,1.05,0.582
1827.0,-0.037,3.173,3.568,0.571,1.355,0.532
1830.0,-0.037,3.173,3.568,0.571,1.355,0.532
1834.0,-0.037,3.173,3.568,0.571,1.355,0.532
1838.0,-0.397,3.56,3.199,0.571,1.696,0.422
1842.0,-0.397,3.56,3.199,0.571,1.696,0.422
1845.0,-0.397,3.56,3.199,0.571,1.696,0.422
1849.0,-0.997,3.995,3.171,0.611,2.05,0.262
1853.0,-0.997,3.995,3.171,0.611,2.05,0.262
1856.0,-1.624,4.356,2.819,0.716,2.381,0.127
1860.0,-1.624,4.356,2.819,0.716,2.381,0.127
1864.0,-1.624,4.356,2.819,0.716,2.381,0.127
1868.0,-1.904,4.336,2.102,0.884,2.675,0.08
1871.0,-1.904,4.336,2.102,0.884,2.675,0.08
1875.0,-1.904,4.336,1.271,0.884,2.675,0.08
1879.0,-1.862,4.153,1.271,1.103,2.94,0.105
1883.0,-1.862,4.153,1.271,1.103,2.94,0.105
1886.0,-1.683,3.763,0.425,1.355,3.195,0.172
1890.0,-1.683,3.763,0.425,1.355,3.195,0.172
1894.0,-1.683,3.763,0.425,1.355,3.195,0.172
1897.0,-1.423,3.165,-0.371,1.603,3.459,0.242
1901.0,-1.423,3.165,-0.371,1.603,3.459,0.242
1905.0,-1.345,2.475,-0.872,1.603,3.459,0.272
1909.0,-1.345,2.475,-0.872,1.819,3.756,0.272
1913.0,-1.345,2.475,-0.872,1.819,3.756,0.272
1917.0,-1.572,1.793,-1.11,1.994,4.084,0.248
1920.0,-1.572,1.793,-1.11,1.994,4.084,0.248
1924.0,-1.572,1.793,-1.11,1.994,4.084,0.248
1928.0,-1.989,1.237,-1.298,2.129,4.422,0.185
1932.0,-1.989,1.237,-1.298,2.129,4.422,0.185
1936.0,-2.521,0.751,-1.464,2.213,4.752,0.092
1940.0,-2.521,0.751,-1.464,2.213,4.752,0.092
1943.0,-2.521,0.751,-1.464,2.213,4.752,0.092
1947.0,-3.154,0.523,-1.49,2.248,4.986,-0.034
1951.0,-3.154,0.523,-1.49,2.248,4.986,-0.034
1955.0,-3.845,0.441,-1.469,2.245,5.015,-0.173
1959.0,-3.845,0.441,-1.469,2.245,5.015,-0.173
1963.0,-3.845,0.441,-1.469,2.245,5.015,-0.173
1967.0,-4.594,0.184,-1.19,2.213,5.015,-0.326
1971.0,-4.594,0.184,-1.19,2.213,5.015,-0.326
1974.0,-5.432,-0.175,-0.648,2.213,5.015,-0.503
1978.0,-5.432,-0.175,-0.648,2.174,5.015,-0.503
1982.0,-5.432,-0.175,-0.648,2.174,5.015,-0.503
1986.0,-6.372,-0.641,0.437,2.174,5.015,-0.691
1990.0,-6.372,-0.641,0.437,2.174,5.015,-0.691
1994.0,-7.536,-1.385,1.872,2.174,5.015,-0.875
1998.0,-7.536,-1.385,1.872,2.258,5.015,-0.875
2002.0,-7.536,-1.385,1.872,2.258,5.015,-0.875
2006.0,-8.897,-2.087,2.554,2.425,5.015,-1.053
2010.0,-8.897,-2.087,2.554,2.425,5.015,-1.053
2014.0,-10.185,-2.012,1.177,2.425,5.015,-1.217
2018.0,-10.185,-2.012,1.177,2.606,4.994,-1.217
2022.0,-10.185,-2.012,1.177,2.606,4.994,-1.217
2026.0,-11.247,-0.22,-0.997,2.72,4.785,-1.298
2030.0,-11.247,-0.22,-0.997,2.72,4.785,-1.298
2034.0,-11.411,2.029,-2.522,2.736,4.618,-1.192
2038.0,-11.411,2.029,-2.522,2.736,4.618,-1.192
2042.0,-11.411,2.029,-2.522,2.736,4.618,-1.192
2046.0,-9.738,2.615,-2.434,2.695,4.61,-1.005
2050.0,-9.738,2.615,-2.434,2.695,4.61,-1.005
2054.0,-7.338,2.057,-1.454,2.683,4.633,-1.005
2058.0,-7.338,2.057,-1.454,2.683,4.633,-1.005
2062.0,-7.338,2.057,-1.454,2.683,4.633,-1.005
2065.0,-6.252,1.661,0.0,2.745,4.623,-1.268
2069.0,-6.252,1.661,0.0,2.745,4.623,-1.268
2073.0,-6.839,1.708,0.891,2.745,4.623,-1.613
2077.0,-6.839,1.708,0.891,2.845,4.522,-1.613
2081.0,-6.839,1.708,0.891,2.845,4.522,-1.613
2085.0,-8.27,2.224,1.149,2.91,4.362,-1.855
2088.0,-8.27,2.224,1.149,2.91,4.362,-1.855
2092.0,-8.27,2.224,1.16,2.91,4.362,-1.855
2096.0,-9.4,2.856,1.16,2.91,4.208,-1.963
2100.0,-9.4,2.856,1.16,2.91,4.208,-1.963
2104.0,-9.823,3.334,1.191,2.845,4.073,-1.985
2107.0,-9.823,3.334,1.191,2.845,4.073,-1.985
2111.0,-9.823,3.334,1.191,2.845,4.073,-1.985
2115.0,-9.829,3.589,1.402,2.733,3.953,-1.979
2119.0,-9.829,3.589,1.402,2.733,3.953,-1.979
2123.0,-9.773,3.733,1.722,2.604,3.836,-1.995
2127.0,-9.773,3.733,1.722,2.604,3.836,-1.995
2130.0,-9.773,3.733,1.722,2.604,3.836,-1.995
2134.0,-9.771,3.925,2.136,2.486,3.707,-2.057
2138.0,-9.771,3.925,2.136,2.486,3.707,-2.057
2142.0,-9.811,4.077,2.387,2.486,3.707,-2.057
2146.0,-9.811,4.077,2.387,2.395,3.552,-2.157
2149.0,-9.811,4.077,2.387,2.395,3.552,-2.157
2153.0,-9.924,4.235,2.328,2.324,3.374,-2.267
2157.0,-9.924,4.235,2.328,2.324,3.374,-2.267
2161.0,-9.924,4.235,2.328,2.324,3.374,-2.267
2165.0,-10.116,4.334,2.116,2.265,3.2,-2.351
2169.0,-10.116,4.334,2.116,2.265,3.2,-2.351
2173.0,-10.441,4.322,1.875,2.209,3.07,-2.398
2176.0,-10.441,4.322,1.875,2.209,3.07,-2.398
2180.0,-10.441,4.322,1.875,2.209,3.07,-2.398
2184.0,-11.043,4.342,1.671,2.17,3.006,-2.42
2188.0,-11.043,4.342,1.671,2.17,3.006,-2.42
2192.0,-12.051,4.512,1.673,2.162,3.006,-2.422
2196.0,-12.051,4.512,1.673,2.162,3.006,-2.422
2200.0,-12.051,4.512,1.673,2.162,3.006,-2.422
2204.0,-13.329,4.935,1.716,2.204,3.038,-2.4
2208.0,-13.329,4.935,1.716,2.204,3.038,-2.4
2212.0,-14.663,4.796,1.836,2.325,3.078,-2.35
2216.0,-14.663,4.796,1.836,2.325,3.078,-2.35
2219.0,-14.663,4.796,1.836,2.325,3.078,-2.35
2223.0,-16.023,4.97,2.233,2.523,3.084,-2.333
2227.0,-16.023,4.97,2.233,2.523,3.084,-2.333
2231.0,-17.212,5.441,2.406,2.523,2.997,-2.336
2235.0,-17.212,5.441,2.406,2.757,2.997,-2.336
2239.0,-17.212,5.441,2.406,2.757,2.997,-2.336
2243.0,-18.213,5.825,2.039,3.014,2.82,-2.338
2247.0,-18.213,5.825,2.039,3.014,2.82,-2.338
2251.0,-18.986,6.437,1.204,3.014,2.82,-2.337
2255.0,-18.986,6.437,1.204,3.26,2.585,-2.337
2259.0,-18.986,6.437,1.204,3.26,2.585,-2.337
2262.0,-19.498,7.172,0.453,3.449,2.335,-2.295
2266.0,-19.498,7.172,0.453,3.449,2.335,-2.295
2270.0,-19.6,7.752,0.214,3.449,2.335,-2.295
2274.0,-19.6,7.752,0.214,3.562,2.094,-2.207
2278.0,-19.6,7.752,0.214,3.562,2.094,-2.207
2282.0,-19.6,8.451,0.151,3.605,1.822,-2.1
2286.0,-19.6,8.451,0.151,3.605,1.822,-2.1
2290.0,-19.6,9.127,-0.112,3.605,1.822,-2.1
2294.0,-19.6,9.127,-0.112,3.558,1.467,-1.973
2298.0,-19.6,9.127,-0.112,3.558,1.467,-1.973
2302.0,-19.6,9.733,-0.727,3.443,1.072,-1.828
2306.0,-19.6,9.733,-0.727,3.443,1.072,-1.828
2310.0,-19.6,9.9,-1.651,3.443,1.072,-1.828
2314.0,-19.6,9.9,-1.651,3.223,0.687,-1.642
2318.0,-19.6,9.9,-1.651,3.223,0.687,-1.642
2322.0,-19.6,9.809,-2.48,2.885,0.399,-1.432
2326.0,-19.6,9.809,-2.48,2.885,0.399,-1.432
2330.0,-19.6,9.587,-2.347,2.885,0.399,-1.236
2334.0,-19.6,9.587,-2.347,2.449,0.228,-1.236
2338.0,-19.6,9.587,-2.347,2.449,0.228,-1.236
2342.0,-19.527,9.291,-1.618,1.959,0.106,-1.081
2346.0,-19.527,9.291,-1.618,1.959,0.106,-1.081
2350.0,-18.383,8.895,-0.991,1.959,-0.024,-0.956
2354.0,-18.383,8.895,-0.991,1.434,-0.024,-0.956
2358.0,-18.383,8.895,-0.991,1.434,-0.024,-0.956
2362.0,-17.178,8.402,-0.745,0.871,-0.172,-0.839
2366.0,-17.178,8.402,-0.745,0.871,-0.172,-0.839
2370.0,-16.682,7.674,-1.126,0.266,-0.303,-0.713
2374.0,-16.682,7.674,-1.126,0.266,-0.303,-0.713
2378.0,-16.682,7.674,-1.126,0.266,-0.303,-0.713
2382.0,-15.778,6.642,-1.729,-0.392,-0.382,-0.607
2386.0,-15.778,6.642,-1.729,-0.392,-0.382,-0.607
2391.0,-13.866,5.613,-1.802,-1.068,-0.404,-0.588
2395.0,-13.866,5.613,-1.802,-1.068,-0.404,-0.588
2399.0,-12.281,4.733,-1.322,-1.068,-0.407,-0.68
2403.0,-12.281,4.733,-1.322,-1.69,-0.407,-0.68
2407.0,-12.281,4.733,-1.322,-1.69,-0.407,-0.68
2411.0,-11.632,3.945,-0.791,-2.203,-0.416,-0.808
2416.0,-11.632,3.945,-0.791,-2.203,-0.416,-0.808
2420.0,-11.225,3.053,-0.622,-2.593,-0.445,-0.893
2424.0,-11.225,3.053,-0.622,-2.593,-0.445,-0.893
2428.0,-10.951,2.115,-0.548,-2.593,-0.445,-0.893
2432.0,-10.951,2.115,-0.548,-2.876,-0.503,-0.938
2436.0,-10.951,2.115,-0.548,-2.876,-0.503,-0.938
2441.0,-11.341,1.261,-0.474,-3.069,-0.577,-0.959
2445.0,-11.341,1.261,-0.474,-3.069,-0.577,-0.959
2449.0,-12.163,0.617,-0.278,-3.186,-0.647,-0.945
2453.0,-12.163,0.617,-0.278,-3.186,-0.647,-0.945
2457.0,-12.163,0.617,-0.278,-3.186,-0.647,-0.945
2461.0,-12.68,-0.02,-0.062,-3.235,-0.732,-0.877
2466.0,-12.68,-0.02,-0.062,-3.235,-0.732,-0.877
2470.0,-13.005,-0.687,0.167,-3.231,-0.847,-0.768
2474.0,-13.005,-0.687,0.167,-3.231,-0.847,-0.768
2478.0,-13.308,-1.415,0.13,-3.192,-1.002,-0.628
2482.0,-13.308,-1.415,0.13,-3.192,-1.002,-0.628
2487.0,-13.308,-1.415,0.13,-3.192,-1.002,-0.628
2491.0,-13.555,-2.185,-0.145,-3.13,-1.199,-0.47
2495.0,-13.555,-2.185,-0.145,-3.13,-1.199,-0.47
2499.0,-13.605,-3.012,-0.567,-3.056,-1.435,-0.314
2504.0,-13.605,-3.012,-0.567,-3.056,-1.435,-0.314
2508.0,-13.328,-3.736,-1.041,-2.975,-1.683,-0.167
2512.0,-13.328,-3.736,-1.041,-2.975,-1.683,-0.167
2516.0,-13.328,-3.736,-1.041,-2.975,-1.683,-0.167
2521.0,-12.464,-4.3,-1.306,-2.891,-1.909,-0.039
2525.0,-12.464,-4.3,-1.306,-2.891,-1.909,-0.039
2529.0,-11.322,-4.731,-1.302,-2.793,-2.092,0.06
2533.0,-11.322,-4.731,-1.302,-2.793,-2.092,0.06
2537.0,-10.552,-5.022,-1.25,-2.668,-2.23,0.119
2542.0,-10.552,-5.022,-1.25,-2.668,-2.23,0.119
2546.0,-10.552,-5.022,-1.25,-2.668,-2.23,0.119
2550.0,-10.211,-5.207,-1.157,-2.505,-2.323,0.145
2554.0,-10.211,-5.207,-1.157,-2.505,-2.323,0.145
2558.0,-9.903,-5.189,-0.988,-2.306,-2.383,0.145
2562.0,-9.903,-5.189,-0.988,-2.306,-2.383,0.145
2566.0,-9.576,-5.109,-0.866,-2.306,-2.383,0.145
2570.0,-9.576,-5.109,-0.866,-2.087,-2.433,0.129
2575.0,-9.576,-5.109,-0.866,-2.087,-2.433,0.129
2579.0,-9.313,-4.959,-0.961,-1.877,-2.47,0.096
2583.0,-9.313,-4.959,-0.961,-1.877,-2.47,0.096
2587.0,-8.958,-4.734,-1.077,-1.7,-2.467,0.04
2591.0,-8.958,-4.734,-1.077,-1.7,-2.467,0.04
2595.0,-8.958,-4.734,-1.077,-1.7,-2.467,0.04
2599.0,-8.485,-4.432,-1.053,-1.564,-2.416,-0.04
2603.0,-8.485,-4.432,-1.053,-1.564,-2.416,-0.04
2607.0,-8.088,-4.13,-0.863,-1.472,-2.334,-0.144
2612.0,-8.088,-4.13,-0.863,-1.472,-2.334,-0.144
2616.0,-7.884,-3.847,-0.629,-1.472,-2.334,-0.144
2620.0,-7.884,-3.847,-0.629,-1.417,-2.241,-0.266
2624.0,-7.884,-3.847,-0.629,-1.417,-2.241,-0.266
2628.0,-7.742,-3.572,-0.433,-1.396,-2.147,-0.397
2632.0,-7.742,-3.572,-0.433,-1.396,-2.147,-0.397
2637.0,-7.566,-3.326,-0.35,-1.401,-2.052,-0.528
2641.0,-7.566,-3.326,-0.35,-1.401,-2.052,-0.528
2645.0,-7.566,-3.326,-0.289,-1.401,-2.052,-0.528
2649.0,-7.379,-3.127,-0.289,-1.429,-1.952,-0.653
2653.0,-7.379,-3.127,-0.289,-1.429,-1.952,-0.653
2657.0,-7.165,-2.967,-0.252,-1.471,-1.846,-0.771
2662.0,-7.165,-2.967,-0.252,-1.471,-1.846,-0.771
2666.0,-6.918,-2.824,-0.266,-1.522,-1.73,-0.881
2670.0,-6.918,-2.824,-0.266,-1.522,-1.73,-0.881
2674.0,-6.918,-2.824,-0.266,-1.522,-1.73,-0.881
2678.0,-6.62,-2.71,-0.231,-1.573,-1.602,-0.979
2682.0,-6.62,-2.71,-0.231,-1.573,-1.602,-0.979
2687.0,-6.265,-2.649,-0.173,-1.616,-1.468,-1.068
2691.0,-6.265,-2.649,-0.173,-1.616,-1.468,-1.068
2695.0,-5.896,-2.601,-0.06,-1.616,-1.468,-1.153
2699.0,-5.896,-2.601,-0.06,-1.639,-1.333,-1.153
2703.0,-5.896,-2.601,-0.06,-1.639,-1.333,-1.153
2707.0,-5.513,-2.547,0.148,-1.636,-1.2,-1.237
2711.0,-5.513,-2.547,0.148,-1.636,-1.2,-1.237
2716.0,-5.109,-2.556,0.41,-1.597,-1.077,-1.322
2720.0,-5.109,-2.556,0.41,-1.597,-1.077,-1.322
2724.0,-5.109,-2.556,0.41,-1.597,-1.077,-1.322
2728.0,-4.768,-2.591,0.683,-1.521,-0.969,-1.412
2732.0,-4.768,-2.591,0.683,-1.521,-0.969,-1.412
2736.0,-4.522,-2.621,0.948,-1.406,-0.881,-1.507
2740.0,-4.522,-2.621,0.948,-1.406,-0.881,-1.507
2744.0,-4.373,-2.642,1.171,-1.406,-0.881,-1.507
2748.0,-4.373,-2.642,1.171,-1.254,-0.812,-1.603
2752.0,-4.373,-2.642,1.171,-1.254,-0.812,-1.603
2756.0,-4.292,-2.684,1.325,-1.071,-0.763,-1.698
2760.0,-4.292,-2.684,1.325,-1.071,-0.763,-1.698
2765.0,-4.353,-2.736,1.378,-0.865,-0.732,-1.787
2769.0,-4.353,-2.736,1.378,-0.865,-0.732,-1.787
2773.0,-4.353,-2.736,1.378,-0.865,-0.732,-1.787
2777.0,-4.464,-2.833,1.421,-0.642,-0.714,-1.866
2781.0,-4.464,-2.833,1.421,-0.642,-0.714,-1.866
2785.0,-4.641,-2.986,1.47,-0.409,-0.709,-1.942
2789.0,-4.641,-2.986,1.47,-0.409,-0.709,-1.942
2793.0,-4.641,-2.986,1.479,-0.409,-0.709,-1.942
2797.0,-4.886,-3.178,1.479,-0.171,-0.714,-2.018
2801.0,-4.886,-3.178,1.479,-0.171,-0.714,-2.018
2805.0,-5.323,-3.45,1.424,0.072,-0.721,-2.091
2809.0,-5.323,-3.45,1.424,0.072,-0.721,-2.091
2813.0,-6.003,-3.727,1.342,0.072,-0.721,-2.157
2817.0,-6.003,-3.727,1.342,0.312,-0.72,-2.157
2821.0,-6.003,-3.727,1.342,0.312,-0.72,-2.157
2825.0,-6.995,-4.161,1.383,0.548,-0.714,-2.215
2829.0,-6.995,-4.161,1.383,0.548,-0.714,-2.215
2833.0,-8.541,-4.623,1.423,0.548,-0.706,-2.27
2837.0,-8.541,-4.623,1.423,0.771,-0.706,-2.27
2841.0,-8.541,-4.623,1.423,0.771,-0.706,-2.27
2845.0,-10.655,-5.007,1.35,0.977,-0.69,-2.305
2849.0,-10.655,-5.007,1.35,0.977,-0.69,-2.305
2853.0,-13.25,-5.389,1.348,1.17,-0.67,-2.291
2857.0,-13.25,-5.389,1.348,1.17,-0.67,-2.291
2862.0,-13.25,-5.389,1.348,1.17,-0.67,-2.291
2866.0,-15.706,-5.735,1.446,1.345,-0.669,-2.203
2870.0,-15.706,-5.735,1.446,1.345,-0.669,-2.203
2874.0,-17.149,-6.127,1.517,1.497,-0.701,-2.038
2878.0,-17.149,-6.127,1.517,1.497,-0.701,-2.038
2882.0,-17.149,-6.127,1.538,1.497,-0.701,-2.038
2886.0,-17.597,-6.534,1.538,1.622,-0.752,-1.831
2890.0,-17.597,-6.534,1.538,1.622,-0.752,-1.831
2894.0,-17.959,-6.829,1.418,1.72,-0.785,-1.63
2898.0,-17.959,-6.829,1.418,1.72,-0.785,-1.63
2902.0,-18.428,-6.84,1.211,1.72,-0.769,-1.441
2906.0,-18.428,-6.84,1.211,1.782,-0.769,-1.441
2911.0,-18.428,-6.84,1.211,1.782,-0.769,-1.441
2915.0,-18.903,-6.761,0.895,1.796,-0.711,-1.239
2919.0,-18.903,-6.761,0.895,1.796,-0.711,-1.239
2923.0,-19.273,-6.591,0.56,1.754,-0.628,-1.008
2927.0,-19.273,-6.591,0.56,1.754,-0.628,-1.008
2931.0,-19.273,-6.591,0.56,1.754,-0.628,-1.008
2935.0,-19.045,-6.377,0.31,1.661,-0.537,-0.745
2939.0,-19.045,-6.377,0.31,1.661,-0.537,-0.745
2943.0,-18.143,-6.13,0.139,1.531,-0.454,-0.479
2947.0,-18.143,-6.13,0.139,1.531,-0.454,-0.479
2951.0,-17.2,-5.921,0.096,1.531,-0.454,-0.479
2955.0,-17.2,-5.921,0.096,1.374,-0.375,-0.236
2959.0,-17.2,-5.921,0.096,1.374,-0.375,-0.236
2964.0,-16.071,-5.612,0.147,1.199,-0.283,-0.023
2968.0,-16.071,-5.612,0.147,1.199,-0.283,-0.023
2972.0,-14.687,-5.264,0.293,1.01,-0.183,0.172
2976.0,-14.687,-5.264,0.293,1.01,-0.183,0.172
2980.0,-14.687,-5.264,0.293,1.01,-0.183,0.172
2984.0,-13.398,-5.014,0.491,0.811,-0.082,0.355
2988.0,-13.398,-5.014,0.491,0.811,-0.082,0.355
2992.0,-12.173,-4.806,0.749,0.612,0.019,0.516
2996.0,-12.173,-4.806,0.749,0.612,0.019,0.516
2999.0,-12.173,-4.806,0.749,0.612,0.019,0.516
