deltaTime,Acc_X,Acc_Y,Acc_Z,Gyro_X,Gyro_Y,Gyro_Z
0.0,-11.638,-0.785,4.142,-0.067,-0.111,-0.171
3.0,-11.638,-0.785,4.142,-0.067,-0.111,-0.171
6.0,-11.638,-0.785,4.142,-0.067,-0.111,-0.171
9.0,-11.638,-1.369,3.753,-0.067,-0.111,-0.171
12.0,-10.074,-1.369,3.753,-0.118,-0.132,-0.133
15.0,-10.074,-1.369,3.753,-0.118,-0.132,-0.133
18.0,-10.074,-1.369,3.753,-0.118,-0.132,-0.133
21.0,-9.274,-1.928,3.878,-0.056,-0.15,-0.125
24.0,-9.274,-1.928,3.878,-0.056,-0.15,-0.125
27.0,-9.274,-1.928,3.878,-0.056,-0.15,-0.125
30.0,-9.424,-1.989,3.511,0.081,-0.231,-0.144
34.0,-9.424,-1.989,3.511,0.081,-0.231,-0.144
38.0,-9.424,-1.989,2.449,0.081,-0.231,-0.144
42.0,-10.112,-1.506,2.449,0.206,-0.351,-0.162
46.0,-10.112,-1.506,2.449,0.206,-0.351,-0.162
50.0,-11.233,-1.212,1.161,0.242,-0.432,-0.148
54.0,-11.233,-1.212,1.161,0.242,-0.432,-0.148
58.0,-11.233,-1.212,1.161,0.242,-0.432,-0.148
61.0,-12.617,-1.452,0.191,0.214,-0.441,-0.12
65.0,-12.617,-1.452,0.191,0.214,-0.441,-0.12
69.0,-13.164,-1.39,-0.019,0.196,-0.448,-0.094
73.0,-13.164,-1.39,-0.019,0.196,-0.448,-0.094
77.0,-13.164,-1.39,-0.019,0.196,-0.448,-0.094
81.0,-11.626,-3.047,-0.013,0.224,-0.787,-0.066
85.0,-11.626,-3.047,-0.013,0.224,-0.787,-0.066
89.0,-14.409,-2.193,-0.917,0.404,-0.498,-0.056
93.0,-14.409,-2.193,-0.917,0.404,-0.498,-0.056
97.0,-14.409,-2.193,-0.917,0.404,-0.498,-0.056
101.0,-13.418,-1.751,-0.578,0.402,-0.464,-0.102
105.0,-13.418,-1.751,-0.578,0.402,-0.464,-0.102
109.0,-12.278,-1.748,-0.855,0.366,-0.428,-0.136
113.0,-12.278,-1.748,-0.855,0.366,-0.428,-0.136
117.0,-11.349,-1.975,-0.706,0.366,-0.428,-0.136
122.0,-11.349,-1.975,-0.706,0.378,-0.416,-0.176
126.0,-11.349,-1.975,-0.706,0.378,-0.416,-0.176
130.0,-10.369,-1.883,-0.654,0.43,-0.389,-0.233
134.0,-10.369,-1.883,-0.654,0.43,-0.389,-0.233
138.0,-9.642,-2.002,-0.258,0.466,-0.331,-0.288
142.0,-9.642,-2.002,-0.258,0.466,-0.331,-0.288
146.0,-9.642,-2.002,-0.258,0.466,-0.331,-0.288
150.0,-9.24,-2.122,0.408,0.497,-0.27,-0.335
154.0,-9.24,-2.122,0.408,0.497,-0.27,-0.335
158.0,-9.056,-2.314,1.174,0.527,-0.224,-0.367
162.0,-9.056,-2.314,1.174,0.527,-0.224,-0.367
165.0,-9.056,-2.314,1.174,0.527,-0.224,-0.367
169.0,-9.242,-2.378,1.688,0.577,-0.198,-0.374
173.0,-9.242,-2.378,1.688,0.577,-0.198,-0.374
177.0,-9.157,-2.476,2.173,0.647,-0.186,-0.347
181.0,-9.157,-2.476,2.173,0.647,-0.186,-0.347
185.0,-9.157,-2.476,2.173,0.647,-0.186,-0.347
189.0,-8.585,-2.074,2.118,0.738,-0.182,-0.302
193.0,-8.585,-2.074,2.118,0.738,-0.182,-0.302
197.0,-8.508,-2.113,2.008,0.738,-0.216,-0.247
201.0,-8.508,-2.113,2.008,0.793,-0.216,-0.247
205.0,-8.508,-2.113,2.008,0.793,-0.216,-0.247
208.0,-8.133,-2.017,1.814,0.851,-0.23,-0.17
212.0,-8.133,-2.017,1.814,0.851,-0.23,-0.17
216.0,-7.708,-2.081,1.89,0.851,-0.23,-0.093
220.0,-7.708,-2.081,1.89,0.904,-0.207,-0.093
224.0,-7.708,-2.081,1.89,0.904,-0.207,-0.093
228.0,-7.325,-2.248,2.106,0.975,-0.178,-0.028
232.0,-7.325,-2.248,2.106,0.975,-0.178,-0.028
236.0,-6.891,-2.283,2.212,0.975,-0.178,-0.028
240.0,-6.891,-2.283,2.212,1.063,-0.152,0.019
244.0,-6.891,-2.283,2.212,1.063,-0.152,0.019
247.0,-6.581,-2.2,2.332,1.134,-0.116,0.053
251.0,-6.581,-2.2,2.332,1.134,-0.116,0.053
255.0,-6.581,-2.2,2.332,1.134,-0.116,0.053
259.0,-6.395,-2.164,2.509,1.168,-0.066,0.062
263.0,-6.395,-2.164,2.509,1.168,-0.066,0.062
266.0,-6.22,-2.441,2.59,1.199,-0.018,0.065
270.0,-6.22,-2.441,2.59,1.199,-0.018,0.065
274.0,-6.22,-2.441,2.59,1.199,-0.018,0.065
278.0,-5.844,-2.743,2.431,1.275,0.022,0.068
282.0,-5.844,-2.743,2.431,1.275,0.022,0.068
285.0,-5.552,-3.279,2.444,1.275,0.022,0.052
289.0,-5.552,-3.279,2.444,1.407,0.079,0.052
293.0,-5.552,-3.279,2.444,1.407,0.079,0.052
297.0,-5.391,-3.621,2.42,1.601,0.127,0.002
300.0,-5.391,-3.621,2.42,1.601,0.127,0.002
304.0,-5.391,-3.621,2.42,1.601,0.127,0.002
308.0,-5.262,-3.75,2.113,1.797,0.157,-0.05
312.0,-5.262,-3.75,2.113,1.797,0.157,-0.05
315.0,-5.153,-3.626,1.568,1.967,0.144,-0.079
319.0,-5.153,-3.626,1.568,1.967,0.144,-0.079
323.0,-5.153,-3.626,1.568,1.967,0.144,-0.079
327.0,-5.109,-3.316,1.216,2.085,0.093,-0.107
331.0,-5.109,-3.316,1.216,2.085,0.093,-0.107
334.0,-5.085,-3.36,1.181,2.085,0.093,-0.107
338.0,-5.085,-3.36,1.181,2.131,0.038,-0.163
342.0,-5.085,-3.36,1.181,2.131,0.038,-0.163
346.0,-4.999,-3.458,1.269,2.149,0.039,-0.233
350.0,-4.999,-3.458,1.269,2.149,0.039,-0.233
354.0,-4.999,-3.458,1.269,2.149,0.039,-0.233
357.0,-4.959,-3.619,1.344,2.149,0.084,-0.313
361.0,-4.959,-3.619,1.344,2.149,0.084,-0.313
365.0,-5.041,-3.723,1.489,2.125,0.127,-0.406
369.0,-5.041,-3.723,1.489,2.125,0.127,-0.406
373.0,-5.041,-3.723,1.489,2.125,0.127,-0.406
377.0,-5.157,-3.683,1.621,2.072,0.138,-0.512
380.0,-5.157,-3.683,1.621,2.072,0.138,-0.512
384.0,-5.222,-3.601,1.741,2.072,0.138,-0.622
388.0,-5.222,-3.601,1.741,1.992,0.123,-0.622
392.0,-5.222,-3.601,1.741,1.992,0.123,-0.622
396.0,-5.177,-3.6,1.881,1.891,0.094,-0.726
399.0,-5.177,-3.6,1.881,1.891,0.094,-0.726
403.0,-5.177,-3.6,1.897,1.891,0.094,-0.726
407.0,-5.089,-3.708,1.897,1.776,0.065,-0.821
411.0,-5.089,-3.708,1.897,1.776,0.065,-0.821
415.0,-5.082,-3.987,1.969,1.661,0.052,-0.898
419.0,-5.082,-3.987,1.969,1.661,0.052,-0.898
422.0,-5.082,-3.987,1.969,1.661,0.052,-0.898
426.0,-5.296,-4.508,2.203,1.552,0.051,-0.976
430.0,-5.296,-4.508,2.203,1.552,0.051,-0.976
434.0,-5.768,-5.043,2.448,1.467,0.056,-1.079
438.0,-5.768,-5.043,2.448,1.467,0.056,-1.079
441.0,-5.768,-5.043,2.448,1.467,0.056,-1.079
445.0,-6.576,-5.515,2.701,1.427,0.062,-1.196
449.0,-6.576,-5.515,2.701,1.427,0.062,-1.196
453.0,-6.576,-5.85,2.995,1.427,0.062,-1.196
457.0,-7.558,-5.85,2.995,1.443,0.058,-1.308
461.0,-7.558,-5.85,2.995,1.443,0.058,-1.308
464.0,-8.438,-6.257,3.455,1.507,0.028,-1.41
468.0,-8.438,-6.257,3.455,1.507,0.028,-1.41
472.0,-8.438,-6.257,3.455,1.507,0.028,-1.41
476.0,-9.032,-6.8,3.958,1.592,-0.044,-1.54
480.0,-9.032,-6.8,3.958,1.592,-0.044,-1.54
484.0,-9.47,-7.296,4.405,1.674,-0.146,-1.739
488.0,-9.47,-7.296,4.405,1.674,-0.146,-1.739
491.0,-9.47,-7.296,4.405,1.674,-0.146,-1.739
495.0,-10.095,-7.569,4.695,1.736,-0.247,-1.999
499.0,-10.095,-7.569,4.695,1.736,-0.247,-1.999
503.0,-11.142,-7.897,4.936,1.774,-0.32,-2.267
507.0,-11.142,-7.897,4.936,1.774,-0.32,-2.267
511.0,-11.142,-7.897,4.936,1.774,-0.32,-2.267
515.0,-12.444,-8.402,5.317,1.799,-0.371,-2.503
519.0,-12.444,-8.402,5.317,1.799,-0.371,-2.503
523.0,-13.729,-9.189,5.615,1.82,-0.44,-2.692
527.0,-13.729,-9.189,5.615,1.82,-0.44,-2.692
531.0,-13.729,-9.189,5.615,1.82,-0.44,-2.692
535.0,-14.678,-10.344,5.937,1.838,-0.527,-2.835
539.0,-14.678,-10.344,5.937,1.838,-0.527,-2.835
543.0,-15.346,-11.456,6.383,1.872,-0.621,-2.936
548.0,-15.346,-11.456,6.383,1.872,-0.621,-2.936
552.0,-15.346,-12.435,6.85,1.872,-0.621,-2.936
556.0,-15.936,-12.435,6.85,1.932,-0.728,-3.008
560.0,-15.936,-12.435,6.85,1.932,-0.728,-3.008
564.0,-16.512,-13.379,7.29,2.009,-0.853,-3.08
568.0,-16.512,-13.379,7.29,2.009,-0.853,-3.08
572.0,-16.841,-14.16,7.762,2.09,-0.99,-3.207
576.0,-16.841,-14.16,7.762,2.09,-0.99,-3.207
580.0,-16.841,-14.16,7.762,2.09,-0.99,-3.207
584.0,-17.101,-14.636,7.999,2.155,-1.117,-3.406
588.0,-17.101,-14.636,7.999,2.155,-1.117,-3.406
592.0,-17.228,-15.011,8.028,2.215,-1.202,-3.652
596.0,-17.228,-15.011,8.028,2.215,-1.202,-3.652
601.0,-17.228,-15.011,8.028,2.215,-1.202,-3.652
605.0,-17.067,-15.656,8.091,2.297,-1.239,-3.895
609.0,-17.067,-15.656,8.091,2.297,-1.239,-3.895
613.0,-16.682,-16.441,8.386,2.423,-1.25,-4.113
617.0,-16.682,-16.441,8.386,2.423,-1.25,-4.113
621.0,-16.166,-17.105,8.927,2.423,-1.25,-4.113
625.0,-16.166,-17.105,8.927,2.632,-1.27,-4.295
629.0,-16.166,-17.105,8.927,2.632,-1.27,-4.295
633.0,-15.267,-17.581,9.424,2.968,-1.313,-4.454
637.0,-15.267,-17.581,9.424,2.968,-1.313,-4.454
641.0,-14.034,-17.434,10.015,3.439,-1.368,-4.612
646.0,-14.034,-17.434,10.015,3.439,-1.368,-4.612
650.0,-14.034,-17.434,10.015,3.439,-1.368,-4.612
654.0,-13.08,-16.94,10.552,4.012,-1.447,-4.78
658.0,-13.08,-16.94,10.552,4.012,-1.447,-4.78
662.0,-12.609,-15.881,10.394,4.637,-1.555,-4.943
666.0,-12.609,-15.881,10.394,4.637,-1.555,-4.943
671.0,-12.133,-14.442,9.631,4.637,-1.676,-4.994
675.0,-12.133,-14.442,9.631,4.979,-1.676,-4.994
679.0,-12.133,-14.442,9.631,4.979,-1.676,-4.994
683.0,-11.716,-13.01,8.717,4.995,-1.821,-4.995
687.0,-11.716,-13.01,8.717,4.995,-1.821,-4.995
691.0,-11.84,-11.929,8.078,4.995,-2.028,-4.995
695.0,-11.84,-11.929,8.078,4.995,-2.028,-4.995
699.0,-11.84,-11.929,8.078,4.995,-2.028,-4.995
703.0,-11.978,-10.583,7.166,4.995,-2.308,-4.994
707.0,-11.978,-10.583,7.166,4.995,-2.308,-4.994
711.0,-11.722,-9.334,6.489,4.995,-2.611,-4.939
715.0,-11.722,-9.334,6.489,4.995,-2.611,-4.939
719.0,-11.722,-8.502,6.274,4.995,-2.611,-4.939
723.0,-11.405,-8.502,6.274,4.995,-2.911,-4.786
727.0,-11.405,-8.502,6.274,4.995,-2.911,-4.786
731.0,-11.284,-7.89,6.083,4.995,-3.218,-4.638
735.0,-11.284,-7.89,6.083,4.995,-3.218,-4.638
739.0,-10.655,-6.849,5.41,4.995,-3.218,-4.638
743.0,-10.655,-6.849,5.41,4.995,-3.507,-4.502
747.0,-10.655,-6.849,5.41,4.995,-3.507,-4.502
751.0,-9.613,-5.261,4.295,4.995,-3.742,-4.314
755.0,-9.613,-5.261,4.295,4.995,-3.742,-4.314
759.0,-8.571,-3.69,3.293,4.995,-3.742,-4.314
763.0,-8.571,-3.69,3.293,4.995,-3.895,-4.014
767.0,-8.571,-3.69,3.293,4.995,-3.895,-4.014
771.0,-7.426,-2.265,2.895,4.995,-3.935,-3.626
775.0,-7.426,-2.265,2.895,4.995,-3.935,-3.626
779.0,-7.426,-1.238,3.095,4.995,-3.935,-3.626
782.0,-6.784,-1.238,3.095,4.995,-3.864,-3.254
786.0,-6.784,-1.238,3.095,4.995,-3.864,-3.254
790.0,-6.647,-0.368,3.394,4.995,-3.759,-3.01
794.0,-6.647,-0.368,3.394,4.995,-3.759,-3.01
798.0,-6.647,-0.368,3.637,4.995,-3.759,-3.01
802.0,-6.401,0.534,3.637,4.995,-3.653,-2.929
806.0,-6.401,0.534,3.637,4.995,-3.653,-2.929
810.0,-5.879,1.436,3.843,4.995,-3.521,-2.956
813.0,-5.879,1.436,3.843,4.995,-3.521,-2.956
817.0,-5.879,1.436,3.843,4.995,-3.521,-2.956
821.0,-5.677,1.81,3.151,4.845,-3.281,-2.991
825.0,-5.677,1.81,3.151,4.845,-3.281,-2.991
829.0,-4.985,2.024,3.243,4.132,-3.157,-3.024
833.0,-4.985,2.024,3.243,4.132,-3.157,-3.024
836.0,-4.985,2.024,3.243,4.132,-3.157,-3.024
840.0,-5.02,1.89,3.092,3.356,-2.871,-2.984
844.0,-5.02,1.89,3.092,3.356,-2.871,-2.984
848.0,-5.187,1.628,2.934,3.356,-2.871,-2.984
852.0,-5.187,1.628,2.934,2.734,-2.573,-2.884
856.0,-5.187,1.628,2.934,2.734,-2.573,-2.884
859.0,-5.393,1.481,2.81,2.306,-2.278,-2.718
863.0,-5.393,1.481,2.81,2.306,-2.278,-2.718
867.0,-5.393,1.481,2.81,2.306,-2.278,-2.718
871.0,-5.743,1.526,2.7,2.07,-1.997,-2.481
875.0,-5.743,1.526,2.7,2.07,-1.997,-2.481
878.0,-6.076,1.772,2.619,1.972,-1.743,-2.179
882.0,-6.076,1.772,2.619,1.972,-1.743,-2.179
886.0,-6.076,1.772,2.619,1.972,-1.743,-2.179
890.0,-6.338,1.99,2.535,1.949,-1.52,-1.823
894.0,-6.338,1.99,2.535,1.949,-1.52,-1.823
898.0,-6.5,2.174,2.422,1.949,-1.52,-1.448
901.0,-6.5,2.174,2.422,1.96,-1.321,-1.448
905.0,-6.5,2.174,2.422,1.96,-1.321,-1.448
909.0,-6.596,2.431,2.287,1.967,-1.136,-1.077
913.0,-6.596,2.431,2.287,1.967,-1.136,-1.077
917.0,-6.596,2.431,2.314,1.967,-1.136,-1.077
920.0,-6.482,2.819,2.314,1.947,-0.969,-0.742
924.0,-6.482,2.819,2.314,1.947,-0.969,-0.742
928.0,-6.449,3.437,2.43,1.897,-0.812,-0.44
932.0,-6.449,3.437,2.43,1.897,-0.812,-0.44
936.0,-6.449,3.437,2.43,1.897,-0.812,-0.44
940.0,-7.043,4.629,2.878,1.825,-0.65,-0.129
943.0,-7.043,4.629,2.878,1.825,-0.65,-0.129
947.0,-8.313,6.076,3.322,1.772,-0.505,0.22
951.0,-8.313,6.076,3.322,1.772,-0.505,0.22
955.0,-8.313,6.076,3.322,1.772,-0.505,0.22
958.0,-9.333,7.479,3.778,1.756,-0.375,0.589
962.0,-9.333,7.479,3.778,1.756,-0.375,0.589
966.0,-9.333,7.479,3.778,1.756,-0.375,0.589
970.0,-9.698,8.783,4.4,1.759,-0.249,0.952
973.0,-9.698,8.783,4.4,1.759,-0.249,0.952
977.0,-9.361,10.339,5.158,1.762,-0.107,1.31
981.0,-9.361,10.339,5.158,1.762,-0.107,1.31
985.0,-9.361,10.339,5.158,1.762,-0.107,1.31
988.0,-8.78,11.694,6.291,1.741,0.088,1.72
992.0,-8.78,11.694,6.291,1.741,0.088,1.72
996.0,-8.432,12.398,7.689,1.741,0.088,1.72
1000.0,-8.432,12.398,7.689,1.68,0.336,2.205
1004.0,-8.432,12.398,7.689,1.68,0.336,2.205
1007.0,-8.393,12.528,9.232,1.592,0.571,2.743
1011.0,-8.393,12.528,9.232,1.592,0.571,2.743
1015.0,-8.393,12.528,9.232,1.592,0.571,2.743
1019.0,-9.172,12.535,10.594,1.527,0.739,3.302
1023.0,-9.172,12.535,10.594,1.527,0.739,3.302
1027.0,-10.052,12.336,11.329,1.512,0.82,3.904
1031.0,-10.052,12.336,11.329,1.512,0.82,3.904
1035.0,-10.052,12.336,11.329,1.512,0.82,3.904
1039.0,-10.258,12.018,11.566,1.519,0.825,4.544
1043.0,-10.258,12.018,11.566,1.519,0.825,4.544
1047.0,-10.137,11.694,11.24,1.507,0.787,4.974
1051.0,-10.137,11.694,11.24,1.507,0.787,4.974
1055.0,-10.137,11.694,11.24,1.507,0.787,4.974
1059.0,-10.126,11.559,10.558,1.427,0.744,5.013
1063.0,-10.126,11.559,10.558,1.427,0.744,5.013
1067.0,-10.373,11.133,9.732,1.234,0.693,5.013
1070.0,-10.373,11.133,9.732,1.234,0.693,5.013
1074.0,-10.373,11.133,9.732,1.234,0.693,5.013
1078.0,-10.345,10.39,8.882,0.97,0.65,5.013
1082.0,-10.345,10.39,8.882,0.97,0.65,5.013
1086.0,-10.125,9.316,8.109,0.66,0.604,5.013
1090.0,-10.125,9.316,8.109,0.66,0.604,5.013
1094.0,-10.125,9.316,8.109,0.66,0.604,5.013
1098.0,-9.788,8.346,7.528,0.362,0.569,5.013
1101.0,-9.788,8.346,7.528,0.362,0.569,5.013
1105.0,-9.612,7.616,7.445,0.362,0.546,5.013
1109.0,-9.612,7.616,7.445,0.114,0.546,5.013
1112.0,-9.612,7.616,7.445,0.114,0.546,5.013
1116.0,-9.295,6.539,7.659,-0.086,0.502,5.013
1120.0,-9.295,6.539,7.659,-0.086,0.502,5.013
1124.0,-9.295,6.539,7.917,-0.086,0.502,5.013
1128.0,-8.782,5.493,7.917,-0.229,0.446,5.013
1131.0,-8.782,5.493,7.917,-0.229,0.446,5.013
1135.0,-8.511,4.708,8.087,-0.317,0.405,5.013
1139.0,-8.511,4.708,8.087,-0.317,0.405,5.013
1143.0,-8.511,4.708,8.087,-0.317,0.405,5.013
1147.0,-8.431,3.905,7.784,-0.416,0.38,5.013
1151.0,-8.431,3.905,7.784,-0.416,0.38,5.013
1154.0,-8.428,3.374,7.461,-0.416,0.389,5.013
1158.0,-8.428,3.374,7.461,-0.536,0.389,5.013
1162.0,-8.428,3.374,7.461,-0.536,0.389,5.013
1166.0,-8.322,2.488,6.949,-0.678,0.41,5.013
1170.0,-8.322,2.488,6.949,-0.678,0.41,5.013
1173.0,-8.322,1.636,6.321,-0.678,0.41,5.013
1177.0,-8.061,1.636,6.321,-0.848,0.43,5.013
1181.0,-8.061,1.636,6.321,-0.848,0.43,5.013
1185.0,-7.644,0.984,5.847,-1.031,0.438,5.013
1189.0,-7.644,0.984,5.847,-1.031,0.438,5.013
1193.0,-7.644,0.984,5.847,-1.031,0.438,5.013
1196.0,-6.996,0.317,5.549,-1.205,0.43,5.013
1200.0,-6.996,0.317,5.549,-1.205,0.43,5.013
1204.0,-6.406,-0.465,5.682,-1.363,0.413,5.013
1208.0,-6.406,-0.465,5.682,-1.363,0.413,5.013
1212.0,-6.406,-0.465,5.682,-1.363,0.413,5.013
1216.0,-6.203,-1.623,6.352,-1.511,0.362,5.013
1220.0,-6.203,-1.623,6.352,-1.511,0.362,5.013
1224.0,-6.295,-3.347,7.003,-1.661,0.231,5.013
1227.0,-6.295,-3.347,7.003,-1.661,0.231,5.013
1231.0,-6.295,-3.347,7.003,-1.661,0.231,5.013
1235.0,-6.291,-4.96,7.046,-1.79,0.058,5.013
1239.0,-6.291,-4.96,7.046,-1.79,0.058,5.013
1243.0,-5.793,-6.196,6.973,-1.79,-0.099,5.013
1247.0,-5.793,-6.196,6.973,-1.894,-0.099,5.013
1251.0,-5.793,-6.196,6.973,-1.894,-0.099,5.013
1255.0,-4.756,-6.955,6.236,-1.988,-0.252,5.013
1259.0,-4.756,-6.955,6.236,-1.988,-0.252,5.013
1263.0,-3.348,-7.004,5.026,-2.101,-0.413,4.955
1267.0,-3.348,-7.004,5.026,-2.101,-0.413,4.955
1271.0,-3.348,-7.004,5.026,-2.101,-0.413,4.955
1275.0,-1.522,-6.897,4.303,-2.257,-0.606,4.603
1279.0,-1.522,-6.897,4.303,-2.257,-0.606,4.603
1283.0,0.762,-7.052,4.085,-2.445,-0.86,4.173
1287.0,0.762,-7.052,4.085,-2.445,-0.86,4.173
1291.0,0.762,-7.052,4.085,-2.445,-0.86,4.173
1295.0,3.404,-8.52,4.335,-2.6,-1.132,3.77
1299.0,3.404,-8.52,4.335,-2.6,-1.132,3.77
1303.0,5.603,-11.101,4.603,-2.543,-1.343,3.391
1307.0,5.603,-11.101,4.603,-2.543,-1.343,3.391
1311.0,5.603,-11.101,4.603,-2.543,-1.343,3.391
1315.0,6.55,-13.097,4.663,-2.135,-1.435,3.043
1319.0,6.55,-13.097,4.663,-2.135,-1.435,3.043
1323.0,6.761,-14.069,4.462,-1.465,-1.416,2.753
1327.0,6.761,-14.069,4.462,-1.465,-1.416,2.753
1330.0,6.761,-14.069,4.462,-1.465,-1.416,2.753
1334.0,7.026,-14.296,4.19,-0.718,-1.32,2.51
1338.0,7.026,-14.296,4.19,-0.718,-1.32,2.51
1342.0,7.514,-14.116,4.087,-0.035,-1.184,2.315
1346.0,7.514,-14.116,4.087,-0.035,-1.184,2.315
1350.0,7.514,-14.116,4.087,-0.035,-1.184,2.315
1354.0,8.197,-13.686,3.979,0.491,-1.018,2.152
1358.0,8.197,-13.686,3.979,0.491,-1.018,2.152
1362.0,9.127,-13.009,3.699,0.816,-0.834,1.976
1366.0,9.127,-13.009,3.699,0.816,-0.834,1.976
1370.0,9.127,-13.009,3.699,0.816,-0.834,1.976
1374.0,10.423,-12.272,3.58,0.931,-0.676,1.758
1378.0,10.423,-12.272,3.58,0.931,-0.676,1.758
1382.0,11.65,-11.46,3.41,0.868,-0.556,1.509
1386.0,11.65,-11.46,3.41,0.868,-0.556,1.509
1390.0,11.65,-11.46,3.41,0.868,-0.556,1.509
1394.0,12.441,-10.803,3.114,0.694,-0.414,1.263
1398.0,12.441,-10.803,3.114,0.694,-0.414,1.263
1402.0,12.364,-10.618,2.952,0.474,-0.218,1.071
1406.0,12.364,-10.618,2.952,0.474,-0.218,1.071
1410.0,12.364,-10.618,2.952,0.474,-0.218,1.071
1414.0,10.752,-10.752,2.834,0.273,0.014,0.936
1418.0,10.752,-10.752,2.834,0.273,0.014,0.936
1422.0,7.93,-10.811,2.38,0.133,0.25,0.821
1426.0,7.93,-10.811,2.38,0.133,0.25,0.821
1429.0,7.93,-10.811,2.38,0.133,0.25,0.821
1433.0,5.244,-10.287,1.599,0.063,0.441,0.676
1437.0,5.244,-10.287,1.599,0.063,0.441,0.676
1441.0,3.495,-9.299,0.939,0.034,0.567,0.512
1445.0,3.495,-9.299,0.939,0.034,0.567,0.512
1448.0,3.495,-9.299,0.939,0.034,0.567,0.512
1452.0,2.527,-8.177,0.424,0.016,0.673,0.397
1456.0,2.527,-8.177,0.424,0.016,0.673,0.397
1459.0,2.527,-8.177,0.144,0.016,0.673,0.397
1463.0,1.905,-6.985,0.144,-0.002,0.794,0.375
1467.0,1.905,-6.985,0.144,-0.002,0.794,0.375
1471.0,1.341,-5.85,-0.038,-0.018,0.926,0.44
1475.0,1.341,-5.85,-0.038,-0.018,0.926,0.44
1479.0,1.341,-5.85,-0.038,-0.018,0.926,0.44
1483.0,0.793,-4.813,-0.173,-0.034,1.061,0.562
1486.0,0.793,-4.813,-0.173,-0.034,1.061,0.562
1490.0,0.371,-3.983,-0.215,-0.061,1.201,0.709
1494.0,0.371,-3.983,-0.215,-0.061,1.201,0.709
1498.0,0.371,-3.983,-0.215,-0.061,1.201,0.709
1502.0,0.163,-3.406,-0.255,-0.092,1.354,0.86
1506.0,0.163,-3.406,-0.255,-0.092,1.354,0.86
1510.0,0.162,-3.118,-0.303,-0.11,1.514,1.007
1514.0,0.162,-3.118,-0.303,-0.11,1.514,1.007
1518.0,0.162,-3.118,-0.303,-0.11,1.514,1.007
1522.0,0.243,-2.941,-0.461,-0.098,1.676,1.136
1526.0,0.243,-2.941,-0.461,-0.098,1.676,1.136
1529.0,0.331,-2.726,-0.716,-0.098,1.854,1.249
1533.0,0.331,-2.726,-0.716,-0.054,1.854,1.249
1537.0,0.331,-2.726,-0.716,-0.054,1.854,1.249
1541.0,0.342,-2.514,-0.96,0.009,2.057,1.356
1545.0,0.342,-2.514,-0.96,0.009,2.057,1.356
1549.0,0.207,-2.227,-1.147,0.009,2.057,1.356
1553.0,0.207,-2.227,-1.147,0.074,2.281,1.458
1556.0,0.207,-2.227,-1.147,0.074,2.281,1.458
1560.0,-0.06,-1.895,-1.323,0.122,2.52,1.563
1564.0,-0.06,-1.895,-1.323,0.122,2.52,1.563
1568.0,-0.06,-1.895,-1.508,0.122,2.52,1.563
1572.0,-0.531,-1.528,-1.508,0.137,2.772,1.678
1576.0,-0.531,-1.528,-1.508,0.137,2.772,1.678
1580.0,-1.135,-1.175,-1.717,0.112,3.029,1.804
1584.0,-1.135,-1.175,-1.717,0.112,3.029,1.804
1588.0,-1.135,-1.175,-1.717,0.112,3.029,1.804
1592.0,-1.841,-0.864,-1.832,0.047,3.285,1.941
1595.0,-1.841,-0.864,-1.832,0.047,3.285,1.941
1599.0,-2.47,-0.686,-1.997,-0.046,3.532,2.087
1603.0,-2.47,-0.686,-1.997,-0.046,3.532,2.087
1607.0,-2.47,-0.686,-1.997,-0.046,3.532,2.087
1611.0,-3.032,-0.645,-2.312,-0.154,3.779,2.231
1615.0,-3.032,-0.645,-2.312,-0.154,3.779,2.231
1619.0,-3.637,-0.632,-2.545,-0.274,4.038,2.368
1623.0,-3.637,-0.632,-2.545,-0.274,4.038,2.368
1627.0,-3.637,-0.632,-2.757,-0.274,4.038,2.368
1631.0,-4.271,-0.722,-2.757,-0.397,4.303,2.505
1635.0,-4.271,-0.722,-2.757,-0.397,4.303,2.505
1639.0,-4.965,-1.027,-3.066,-0.517,4.574,2.65
1643.0,-4.965,-1.027,-3.066,-0.517,4.574,2.65
1647.0,-4.965,-1.333,-3.24,-0.517,4.574,2.65
1651.0,-5.833,-1.333,-3.24,-0.624,4.855,2.804
1655.0,-5.833,-1.333,-3.24,-0.624,4.855,2.804
1659.0,-6.807,-1.646,-3.19,-0.706,5.008,2.98
1663.0,-6.807,-1.646,-3.19,-0.706,5.008,2.98
1667.0,-7.938,-1.953,-2.754,-0.706,5.008,2.98
1671.0,-7.938,-1.953,-2.754,-0.749,5.015,3.181
1675.0,-7.938,-1.953,-2.754,-0.749,5.015,3.181
1679.0,-9.172,-2.282,-2.044,-0.745,5.015,3.405
1683.0,-9.172,-2.282,-2.044,-0.745,5.015,3.405
1687.0,-10.703,-2.63,-1.067,-0.745,5.015,3.646
1691.0,-10.703,-2.63,-1.067,-0.679,5.015,3.646
1695.0,-10.703,-2.63,-1.067,-0.679,5.015,3.646
1699.0,-12.518,-3.081,0.042,-0.542,5.015,3.905
1703.0,-12.518,-3.081,0.042,-0.542,5.015,3.905
1707.0,-14.508,-3.592,1.446,-0.339,5.015,4.17
1711.0,-14.508,-3.592,1.446,-0.339,5.015,4.17
1715.0,-14.508,-3.592,1.446,-0.339,5.015,4.17
1719.0,-15.84,-4.288,2.884,-0.074,5.015,4.435
1723.0,-15.84,-4.288,2.884,-0.074,5.015,4.435
1727.0,-16.151,-5.063,3.801,0.249,5.015,4.666
1731.0,-16.151,-5.063,3.801,0.249,5.015,4.666
1735.0,-16.151,-5.063,3.801,0.249,5.015,4.666
1739.0,-15.806,-5.551,3.912,0.629,5.015,4.816
1743.0,-15.806,-5.551,3.912,0.629,5.015,4.816
1747.0,-15.147,-5.766,3.141,1.066,5.015,4.881
1751.0,-15.147,-5.766,3.141,1.066,5.015,4.881
1755.0,-15.147,-5.766,3.141,1.066,5.015,4.881
1759.0,-14.432,-5.889,2.02,1.577,5.015,4.866
1763.0,-14.432,-5.889,2.02,1.577,5.015,4.866
1766.0,-13.914,-6.307,1.513,2.183,5.015,4.746
1770.0,-13.914,-6.307,1.513,2.183,5.015,4.746
1774.0,-13.914,-6.307,1.513,2.183,5.015,4.746
1778.0,-14.139,-7.034,2.203,2.91,5.015,4.451
1782.0,-14.139,-7.034,2.203,2.91,5.015,4.451
1786.0,-15.797,-7.328,3.392,2.91,5.015,3.943
1790.0,-15.797,-7.328,3.392,3.749,5.015,3.943
1794.0,-15.797,-7.328,3.392,3.749,5.015,3.943
1798.0,-18.09,-6.482,3.215,4.577,5.015,3.329
1802.0,-18.09,-6.482,3.215,4.577,5.015,3.329
1805.0,-19.454,-4.971,2.471,4.577,5.015,3.329
1809.0,-19.454,-4.971,2.471,4.978,5.003,2.754
1813.0,-19.454,-4.971,2.471,4.978,5.003,2.754
1817.0,-19.523,-3.48,1.883,4.995,4.925,2.26
1821.0,-19.523,-3.48,1.883,4.995,4.925,2.26
1825.0,-19.516,-2.413,1.478,4.995,4.925,2.26
1829.0,-19.516,-2.413,1.478,4.995,4.896,1.826
1833.0,-19.516,-2.413,1.478,4.995,4.896,1.826
1837.0,-19.6,-1.704,1.253,4.995,4.958,1.434
1841.0,-19.6,-1.704,1.253,4.995,4.958,1.434
1845.0,-19.6,-1.704,1.265,4.995,4.958,1.434
1848.0,-19.6,-1.177,1.265,4.995,5.01,1.081
1852.0,-19.6,-1.177,1.265,4.995,5.01,1.081
1856.0,-19.6,-0.781,1.656,4.995,5.015,0.774
1860.0,-19.6,-0.781,1.656,4.995,5.015,0.774
1864.0,-19.6,-0.781,1.656,4.995,5.015,0.774
1868.0,-19.6,-0.358,2.142,4.995,5.01,0.499
1872.0,-19.6,-0.358,2.142,4.995,5.01,0.499
1876.0,-19.6,0.259,2.447,4.995,4.914,0.243
1880.0,-19.6,0.259,2.447,4.995,4.914,0.243
1883.0,-19.6,0.259,2.447,4.995,4.914,0.243
1887.0,-19.6,1.05,2.398,4.995,4.707,0.02
1891.0,-19.6,1.05,2.398,4.995,4.707,0.02
1895.0,-19.6,1.956,2.104,4.951,4.481,-0.154
1899.0,-19.6,1.956,2.104,4.951,4.481,-0.154
1903.0,-19.6,1.956,2.104,4.951,4.481,-0.154
1907.0,-19.6,2.768,1.64,4.57,4.265,-0.266
1911.0,-19.6,2.768,1.64,4.57,4.265,-0.266
1914.0,-19.6,3.394,1.293,4.57,4.072,-0.314
1918.0,-19.6,3.394,1.293,3.999,4.072,-0.314
1922.0,-19.6,3.394,1.293,3.999,4.072,-0.314
1926.0,-19.6,3.928,1.144,3.388,3.895,-0.32
1930.0,-19.6,3.928,1.144,3.388,3.895,-0.32
1934.0,-19.6,4.433,1.057,3.388,3.895,-0.321
1938.0,-19.6,4.433,1.057,2.729,3.727,-0.321
1942.0,-19.6,4.433,1.057,2.729,3.727,-0.321
1946.0,-19.6,4.825,1.187,2.035,3.563,-0.328
1950.0,-19.6,4.825,1.187,2.035,3.563,-0.328
1953.0,-19.6,5.031,1.476,2.035,3.563,-0.328
1957.0,-19.6,5.031,1.476,1.351,3.384,-0.349
1961.0,-19.6,5.031,1.476,1.351,3.384,-0.349
1965.0,-19.6,5.35,1.752,0.722,3.168,-0.381
1969.0,-19.6,5.35,1.752,0.722,3.168,-0.381
1973.0,-19.6,5.646,2.061,0.722,3.168,-0.381
1977.0,-19.6,5.646,2.061,0.17,2.91,-0.401
1981.0,-19.6,5.646,2.061,0.17,2.91,-0.401
1985.0,-18.924,5.724,2.39,-0.289,2.621,-0.399
1989.0,-18.924,5.724,2.39,-0.289,2.621,-0.399
1993.0,-18.924,5.882,2.529,-0.289,2.621,-0.399
1997.0,-17.135,5.882,2.529,-0.654,2.312,-0.382
2001.0,-17.135,5.882,2.529,-0.654,2.312,-0.382
2005.0,-15.01,6.065,2.507,-0.959,1.996,-0.335
2009.0,-15.01,6.065,2.507,-0.959,1.996,-0.335
2013.0,-12.888,5.851,2.474,-0.959,1.996,-0.335
2017.0,-12.888,5.851,2.474,-1.228,1.686,-0.252
2021.0,-12.888,5.851,2.474,-1.228,1.686,-0.252
2025.0,-11.375,5.254,2.272,-1.467,1.396,-0.167
2029.0,-11.375,5.254,2.272,-1.467,1.396,-0.167
2033.0,-10.68,4.509,1.88,-1.467,1.396,-0.106
2037.0,-10.68,4.509,1.88,-1.665,1.143,-0.106
2041.0,-10.68,4.509,1.88,-1.665,1.143,-0.106
2045.0,-10.894,3.554,1.441,-1.82,0.923,-0.07
2049.0,-10.894,3.554,1.441,-1.82,0.923,-0.07
2053.0,-11.955,2.725,0.884,-1.82,0.712,-0.051
2057.0,-11.955,2.725,0.884,-1.927,0.712,-0.051
2061.0,-11.955,2.725,0.884,-1.927,0.712,-0.051
2065.0,-13.471,1.983,0.016,-1.985,0.488,-0.028
2069.0,-13.471,1.983,0.016,-1.985,0.488,-0.028
2073.0,-14.222,1.612,-0.896,-2.024,0.244,-0.02
2077.0,-14.222,1.612,-0.896,-2.024,0.244,-0.02
2081.0,-14.222,1.612,-0.896,-2.024,0.244,-0.02
2085.0,-14.311,1.461,-1.446,-2.024,-0.022,-0.002
2089.0,-14.311,1.461,-1.446,-2.024,-0.022,-0.002
2093.0,-13.733,1.516,-1.944,-2.003,-0.279,0.004
2097.0,-13.733,1.516,-1.944,-2.003,-0.279,0.004
2101.0,-13.733,1.471,-2.227,-2.003,-0.279,0.004
2105.0,-12.273,1.471,-2.227,-1.961,-0.489,0.003
2109.0,-12.273,1.471,-2.227,-1.961,-0.489,0.003
2114.0,-10.685,1.51,-2.465,-1.874,-0.634,-0.015
2118.0,-10.685,1.51,-2.465,-1.874,-0.634,-0.015
2122.0,-9.278,1.436,-2.707,-1.771,-0.722,-0.041
2126.0,-9.278,1.436,-2.707,-1.771,-0.722,-0.041
2130.0,-9.278,1.436,-2.707,-1.771,-0.722,-0.041
2134.0,-8.064,1.053,-2.886,-1.677,-0.747,-0.093
2138.0,-8.064,1.053,-2.886,-1.677,-0.747,-0.093
2142.0,-7.825,1.327,-2.626,-1.611,-0.732,-0.13
2146.0,-7.825,1.327,-2.626,-1.611,-0.732,-0.13
2150.0,-7.825,1.327,-2.469,-1.611,-0.732,-0.13
2155.0,-7.289,0.893,-2.469,-1.589,-0.725,-0.113
2159.0,-7.289,0.893,-2.469,-1.589,-0.725,-0.113
2163.0,-6.713,0.571,-2.132,-1.566,-0.703,-0.123
2167.0,-6.713,0.571,-2.132,-1.566,-0.703,-0.123
2171.0,-6.312,0.403,-1.676,-1.566,-0.703,-0.152
2175.0,-6.312,0.403,-1.676,-1.531,-0.696,-0.152
2179.0,-6.312,0.403,-1.676,-1.531,-0.696,-0.152
2183.0,-5.87,0.226,-1.484,-1.477,-0.713,-0.188
2187.0,-5.87,0.226,-1.484,-1.477,-0.713,-0.188
2191.0,-5.441,0.11,-1.309,-1.401,-0.743,-0.24
2195.0,-5.441,0.11,-1.309,-1.401,-0.743,-0.24
2199.0,-5.441,0.11,-1.309,-1.401,-0.743,-0.24
2203.0,-5.069,0.179,-1.275,-1.301,-0.792,-0.303
2208.0,-5.069,0.179,-1.275,-1.301,-0.792,-0.303
2212.0,-4.373,0.575,-1.455,-1.193,-0.841,-0.373
2216.0,-4.373,0.575,-1.455,-1.193,-0.841,-0.373
2220.0,-4.373,1.134,-1.671,-1.193,-0.841,-0.373
2224.0,-3.888,1.134,-1.671,-1.108,-0.872,-0.431
2228.0,-3.888,1.134,-1.671,-1.108,-0.872,-0.431
2232.0,-3.324,1.522,-1.871,-1.055,-0.882,-0.446
2236.0,-3.324,1.522,-1.871,-1.055,-0.882,-0.446
2240.0,-2.807,1.717,-1.905,-1.033,-0.866,-0.427
2244.0,-2.807,1.717,-1.905,-1.033,-0.866,-0.427
2248.0,-2.807,1.717,-1.905,-1.033,-0.866,-0.427
2252.0,-2.345,1.759,-1.799,-1.03,-0.83,-0.386
2257.0,-2.345,1.759,-1.799,-1.03,-0.83,-0.386
2261.0,-2.017,1.638,-1.534,-1.035,-0.787,-0.334
2265.0,-2.017,1.638,-1.534,-1.035,-0.787,-0.334
2269.0,-2.017,1.638,-1.534,-1.035,-0.787,-0.334
2273.0,-1.855,1.409,-1.213,-1.042,-0.749,-0.286
2277.0,-1.855,1.409,-1.213,-1.042,-0.749,-0.286
2281.0,-1.854,1.309,-1.061,-1.045,-0.723,-0.255
2285.0,-1.854,1.309,-1.061,-1.045,-0.723,-0.255
2289.0,-1.92,1.278,-1.187,-1.045,-0.723,-0.255
2293.0,-1.92,1.278,-1.187,-1.051,-0.706,-0.234
2297.0,-1.92,1.278,-1.187,-1.051,-0.706,-0.234
2301.0,-2.059,1.665,-1.248,-1.07,-0.685,-0.222
2305.0,-2.059,1.665,-1.248,-1.07,-0.685,-0.222
2310.0,-2.097,1.725,-1.254,-1.115,-0.681,-0.19
2314.0,-2.097,1.725,-1.254,-1.115,-0.681,-0.19
2318.0,-2.097,1.725,-1.254,-1.115,-0.681,-0.19
2322.0,-2.157,1.638,-1.087,-1.193,-0.695,-0.157
2326.0,-2.157,1.638,-1.087,-1.193,-0.695,-0.157
2330.0,-2.197,1.485,-0.965,-1.291,-0.715,-0.133
2334.0,-2.197,1.485,-0.965,-1.291,-0.715,-0.133
2338.0,-2.197,1.485,-0.857,-1.291,-0.715,-0.133
2342.0,-2.277,1.25,-0.857,-1.394,-0.715,-0.113
2346.0,-2.277,1.25,-0.857,-1.394,-0.715,-0.113
2350.0,-2.481,1.04,-0.75,-1.496,-0.686,-0.095
2354.0,-2.481,1.04,-0.75,-1.496,-0.686,-0.095
2359.0,-2.883,0.873,-0.707,-1.496,-0.626,-0.086
2363.0,-2.883,0.873,-0.707,-1.596,-0.626,-0.086
2367.0,-2.883,0.873,-0.707,-1.596,-0.626,-0.086
2371.0,-3.44,0.817,-0.742,-1.684,-0.544,-0.088
2375.0,-3.44,0.817,-0.742,-1.684,-0.544,-0.088
2379.0,-4.061,0.943,-0.779,-1.79,-0.457,-0.082
2383.0,-4.061,0.943,-0.779,-1.79,-0.457,-0.082
2387.0,-4.061,0.943,-0.779,-1.79,-0.457,-0.082
2391.0,-4.473,0.779,-0.645,-1.898,-0.368,-0.073
2395.0,-4.473,0.779,-0.645,-1.898,-0.368,-0.073
2399.0,-4.865,0.732,-0.52,-1.969,-0.275,-0.058
2403.0,-4.865,0.732,-0.52,-1.969,-0.275,-0.058
2407.0,-5.191,0.633,-0.322,-1.969,-0.275,-0.058
2412.0,-5.191,0.633,-0.322,-1.992,-0.185,-0.058
2416.0,-5.191,0.633,-0.322,-1.992,-0.185,-0.058
2420.0,-5.522,0.628,0.002,-1.963,-0.092,-0.085
2424.0,-5.522,0.628,0.002,-1.963,-0.092,-0.085
2428.0,-5.885,0.604,0.347,-1.963,-0.006,-0.138
2432.0,-5.885,0.604,0.347,-1.874,-0.006,-0.138
2436.0,-5.885,0.604,0.347,-1.874,-0.006,-0.138
2440.0,-6.321,0.615,0.756,-1.732,0.061,-0.204
2444.0,-6.321,0.615,0.756,-1.732,0.061,-0.204
2447.0,-6.877,0.678,1.306,-1.547,0.094,-0.268
2451.0,-6.877,0.678,1.306,-1.547,0.094,-0.268
2455.0,-6.877,0.678,1.306,-1.547,0.094,-0.268
2459.0,-7.565,0.776,1.807,-1.32,0.088,-0.318
2463.0,-7.565,0.776,1.807,-1.32,0.088,-0.318
2467.0,-8.304,0.903,2.135,-1.32,0.088,-0.346
2471.0,-8.304,0.903,2.135,-1.065,0.056,-0.346
2475.0,-8.304,0.903,2.135,-1.065,0.056,-0.346
2479.0,-9.01,0.867,2.334,-0.794,0.024,-0.346
2483.0,-9.01,0.867,2.334,-0.794,0.024,-0.346
2487.0,-9.931,0.812,2.239,-0.794,0.024,-0.346
2490.0,-9.931,0.812,2.239,-0.517,0.003,-0.333
2494.0,-9.931,0.812,2.239,-0.517,0.003,-0.333
2498.0,-11.26,0.866,1.897,-0.256,0.002,-0.323
2502.0,-11.26,0.866,1.897,-0.256,0.002,-0.323
2506.0,-12.985,0.958,1.338,-0.256,0.002,-0.323
2510.0,-12.985,0.958,1.338,-0.027,0.026,-0.31
2514.0,-12.985,0.958,1.338,-0.027,0.026,-0.31
2518.0,-15.178,1.113,0.982,0.146,0.068,-0.284
2522.0,-15.178,1.113,0.982,0.146,0.068,-0.284
2526.0,-17.42,1.307,0.863,0.146,0.068,-0.284
2530.0,-17.42,1.307,0.863,0.252,0.094,-0.237
2534.0,-17.42,1.307,0.863,0.252,0.094,-0.237
2538.0,-18.837,1.302,0.892,0.296,0.076,-0.182
2542.0,-18.837,1.302,0.892,0.296,0.076,-0.182
2546.0,-19.189,1.339,1.003,0.296,0.076,-0.182
2549.0,-19.189,1.339,1.003,0.294,0.019,-0.152
2553.0,-19.189,1.339,1.003,0.294,0.019,-0.152
2557.0,-19.022,1.379,1.068,0.266,-0.044,-0.164
2561.0,-19.022,1.379,1.068,0.266,-0.044,-0.164
2565.0,-19.022,1.679,0.985,0.266,-0.044,-0.164
2569.0,-18.82,1.679,0.985,0.229,-0.074,-0.224
2573.0,-18.82,1.679,0.985,0.229,-0.074,-0.224
2577.0,-18.882,2.189,0.925,0.183,-0.044,-0.301
2581.0,-18.882,2.189,0.925,0.183,-0.044,-0.301
2585.0,-18.866,2.681,0.94,0.183,-0.044,-0.301
2589.0,-18.866,2.681,0.94,0.135,0.052,-0.361
2593.0,-18.866,2.681,0.94,0.135,0.052,-0.361
2597.0,-18.645,3.147,0.974,0.108,0.211,-0.388
2601.0,-18.645,3.147,0.974,0.108,0.211,-0.388
2605.0,-18.7,3.377,1.154,0.108,0.211,-0.388
2609.0,-18.7,3.377,1.154,0.103,0.428,-0.365
2613.0,-18.7,3.377,1.154,0.103,0.428,-0.365
2617.0,-18.952,3.236,1.466,0.103,0.675,-0.308
2620.0,-18.952,3.236,1.466,0.103,0.675,-0.308
2624.0,-18.952,3.236,1.802,0.103,0.675,-0.308
2628.0,-19.041,2.955,1.802,0.093,0.925,-0.238
2632.0,-19.041,2.955,1.802,0.093,0.925,-0.238
2636.0,-18.796,2.525,2.179,0.067,1.158,-0.169
2640.0,-18.796,2.525,2.179,0.067,1.158,-0.169
2644.0,-18.796,2.525,2.179,0.067,1.158,-0.169
2648.0,-18.043,2.071,2.393,0.025,1.351,-0.118
2652.0,-18.043,2.071,2.393,0.025,1.351,-0.118
2656.0,-17.041,1.787,2.371,-0.028,1.504,-0.107
2660.0,-17.041,1.787,2.371,-0.028,1.504,-0.107
2664.0,-17.041,1.787,2.371,-0.028,1.504,-0.107
2668.0,-15.826,2.306,2.579,-0.063,1.616,-0.127
2672.0,-15.826,2.306,2.579,-0.063,1.616,-0.127
2676.0,-14.754,2.951,2.416,-0.078,1.63,-0.173
2680.0,-14.754,2.951,2.416,-0.078,1.63,-0.173
2684.0,-14.754,2.951,1.826,-0.078,1.63,-0.173
2688.0,-14.046,3.425,1.826,-0.077,1.493,-0.219
2692.0,-14.046,3.425,1.826,-0.077,1.493,-0.219
2696.0,-13.43,3.73,0.863,-0.061,1.173,-0.248
2700.0,-13.43,3.73,0.863,-0.061,1.173,-0.248
2704.0,-12.55,4.003,-0.343,-0.061,1.173,-0.248
2708.0,-12.55,4.003,-0.343,-0.056,0.758,-0.267
2712.0,-12.55,4.003,-0.343,-0.056,0.758,-0.267
2716.0,-11.128,4.095,-1.735,-0.109,0.366,-0.261
2720.0,-11.128,4.095,-1.735,-0.109,0.366,-0.261
2724.0,-9.279,3.963,-2.767,-0.25,0.08,-0.226
2728.0,-9.279,3.963,-2.767,-0.25,0.08,-0.226
2732.0,-9.279,3.963,-2.767,-0.25,0.08,-0.226
2736.0,-7.59,3.609,-3.136,-0.452,-0.086,-0.18
2740.0,-7.59,3.609,-3.136,-0.452,-0.086,-0.18
2744.0,-6.496,3.112,-3.307,-0.68,-0.176,-0.14
2748.0,-6.496,3.112,-3.307,-0.68,-0.176,-0.14
2752.0,-6.496,3.112,-3.307,-0.68,-0.176,-0.14
2756.0,-6.128,2.481,-3.551,-0.909,-0.198,-0.113
2760.0,-6.128,2.481,-3.551,-0.909,-0.198,-0.113
2765.0,-6.411,1.825,-3.674,-1.13,-0.152,-0.113
2769.0,-6.411,1.825,-3.674,-1.13,-0.152,-0.113
2773.0,-6.925,1.246,-3.269,-1.13,-0.152,-0.113
2777.0,-6.925,1.246,-3.269,-1.32,-0.072,-0.131
2781.0,-6.925,1.246,-3.269,-1.32,-0.072,-0.131
2785.0,-7.687,0.694,-2.531,-1.475,-0.02,-0.157
2789.0,-7.687,0.694,-2.531,-1.475,-0.02,-0.157
2793.0,-8.489,0.163,-1.717,-1.586,-0.016,-0.197
2797.0,-8.489,0.163,-1.717,-1.586,-0.016,-0.197
2801.0,-8.489,0.163,-1.717,-1.586,-0.016,-0.197
2805.0,-9.162,-0.322,-1.022,-1.644,-0.055,-0.244
2809.0,-9.162,-0.322,-1.022,-1.644,-0.055,-0.244
2814.0,-9.391,-0.823,-0.756,-1.648,-0.12,-0.293
2818.0,-9.391,-0.823,-0.756,-1.648,-0.12,-0.293
2822.0,-9.391,-1.182,-0.653,-1.648,-0.12,-0.293
2826.0,-9.226,-1.182,-0.653,-1.602,-0.18,-0.336
2830.0,-9.226,-1.182,-0.653,-1.602,-0.18,-0.336
2834.0,-9.005,-1.34,-0.617,-1.513,-0.229,-0.363
2839.0,-9.005,-1.34,-0.617,-1.513,-0.229,-0.363
2843.0,-8.877,-1.385,-0.698,-1.383,-0.274,-0.359
2847.0,-8.877,-1.385,-0.698,-1.383,-0.274,-0.359
2851.0,-8.877,-1.385,-0.698,-1.383,-0.274,-0.359
2855.0,-8.776,-1.498,-0.814,-1.216,-0.323,-0.333
2859.0,-8.776,-1.498,-0.814,-1.216,-0.323,-0.333
2864.0,-8.581,-1.603,-0.881,-1.019,-0.374,-0.3
2868.0,-8.581,-1.603,-0.881,-1.019,-0.374,-0.3
2872.0,-8.264,-1.589,-0.846,-0.796,-0.426,-0.256
2876.0,-8.264,-1.589,-0.846,-0.796,-0.426,-0.256
2880.0,-8.264,-1.589,-0.846,-0.796,-0.426,-0.256
2884.0,-7.733,-1.586,-0.803,-0.552,-0.475,-0.193
2889.0,-7.733,-1.586,-0.803,-0.552,-0.475,-0.193
2893.0,-7.161,-1.568,-0.794,-0.31,-0.521,-0.128
2897.0,-7.161,-1.568,-0.794,-0.31,-0.521,-0.128
2901.0,-6.602,-1.542,-0.818,-0.31,-0.521,-0.128
2905.0,-6.602,-1.542,-0.818,-0.081,-0.554,-0.068
2909.0,-6.602,-1.542,-0.818,-0.081,-0.554,-0.068
2914.0,-6.066,-1.495,-0.943,0.113,-0.573,-0.022
2918.0,-6.066,-1.495,-0.943,0.113,-0.573,-0.022
2922.0,-5.714,-1.428,-1.06,0.257,-0.573,0.012
2926.0,-5.714,-1.428,-1.06,0.257,-0.573,0.012
2930.0,-5.714,-1.428,-1.06,0.257,-0.573,0.012
2934.0,-5.549,-1.424,-1.143,0.366,-0.541,0.05
2938.0,-5.549,-1.424,-1.143,0.366,-0.541,0.05
2942.0,-5.508,-1.456,-1.07,0.452,-0.482,0.092
2946.0,-5.508,-1.456,-1.07,0.452,-0.482,0.092
2950.0,-5.508,-1.456,-1.07,0.452,-0.482,0.092
2954.0,-5.458,-1.519,-0.954,0.527,-0.414,0.136
2958.0,-5.458,-1.519,-0.954,0.527,-0.414,0.136
2962.0,-5.417,-1.596,-0.805,0.597,-0.347,0.168
2966.0,-5.417,-1.596,-0.805,0.597,-0.347,0.168
2970.0,-5.417,-1.596,-0.59,0.597,-0.347,0.168
2974.0,-5.353,-1.635,-0.59,0.667,-0.29,0.182
2978.0,-5.353,-1.635,-0.59,0.667,-0.29,0.182
2982.0,-5.297,-1.665,-0.364,0.742,-0.25,0.183
2986.0,-5.297,-1.665,-0.364,0.742,-0.25,0.183
2990.0,-5.297,-1.723,-0.191,0.742,-0.25,0.183
2994.0,-5.203,-1.723,-0.191,0.828,-0.228,0.177
2998.0,-5.203,-1.723,-0.191,0.828,-0.228,0.177
