deltaTime,Acc_X,Acc_Y,Acc_Z,Gyro_X,Gyro_Y,Gyro_Z
0.0,-8.402,-1.834,5.24,0.08,-0.216,-0.124
3.0,-8.402,-1.834,5.24,0.08,-0.216,-0.124
6.0,-8.402,-1.834,5.24,0.08,-0.216,-0.124
9.0,-8.25,-1.791,5.034,0.08,-0.216,-0.124
12.0,-8.25,-1.791,5.034,0.078,-0.255,-0.141
15.0,-8.25,-1.791,5.034,0.078,-0.255,-0.141
18.0,-8.25,-1.791,5.034,0.078,-0.255,-0.141
21.0,-8.409,-1.772,4.936,0.068,-0.263,-0.141
24.0,-8.409,-1.772,4.936,0.068,-0.263,-0.141
27.0,-8.409,-1.772,4.936,0.068,-0.263,-0.141
30.0,-8.532,-1.735,4.95,0.058,-0.265,-0.132
33.0,-8.532,-1.735,4.95,0.058,-0.265,-0.132
37.0,-8.532,-1.735,4.95,0.058,-0.265,-0.132
40.0,-8.384,-1.741,5.073,0.059,-0.277,-0.123
44.0,-8.384,-1.741,5.073,0.059,-0.277,-0.123
48.0,-8.133,-1.743,4.981,0.059,-0.277,-0.123
52.0,-8.133,-1.743,4.981,0.078,-0.299,-0.116
56.0,-8.133,-1.743,4.981,0.078,-0.299,-0.116
59.0,-8.286,-1.801,4.818,0.089,-0.294,-0.099
63.0,-8.286,-1.801,4.818,0.089,-0.294,-0.099
67.0,-8.286,-1.801,4.818,0.089,-0.294,-0.099
71.0,-8.637,-1.9,4.697,0.095,-0.266,-0.067
75.0,-8.637,-1.9,4.697,0.095,-0.266,-0.067
79.0,-8.742,-1.833,4.583,0.113,-0.238,-0.045
82.0,-8.742,-1.833,4.583,0.113,-0.238,-0.045
86.0,-8.742,-1.833,4.583,0.113,-0.238,-0.045
90.0,-8.795,-1.732,4.71,0.122,-0.205,-0.034
94.0,-8.795,-1.732,4.71,0.122,-0.205,-0.034
98.0,-8.645,-1.721,4.829,0.122,-0.205,-0.038
101.0,-8.645,-1.721,4.829,0.127,-0.192,-0.038
105.0,-8.645,-1.721,4.829,0.127,-0.192,-0.038
109.0,-8.374,-1.676,4.921,0.131,-0.192,-0.05
113.0,-8.374,-1.676,4.921,0.131,-0.192,-0.05
117.0,-8.063,-1.56,5.021,0.131,-0.192,-0.05
121.0,-8.063,-1.56,5.021,0.134,-0.187,-0.067
125.0,-8.063,-1.56,5.021,0.134,-0.187,-0.067
129.0,-7.963,-1.527,4.921,0.138,-0.179,-0.081
133.0,-7.963,-1.527,4.921,0.138,-0.179,-0.081
137.0,-7.963,-1.652,4.829,0.138,-0.179,-0.081
141.0,-8.23,-1.652,4.829,0.151,-0.145,-0.07
144.0,-8.23,-1.652,4.829,0.151,-0.145,-0.07
148.0,-8.566,-1.848,5.005,0.202,-0.108,-0.041
152.0,-8.566,-1.848,5.005,0.202,-0.108,-0.041
156.0,-8.566,-1.848,5.182,0.202,-0.108,-0.041
160.0,-8.431,-1.827,5.182,0.313,-0.109,-0.026
164.0,-8.431,-1.827,5.182,0.313,-0.109,-0.026
168.0,-8.022,-1.756,4.97,0.443,-0.134,-0.017
172.0,-8.022,-1.756,4.97,0.443,-0.134,-0.017
176.0,-8.022,-1.756,4.97,0.443,-0.134,-0.017
180.0,-7.834,-1.687,4.807,0.554,-0.128,0.002
183.0,-7.834,-1.687,4.807,0.554,-0.128,0.002
187.0,-8.074,-1.767,4.711,0.636,-0.098,0.038
191.0,-8.074,-1.767,4.711,0.636,-0.098,0.038
195.0,-8.074,-1.767,4.711,0.636,-0.098,0.038
199.0,-8.385,-1.837,4.95,0.708,-0.058,0.08
203.0,-8.385,-1.837,4.95,0.708,-0.058,0.08
206.0,-8.235,-1.799,5.294,0.708,-0.041,0.101
210.0,-8.235,-1.799,5.294,0.799,-0.041,0.101
214.0,-8.235,-1.799,5.294,0.799,-0.041,0.101
218.0,-7.892,-1.737,5.259,0.893,-0.048,0.11
222.0,-7.892,-1.737,5.259,0.893,-0.048,0.11
225.0,-7.892,-1.737,4.929,0.893,-0.048,0.11
229.0,-7.892,-1.621,4.929,0.947,-0.03,0.132
233.0,-7.892,-1.621,4.929,0.947,-0.03,0.132
237.0,-8.28,-1.518,4.908,0.941,0.033,0.167
241.0,-8.28,-1.518,4.908,0.941,0.033,0.167
244.0,-8.28,-1.518,4.908,0.941,0.033,0.167
248.0,-8.536,-1.324,5.207,0.906,0.094,0.195
252.0,-8.536,-1.324,5.207,0.906,0.094,0.195
256.0,-8.448,-1.083,5.328,0.906,0.094,0.206
259.0,-8.448,-1.083,5.328,0.846,0.121,0.206
263.0,-8.448,-1.083,5.328,0.846,0.121,0.206
267.0,-8.065,-0.932,5.059,0.744,0.138,0.206
271.0,-8.065,-0.932,5.059,0.744,0.138,0.206
274.0,-8.065,-0.932,5.059,0.744,0.138,0.206
278.0,-8.137,-1.494,5.106,0.613,0.192,0.21
282.0,-8.137,-1.494,5.106,0.613,0.192,0.21
285.0,-8.069,-1.562,5.066,0.554,0.247,0.216
289.0,-8.069,-1.562,5.066,0.554,0.247,0.216
293.0,-8.069,-1.562,5.066,0.554,0.247,0.216
297.0,-8.204,-1.486,5.044,0.519,0.293,0.197
300.0,-8.204,-1.486,5.044,0.519,0.293,0.197
304.0,-8.204,-1.486,5.044,0.519,0.293,0.197
308.0,-8.149,-1.312,5.207,0.468,0.318,0.165
312.0,-8.149,-1.312,5.207,0.468,0.318,0.165
315.0,-7.722,-1.223,5.007,0.392,0.327,0.131
319.0,-7.722,-1.223,5.007,0.392,0.327,0.131
323.0,-7.722,-1.223,5.007,0.392,0.327,0.131
326.0,-7.726,-1.359,4.723,0.295,0.329,0.074
330.0,-7.726,-1.359,4.723,0.295,0.329,0.074
334.0,-7.726,-1.359,4.717,0.295,0.329,0.074
338.0,-7.819,-1.667,4.717,0.228,0.319,0.015
341.0,-7.819,-1.667,4.717,0.228,0.319,0.015
345.0,-7.816,-1.959,4.785,0.227,0.314,-0.014
349.0,-7.816,-1.959,4.785,0.227,0.314,-0.014
353.0,-7.816,-1.959,4.785,0.227,0.314,-0.014
357.0,-7.85,-2.219,4.888,0.27,0.326,-0.018
360.0,-7.85,-2.219,4.888,0.27,0.326,-0.018
364.0,-7.953,-2.419,4.891,0.27,0.35,-0.022
368.0,-7.953,-2.419,4.891,0.331,0.35,-0.022
372.0,-7.953,-2.419,4.891,0.331,0.35,-0.022
376.0,-8.276,-2.709,4.835,0.393,0.37,-0.039
380.0,-8.276,-2.709,4.835,0.393,0.37,-0.039
383.0,-8.276,-2.709,4.722,0.393,0.37,-0.039
387.0,-8.512,-3.017,4.722,0.48,0.374,-0.052
391.0,-8.512,-3.017,4.722,0.48,0.374,-0.052
395.0,-8.52,-2.8,4.496,0.597,0.371,-0.062
399.0,-8.52,-2.8,4.496,0.597,0.371,-0.062
402.0,-8.52,-2.8,4.496,0.597,0.371,-0.062
406.0,-8.397,-2.42,4.296,0.648,0.362,-0.117
410.0,-8.397,-2.42,4.296,0.648,0.362,-0.117
414.0,-8.094,-2.527,4.202,0.637,0.361,-0.2
418.0,-8.094,-2.527,4.202,0.637,0.361,-0.2
422.0,-8.094,-2.527,4.202,0.637,0.361,-0.2
425.0,-8.226,-2.133,4.128,0.597,0.393,-0.301
429.0,-8.226,-2.133,4.128,0.597,0.393,-0.301
433.0,-8.737,-2.21,4.043,0.597,0.393,-0.301
437.0,-8.737,-2.21,4.043,0.493,0.447,-0.437
441.0,-8.737,-2.21,4.043,0.493,0.447,-0.437
444.0,-8.964,-2.509,4.03,0.411,0.497,-0.572
448.0,-8.964,-2.509,4.03,0.411,0.497,-0.572
452.0,-8.964,-2.509,4.03,0.411,0.497,-0.572
456.0,-8.952,-2.941,4.287,0.397,0.516,-0.697
460.0,-8.952,-2.941,4.287,0.397,0.516,-0.697
464.0,-9.007,-3.555,4.652,0.461,0.495,-0.825
467.0,-9.007,-3.555,4.652,0.461,0.495,-0.825
471.0,-9.007,-3.555,4.652,0.461,0.495,-0.825
475.0,-9.209,-4.24,5.31,0.613,0.459,-0.967
479.0,-9.209,-4.24,5.31,0.613,0.459,-0.967
483.0,-9.552,-4.808,5.812,0.613,0.459,-1.122
486.0,-9.552,-4.808,5.812,0.862,0.415,-1.122
490.0,-9.552,-4.808,5.812,0.862,0.415,-1.122
494.0,-10.01,-5.14,5.933,1.183,0.361,-1.271
498.0,-10.01,-5.14,5.933,1.183,0.361,-1.271
502.0,-10.01,-5.297,5.882,1.183,0.361,-1.271
506.0,-10.451,-5.297,5.882,1.535,0.307,-1.381
510.0,-10.451,-5.297,5.882,1.535,0.307,-1.381
514.0,-10.667,-5.343,6.106,1.879,0.246,-1.441
518.0,-10.667,-5.343,6.106,1.879,0.246,-1.441
521.0,-10.667,-5.343,6.562,1.879,0.246,-1.441
525.0,-10.661,-5.295,6.562,2.203,0.169,-1.477
529.0,-10.661,-5.295,6.562,2.203,0.169,-1.477
533.0,-10.5,-5.247,6.926,2.499,0.087,-1.519
537.0,-10.5,-5.247,6.926,2.499,0.087,-1.519
541.0,-10.5,-5.247,6.926,2.499,0.087,-1.519
545.0,-10.301,-5.305,7.341,2.765,0.006,-1.591
549.0,-10.301,-5.305,7.341,2.765,0.006,-1.591
553.0,-10.399,-5.418,7.875,3.006,-0.084,-1.708
557.0,-10.399,-5.418,7.875,3.006,-0.084,-1.708
561.0,-10.399,-5.418,7.875,3.006,-0.084,-1.708
565.0,-10.787,-5.217,8.302,3.217,-0.191,-1.855
569.0,-10.787,-5.217,8.302,3.217,-0.191,-1.855
573.0,-11.089,-4.871,8.431,3.382,-0.314,-1.998
577.0,-11.089,-4.871,8.431,3.382,-0.314,-1.998
581.0,-11.089,-4.871,8.441,3.382,-0.314,-1.998
585.0,-11.078,-4.558,8.441,3.49,-0.445,-2.109
589.0,-11.078,-4.558,8.441,3.49,-0.445,-2.109
593.0,-10.891,-4.369,8.533,3.55,-0.594,-2.198
597.0,-10.891,-4.369,8.533,3.55,-0.594,-2.198
601.0,-10.891,-4.37,8.587,3.55,-0.594,-2.198
605.0,-10.929,-4.37,8.587,3.569,-0.762,-2.283
609.0,-10.929,-4.37,8.587,3.569,-0.762,-2.283
613.0,-11.131,-4.563,8.754,3.571,-0.922,-2.366
617.0,-11.131,-4.563,8.754,3.571,-0.922,-2.366
621.0,-11.297,-4.719,8.923,3.571,-0.922,-2.366
625.0,-11.297,-4.719,8.923,3.594,-1.089,-2.45
629.0,-11.297,-4.719,8.923,3.594,-1.089,-2.45
633.0,-11.291,-4.966,8.963,3.681,-1.279,-2.527
637.0,-11.291,-4.966,8.963,3.681,-1.279,-2.527
641.0,-11.271,-5.309,9.039,3.681,-1.279,-2.581
645.0,-11.271,-5.309,9.039,3.856,-1.472,-2.581
649.0,-11.271,-5.309,9.039,3.856,-1.472,-2.581
653.0,-11.372,-5.639,9.182,4.135,-1.666,-2.603
657.0,-11.372,-5.639,9.182,4.135,-1.666,-2.603
661.0,-11.538,-5.6,9.1,4.135,-1.887,-2.606
665.0,-11.538,-5.6,9.1,4.512,-1.887,-2.606
669.0,-11.538,-5.6,9.1,4.512,-1.887,-2.606
672.0,-11.497,-5.367,8.731,4.893,-2.132,-2.584
676.0,-11.497,-5.367,8.731,4.893,-2.132,-2.584
680.0,-11.353,-4.956,8.472,4.995,-2.356,-2.523
684.0,-11.353,-4.956,8.472,4.995,-2.356,-2.523
688.0,-11.353,-4.956,8.472,4.995,-2.356,-2.523
692.0,-11.09,-4.378,8.31,4.995,-2.54,-2.416
696.0,-11.09,-4.378,8.31,4.995,-2.54,-2.416
700.0,-10.618,-3.874,8.434,4.995,-2.701,-2.284
704.0,-10.618,-3.874,8.434,4.995,-2.701,-2.284
708.0,-10.618,-3.874,8.434,4.995,-2.701,-2.284
712.0,-10.106,-3.284,8.69,4.995,-2.85,-2.172
716.0,-10.106,-3.284,8.69,4.995,-2.85,-2.172
720.0,-9.711,-2.721,8.812,4.995,-2.997,-2.117
724.0,-9.711,-2.721,8.812,4.995,-2.997,-2.117
728.0,-9.711,-2.721,8.812,4.995,-2.997,-2.117
732.0,-9.372,-2.106,8.723,4.995,-3.146,-2.115
736.0,-9.372,-2.106,8.723,4.995,-3.146,-2.115
740.0,-9.014,-1.217,8.184,4.995,-3.275,-2.11
744.0,-9.014,-1.217,8.184,4.995,-3.275,-2.11
748.0,-9.014,-1.217,8.184,4.995,-3.275,-2.11
752.0,-8.455,-0.47,7.916,4.995,-3.362,-2.065
756.0,-8.455,-0.47,7.916,4.995,-3.362,-2.065
759.0,-8.04,0.152,7.857,4.995,-3.41,-2.029
763.0,-8.04,0.152,7.857,4.995,-3.41,-2.029
767.0,-8.04,0.152,7.857,4.995,-3.41,-2.029
771.0,-7.939,0.574,7.71,4.995,-3.451,-2.056
775.0,-7.939,0.574,7.71,4.995,-3.451,-2.056
779.0,-7.633,1.061,7.333,4.995,-3.451,-2.056
782.0,-7.633,1.061,7.333,4.995,-3.519,-2.127
786.0,-7.633,1.061,7.333,4.995,-3.519,-2.127
790.0,-6.92,1.534,6.918,4.995,-3.569,-2.167
794.0,-6.92,1.534,6.918,4.995,-3.569,-2.167
798.0,-6.92,1.534,6.918,4.995,-3.569,-2.167
801.0,-6.123,1.721,6.735,4.988,-3.546,-2.127
805.0,-6.123,1.721,6.735,4.988,-3.546,-2.127
809.0,-5.619,1.71,6.84,4.947,-3.454,-2.047
813.0,-5.619,1.71,6.84,4.947,-3.454,-2.047
817.0,-5.619,1.71,6.84,4.947,-3.454,-2.047
821.0,-5.595,1.988,6.787,4.942,-3.335,-1.959
824.0,-5.595,1.988,6.787,4.942,-3.335,-1.959
828.0,-5.868,2.489,6.562,4.942,-3.233,-1.853
832.0,-5.868,2.489,6.562,4.955,-3.233,-1.853
836.0,-5.868,2.489,6.562,4.955,-3.233,-1.853
840.0,-5.981,3.12,6.0,4.923,-3.167,-1.722
844.0,-5.981,3.12,6.0,4.923,-3.167,-1.722
847.0,-5.981,3.12,5.322,4.923,-3.167,-1.722
851.0,-5.529,3.722,5.322,4.801,-3.113,-1.572
855.0,-5.529,3.722,5.322,4.801,-3.113,-1.572
859.0,-4.968,4.196,4.838,4.571,-3.033,-1.412
863.0,-4.968,4.196,4.838,4.571,-3.033,-1.412
866.0,-4.968,4.196,4.838,4.571,-3.033,-1.412
870.0,-4.775,4.587,4.438,4.246,-2.942,-1.264
874.0,-4.775,4.587,4.438,4.246,-2.942,-1.264
878.0,-4.516,4.912,4.135,3.86,-2.85,-1.139
882.0,-4.516,4.912,4.135,3.86,-2.85,-1.139
886.0,-4.516,4.912,4.135,3.86,-2.85,-1.139
889.0,-4.275,4.971,3.855,3.446,-2.745,-1.028
893.0,-4.275,4.971,3.855,3.446,-2.745,-1.028
897.0,-4.09,4.914,3.578,3.446,-2.745,-1.028
901.0,-4.09,4.914,3.578,3.036,-2.62,-0.936
905.0,-4.09,4.914,3.578,3.036,-2.62,-0.936
908.0,-3.864,4.704,3.289,2.662,-2.471,-0.859
912.0,-3.864,4.704,3.289,2.662,-2.471,-0.859
916.0,-3.864,4.704,3.289,2.662,-2.471,-0.859
920.0,-3.766,4.409,3.251,2.343,-2.292,-0.795
924.0,-3.766,4.409,3.251,2.343,-2.292,-0.795
928.0,-4.12,4.515,3.232,2.112,-2.114,-0.727
931.0,-4.12,4.515,3.232,2.112,-2.114,-0.727
935.0,-4.12,4.515,3.232,2.112,-2.114,-0.727
939.0,-4.436,4.762,3.206,1.972,-1.947,-0.596
943.0,-4.436,4.762,3.206,1.972,-1.947,-0.596
947.0,-4.448,4.973,3.311,1.972,-1.783,-0.403
950.0,-4.448,4.973,3.311,1.908,-1.783,-0.403
954.0,-4.448,4.973,3.311,1.908,-1.783,-0.403
958.0,-4.496,5.311,3.431,1.918,-1.636,-0.178
962.0,-4.496,5.311,3.431,1.918,-1.636,-0.178
966.0,-4.496,5.311,3.504,1.918,-1.636,-0.178
970.0,-4.524,5.792,3.504,1.966,-1.506,0.074
973.0,-4.524,5.792,3.504,1.966,-1.506,0.074
977.0,-4.371,6.29,3.534,2.013,-1.385,0.337
981.0,-4.371,6.29,3.534,2.013,-1.385,0.337
984.0,-4.371,6.29,3.534,2.013,-1.385,0.337
988.0,-4.056,6.86,3.616,2.018,-1.26,0.578
992.0,-4.056,6.86,3.616,2.018,-1.26,0.578
996.0,-3.76,7.458,3.798,2.018,-1.26,0.578
999.0,-3.76,7.458,3.798,1.952,-1.136,0.782
1003.0,-3.76,7.458,3.798,1.952,-1.136,0.782
1007.0,-3.464,7.943,3.949,1.801,-1.012,0.95
1011.0,-3.464,7.943,3.949,1.801,-1.012,0.95
1015.0,-3.464,7.943,3.949,1.801,-1.012,0.95
1018.0,-3.176,8.345,4.086,1.585,-0.88,1.065
1022.0,-3.176,8.345,4.086,1.585,-0.88,1.065
1026.0,-3.031,8.669,4.275,1.339,-0.739,1.13
1030.0,-3.031,8.669,4.275,1.339,-0.739,1.13
1034.0,-3.031,8.669,4.275,1.339,-0.739,1.13
1038.0,-3.489,8.818,4.531,1.116,-0.597,1.15
1041.0,-3.489,8.818,4.531,1.116,-0.597,1.15
1045.0,-4.3,9.188,4.714,1.116,-0.597,1.15
1049.0,-4.3,9.188,4.714,0.983,-0.473,1.122
1053.0,-4.3,9.188,4.714,0.983,-0.473,1.122
1057.0,-5.022,9.705,4.767,0.963,-0.358,1.111
1060.0,-5.022,9.705,4.767,0.963,-0.358,1.111
1064.0,-5.022,9.705,4.767,0.963,-0.358,1.111
1068.0,-5.681,10.258,5.01,1.051,-0.223,1.154
1072.0,-5.681,10.258,5.01,1.051,-0.223,1.154
1076.0,-6.409,10.935,5.332,1.222,-0.07,1.263
1080.0,-6.409,10.935,5.332,1.222,-0.07,1.263
1084.0,-6.409,10.935,5.332,1.222,-0.07,1.263
1088.0,-6.942,11.471,5.607,1.413,0.087,1.46
1091.0,-6.942,11.471,5.607,1.413,0.087,1.46
1095.0,-6.855,11.556,6.435,1.576,0.24,1.674
1099.0,-6.855,11.556,6.435,1.576,0.24,1.674
1103.0,-6.855,11.556,6.435,1.576,0.24,1.674
1107.0,-6.483,11.899,7.339,1.699,0.362,1.829
1111.0,-6.483,11.899,7.339,1.699,0.362,1.829
1114.0,-5.901,12.24,8.298,1.699,0.362,1.962
1118.0,-5.901,12.24,8.298,1.76,0.463,1.962
1122.0,-5.901,12.24,8.298,1.76,0.463,1.962
1126.0,-5.453,12.818,8.887,1.771,0.532,2.097
1130.0,-5.453,12.818,8.887,1.771,0.532,2.097
1133.0,-5.453,12.818,8.936,1.771,0.532,2.097
1137.0,-5.15,13.234,8.936,1.739,0.567,2.322
1141.0,-5.15,13.234,8.936,1.739,0.567,2.322
1145.0,-4.86,13.183,8.621,1.667,0.596,2.63
1149.0,-4.86,13.183,8.621,1.667,0.596,2.63
1153.0,-4.86,13.183,8.621,1.667,0.596,2.63
1156.0,-4.573,13.169,8.107,1.584,0.622,2.922
1160.0,-4.573,13.169,8.107,1.584,0.622,2.922
1164.0,-4.18,13.226,7.758,1.497,0.646,3.22
1168.0,-4.18,13.226,7.758,1.497,0.646,3.22
1172.0,-4.18,13.226,7.758,1.497,0.646,3.22
1175.0,-3.487,12.713,7.609,1.394,0.658,3.558
1179.0,-3.487,12.713,7.609,1.394,0.658,3.558
1183.0,-3.487,12.23,7.481,1.394,0.658,3.558
1187.0,-2.939,12.23,7.481,1.271,0.653,3.894
1191.0,-2.939,12.23,7.481,1.271,0.653,3.894
1195.0,-2.78,11.511,7.338,1.136,0.635,4.24
1198.0,-2.78,11.511,7.338,1.136,0.635,4.24
1202.0,-2.78,11.511,7.338,1.136,0.635,4.24
1206.0,-2.885,10.762,7.159,1.013,0.6,4.571
1210.0,-2.885,10.762,7.159,1.013,0.6,4.571
1214.0,-3.147,10.153,6.737,0.919,0.533,4.852
1217.0,-3.147,10.153,6.737,0.919,0.533,4.852
1221.0,-3.147,10.153,6.737,0.919,0.533,4.852
1225.0,-3.363,9.687,6.13,0.829,0.45,5.003
1229.0,-3.363,9.687,6.13,0.829,0.45,5.003
1233.0,-3.438,9.182,5.533,0.829,0.45,5.003
1236.0,-3.438,9.182,5.533,0.709,0.384,5.013
1240.0,-3.438,9.182,5.533,0.709,0.384,5.013
1244.0,-3.176,8.618,5.023,0.545,0.325,5.013
1247.0,-3.176,8.618,5.023,0.545,0.325,5.013
1251.0,-3.176,8.618,5.023,0.545,0.325,5.013
1255.0,-2.998,8.298,4.586,0.367,0.271,5.013
1259.0,-2.998,8.298,4.586,0.367,0.271,5.013
1262.0,-2.873,7.936,3.873,0.367,0.271,5.013
1266.0,-2.873,7.936,3.873,0.174,0.214,5.013
1270.0,-2.873,7.936,3.873,0.174,0.214,5.013
1274.0,-2.746,7.536,3.118,-0.066,0.167,5.013
1277.0,-2.746,7.536,3.118,-0.066,0.167,5.013
1281.0,-2.746,7.536,3.118,-0.066,0.167,5.013
1285.0,-2.654,6.937,2.556,-0.367,0.134,5.013
1289.0,-2.654,6.937,2.556,-0.367,0.134,5.013
1293.0,-2.59,6.459,2.4,-0.707,0.102,5.013
1297.0,-2.59,6.459,2.4,-0.707,0.102,5.013
1300.0,-2.59,6.459,2.4,-0.707,0.102,5.013
1304.0,-2.599,6.047,2.308,-1.054,0.047,5.013
1308.0,-2.599,6.047,2.308,-1.054,0.047,5.013
1312.0,-2.637,5.532,2.103,-1.054,0.047,5.013
1316.0,-2.637,5.532,2.103,-1.396,-0.024,5.013
1320.0,-2.637,5.532,2.103,-1.396,-0.024,5.013
1323.0,-2.523,4.825,1.543,-1.744,-0.096,5.013
1327.0,-2.523,4.825,1.543,-1.744,-0.096,5.013
1331.0,-2.213,4.05,0.992,-1.744,-0.096,5.013
1335.0,-2.213,4.05,0.992,-2.099,-0.144,5.013
1339.0,-2.213,4.05,0.992,-2.099,-0.144,5.013
1343.0,-1.627,2.989,0.623,-2.443,-0.162,5.013
1347.0,-1.627,2.989,0.623,-2.443,-0.162,5.013
1351.0,-1.627,1.957,0.852,-2.443,-0.162,5.013
1355.0,-0.832,1.957,0.852,-2.755,-0.168,5.013
1359.0,-0.832,1.957,0.852,-2.755,-0.168,5.013
1363.0,-0.264,1.169,1.152,-3.005,-0.194,5.013
1366.0,-0.264,1.169,1.152,-3.005,-0.194,5.013
1370.0,-0.264,1.169,1.027,-3.005,-0.194,5.013
1374.0,-0.23,0.452,1.027,-3.204,-0.229,5.013
1378.0,-0.23,0.452,1.027,-3.204,-0.229,5.013
1382.0,-0.48,-0.453,0.527,-3.379,-0.241,5.013
1386.0,-0.48,-0.453,0.527,-3.379,-0.241,5.013
1390.0,-0.48,-0.453,0.527,-3.379,-0.241,5.013
1394.0,-0.815,-1.61,-0.028,-3.547,-0.22,5.013
1398.0,-0.815,-1.61,-0.028,-3.547,-0.22,5.013
1402.0,-0.959,-3.2,-0.174,-3.713,-0.177,5.013
1406.0,-0.959,-3.2,-0.174,-3.713,-0.177,5.013
1410.0,-0.646,-5.972,0.439,-3.713,-0.177,5.013
1414.0,-0.646,-5.972,0.439,-3.839,-0.125,5.013
1418.0,-0.646,-5.972,0.439,-3.839,-0.125,5.013
1422.0,-0.36,-9.106,1.578,-3.826,-0.068,5.013
1426.0,-0.36,-9.106,1.578,-3.826,-0.068,5.013
1430.0,-0.8,-11.475,2.201,-3.826,-0.068,5.012
1434.0,-0.8,-11.475,2.201,-3.596,-0.005,5.012
1438.0,-0.8,-11.475,2.201,-3.596,-0.005,5.012
1443.0,-1.716,-13.278,2.078,-3.182,0.052,4.861
1447.0,-1.716,-13.278,2.078,-3.182,0.052,4.861
1451.0,-2.786,-14.164,1.372,-2.632,0.097,4.384
1455.0,-2.786,-14.164,1.372,-2.632,0.097,4.384
1459.0,-2.786,-14.164,1.372,-2.632,0.097,4.384
1463.0,-3.193,-15.185,0.74,-1.993,0.098,3.93
1466.0,-3.193,-15.185,0.74,-1.993,0.098,3.93
1470.0,-2.669,-16.513,0.55,-1.266,0.042,3.531
1474.0,-2.669,-16.513,0.55,-1.266,0.042,3.531
1478.0,-2.669,-16.513,0.55,-1.266,0.042,3.531
1482.0,-1.219,-17.51,0.533,-0.452,-0.01,3.164
1487.0,-1.219,-17.51,0.533,-0.452,-0.01,3.164
1491.0,0.76,-17.882,0.84,0.381,-0.022,2.816
1495.0,0.76,-17.882,0.84,0.381,-0.022,2.816
1498.0,0.76,-17.882,0.84,0.381,-0.022,2.816
1502.0,2.551,-17.676,1.583,1.14,-0.031,2.468
1506.0,2.551,-17.676,1.583,1.14,-0.031,2.468
1510.0,3.913,-16.628,2.32,1.758,-0.077,2.121
1514.0,3.913,-16.628,2.32,1.758,-0.077,2.121
1518.0,3.913,-16.628,2.32,1.758,-0.077,2.121
1522.0,5.104,-14.987,2.868,2.169,-0.148,1.797
1526.0,5.104,-14.987,2.868,2.169,-0.148,1.797
1530.0,6.488,-13.068,3.165,2.346,-0.211,1.509
1534.0,6.488,-13.068,3.165,2.346,-0.211,1.509
1538.0,6.488,-13.068,3.165,2.346,-0.211,1.509
1541.0,8.0,-11.099,3.514,2.302,-0.238,1.254
1545.0,8.0,-11.099,3.514,2.302,-0.238,1.254
1549.0,9.48,-9.382,3.921,2.079,-0.23,1.018
1553.0,9.48,-9.382,3.921,2.079,-0.23,1.018
1557.0,9.48,-9.382,3.921,2.079,-0.23,1.018
1561.0,10.624,-7.987,4.089,1.725,-0.205,0.793
1565.0,10.624,-7.987,4.089,1.725,-0.205,0.793
1568.0,11.174,-6.921,3.982,1.725,-0.205,0.582
1572.0,11.174,-6.921,3.982,1.284,-0.168,0.582
1576.0,11.174,-6.921,3.982,1.284,-0.168,0.582
1580.0,11.007,-6.163,3.802,0.794,-0.106,0.417
1584.0,11.007,-6.163,3.802,0.794,-0.106,0.417
1588.0,10.417,-5.748,3.834,0.794,-0.106,0.417
1592.0,10.417,-5.748,3.834,0.29,-0.035,0.318
1596.0,10.417,-5.748,3.834,0.29,-0.035,0.318
1600.0,9.682,-5.551,3.932,-0.192,0.021,0.266
1604.0,9.682,-5.551,3.932,-0.192,0.021,0.266
1607.0,9.682,-5.551,4.013,-0.192,0.021,0.266
1611.0,9.047,-5.432,4.013,-0.611,0.05,0.238
1615.0,9.047,-5.432,4.013,-0.611,0.05,0.238
1619.0,8.714,-5.32,4.13,-0.94,0.058,0.234
1623.0,8.714,-5.32,4.13,-0.94,0.058,0.234
1626.0,8.714,-5.32,4.13,-0.94,0.058,0.234
1630.0,8.49,-5.179,4.158,-1.166,0.06,0.26
1634.0,8.49,-5.179,4.158,-1.166,0.06,0.26
1638.0,8.183,-4.987,4.06,-1.294,0.071,0.316
1642.0,8.183,-4.987,4.06,-1.294,0.071,0.316
1646.0,8.183,-4.987,4.06,-1.294,0.071,0.316
1649.0,7.695,-4.729,3.822,-1.338,0.092,0.403
1653.0,7.695,-4.729,3.822,-1.338,0.092,0.403
1657.0,7.125,-4.448,3.567,-1.338,0.092,0.403
1661.0,7.125,-4.448,3.567,-1.321,0.118,0.509
1665.0,7.125,-4.448,3.567,-1.321,0.118,0.509
1668.0,6.683,-4.19,3.309,-1.261,0.151,0.63
1672.0,6.683,-4.19,3.309,-1.261,0.151,0.63
1676.0,6.683,-4.19,3.309,-1.261,0.151,0.63
1680.0,6.343,-3.913,2.989,-1.166,0.191,0.764
1684.0,6.343,-3.913,2.989,-1.166,0.191,0.764
1688.0,5.968,-3.596,2.635,-1.041,0.249,0.914
1691.0,5.968,-3.596,2.635,-1.041,0.249,0.914
1695.0,5.968,-3.596,2.635,-1.041,0.249,0.914
1699.0,5.626,-3.187,2.249,-0.887,0.331,1.088
1703.0,5.626,-3.187,2.249,-0.887,0.331,1.088
1707.0,5.49,-2.819,1.793,-0.887,0.331,1.291
1711.0,5.49,-2.819,1.793,-0.706,0.443,1.291
1714.0,5.49,-2.819,1.793,-0.706,0.443,1.291
1718.0,5.378,-2.515,1.494,-0.51,0.598,1.517
1722.0,5.378,-2.515,1.494,-0.51,0.598,1.517
1726.0,5.378,-2.515,1.482,-0.51,0.598,1.517
1730.0,5.146,-2.407,1.482,-0.301,0.777,1.756
1733.0,5.146,-2.407,1.482,-0.301,0.777,1.756
1737.0,4.905,-2.565,1.384,-0.078,0.954,1.984
1741.0,4.905,-2.565,1.384,-0.078,0.954,1.984
1745.0,4.905,-2.565,1.384,-0.078,0.954,1.984
1749.0,4.458,-2.743,1.205,0.155,1.135,2.188
1752.0,4.458,-2.743,1.205,0.155,1.135,2.188
1756.0,3.876,-2.897,1.111,0.155,1.327,2.374
1760.0,3.876,-2.897,1.111,0.399,1.327,2.374
1764.0,3.876,-2.897,1.111,0.399,1.327,2.374
1767.0,3.19,-3.047,1.17,0.647,1.526,2.546
1771.0,3.19,-3.047,1.17,0.647,1.526,2.546
1775.0,3.19,-3.047,1.17,0.647,1.526,2.546
1779.0,2.412,-3.147,1.301,0.89,1.717,2.699
1782.0,2.412,-3.147,1.301,0.89,1.717,2.699
1786.0,1.58,-3.226,1.44,1.119,1.897,2.828
1790.0,1.58,-3.226,1.44,1.119,1.897,2.828
1793.0,1.58,-3.226,1.44,1.119,1.897,2.828
1797.0,0.792,-3.195,1.439,1.322,2.065,2.929
1801.0,0.792,-3.195,1.439,1.322,2.065,2.929
1805.0,0.792,-3.195,1.286,1.322,2.065,2.929
1808.0,0.133,-3.09,1.286,1.488,2.238,3.014
1812.0,0.133,-3.09,1.286,1.488,2.238,3.014
1816.0,-0.4,-2.936,1.064,1.616,2.442,3.097
1820.0,-0.4,-2.936,1.064,1.616,2.442,3.097
1824.0,-0.4,-2.936,1.064,1.616,2.442,3.097
1827.0,-0.887,-2.804,1.025,1.716,2.684,3.187
1831.0,-0.887,-2.804,1.025,1.716,2.684,3.187
1835.0,-1.523,-2.869,1.713,1.716,2.684,3.281
1839.0,-1.523,-2.869,1.713,1.805,2.933,3.281
1843.0,-1.523,-2.869,1.713,1.805,2.933,3.281
1846.0,-2.367,-3.03,2.719,1.903,3.095,3.361
1850.0,-2.367,-3.03,2.719,1.903,3.095,3.361
1854.0,-2.367,-3.03,3.187,1.903,3.095,3.361
1858.0,-3.25,-3.173,3.187,2.004,3.126,3.421
1862.0,-3.25,-3.173,3.187,2.004,3.126,3.421
1866.0,-3.897,-3.19,2.395,2.094,3.105,3.473
1869.0,-3.897,-3.19,2.395,2.094,3.105,3.473
1873.0,-3.897,-3.19,2.395,2.094,3.105,3.473
1877.0,-4.147,-3.138,0.832,2.175,3.172,3.54
1881.0,-4.147,-3.138,0.832,2.175,3.172,3.54
1885.0,-3.846,-3.751,-0.23,2.285,3.393,3.6
1889.0,-3.846,-3.751,-0.23,2.285,3.393,3.6
1892.0,-3.846,-3.751,-0.23,2.285,3.393,3.6
1896.0,-3.357,-5.087,-0.002,2.488,3.725,3.563
1900.0,-3.357,-5.087,-0.002,2.488,3.725,3.563
1904.0,-3.285,-6.216,0.913,2.488,4.083,3.383
1908.0,-3.285,-6.216,0.913,2.841,4.083,3.383
1912.0,-3.285,-6.216,0.913,2.841,4.083,3.383
1916.0,-3.772,-6.767,1.748,3.349,4.423,3.11
1919.0,-3.772,-6.767,1.748,3.349,4.423,3.11
1923.0,-3.772,-6.767,2.304,3.349,4.423,3.11
1927.0,-4.788,-6.861,2.304,3.981,4.747,2.81
1931.0,-4.788,-6.861,2.304,3.981,4.747,2.81
1935.0,-6.198,-6.541,2.559,4.639,4.984,2.517
1939.0,-6.198,-6.541,2.559,4.639,4.984,2.517
1942.0,-6.198,-6.541,2.559,4.639,4.984,2.517
1946.0,-7.992,-5.968,3.126,4.979,5.015,2.242
1950.0,-7.992,-5.968,3.126,4.979,5.015,2.242
1954.0,-10.352,-5.36,4.707,4.995,5.015,1.966
1958.0,-10.352,-5.36,4.707,4.995,5.015,1.966
1962.0,-10.352,-5.36,4.707,4.995,5.015,1.966
1966.0,-12.639,-4.691,6.254,4.995,5.015,1.659
1969.0,-12.639,-4.691,6.254,4.995,5.015,1.659
1973.0,-13.828,-3.718,6.233,4.995,5.015,1.331
1977.0,-13.828,-3.718,6.233,4.995,5.015,1.331
1981.0,-13.828,-3.718,6.233,4.995,5.015,1.331
1985.0,-13.475,-2.585,4.836,4.995,4.944,1.053
1989.0,-13.475,-2.585,4.836,4.995,4.944,1.053
1993.0,-12.263,-1.464,2.944,4.995,4.944,0.865
1997.0,-12.263,-1.464,2.944,4.995,4.849,0.865
2001.0,-12.263,-1.464,2.944,4.995,4.849,0.865
2005.0,-11.066,-0.955,2.016,4.995,4.954,0.733
2009.0,-11.066,-0.955,2.016,4.995,4.954,0.733
2012.0,-10.329,-1.037,2.848,4.995,4.954,0.733
2016.0,-10.329,-1.037,2.848,4.988,5.015,0.538
2020.0,-10.329,-1.037,2.848,4.988,5.015,0.538
2024.0,-10.238,-1.439,4.249,4.719,5.015,0.205
2028.0,-10.238,-1.439,4.249,4.719,5.015,0.205
2032.0,-10.238,-1.557,5.642,4.719,5.015,0.205
2036.0,-11.195,-1.557,5.642,4.146,5.015,-0.235
2040.0,-11.195,-1.557,5.642,4.146,5.015,-0.235
2044.0,-12.609,-1.376,6.026,3.605,5.015,-0.69
2048.0,-12.609,-1.376,6.026,3.605,5.015,-0.69
2052.0,-13.799,-0.927,6.106,3.605,5.015,-0.69
2056.0,-13.799,-0.927,6.106,3.119,5.015,-1.054
2060.0,-13.799,-0.927,6.106,3.119,5.015,-1.054
2064.0,-14.518,-0.31,5.93,2.662,5.015,-1.286
2068.0,-14.518,-0.31,5.93,2.662,5.015,-1.286
2072.0,-14.94,0.315,6.068,2.662,5.015,-1.404
2076.0,-14.94,0.315,6.068,2.222,5.015,-1.404
2080.0,-14.94,0.315,6.068,2.222,5.015,-1.404
2084.0,-15.118,0.66,6.078,1.82,5.006,-1.465
2087.0,-15.118,0.66,6.078,1.82,5.006,-1.465
2091.0,-15.193,0.842,5.731,1.82,5.006,-1.465
2095.0,-15.193,0.842,5.731,1.467,4.913,-1.507
2099.0,-15.193,0.842,5.731,1.467,4.913,-1.507
2103.0,-15.352,0.946,5.517,1.145,4.772,-1.518
2107.0,-15.352,0.946,5.517,1.145,4.772,-1.518
2111.0,-15.352,0.946,5.477,1.145,4.772,-1.518
2115.0,-15.584,0.988,5.477,0.842,4.616,-1.496
2119.0,-15.584,0.988,5.477,0.842,4.616,-1.496
2123.0,-15.62,1.055,5.47,0.567,4.433,-1.457
2126.0,-15.62,1.055,5.47,0.567,4.433,-1.457
2130.0,-15.62,1.055,5.445,0.567,4.433,-1.457
2134.0,-15.411,1.085,5.445,0.329,4.233,-1.414
2138.0,-15.411,1.085,5.445,0.329,4.233,-1.414
2142.0,-15.306,1.021,5.282,0.115,4.039,-1.374
2146.0,-15.306,1.021,5.282,0.115,4.039,-1.374
2150.0,-15.306,1.021,5.282,0.115,4.039,-1.374
2154.0,-15.799,0.903,5.154,-0.097,3.881,-1.34
2158.0,-15.799,0.903,5.154,-0.097,3.881,-1.34
2162.0,-16.622,0.776,5.219,-0.313,3.758,-1.293
2166.0,-16.622,0.776,5.219,-0.313,3.758,-1.293
2170.0,-16.622,0.776,5.219,-0.313,3.758,-1.293
2174.0,-17.326,0.734,5.392,-0.523,3.631,-1.226
2178.0,-17.326,0.734,5.392,-0.523,3.631,-1.226
2182.0,-17.608,0.641,5.561,-0.714,3.467,-1.144
2186.0,-17.608,0.641,5.561,-0.714,3.467,-1.144
2190.0,-17.608,0.641,5.657,-0.714,3.467,-1.144
2194.0,-17.58,0.536,5.657,-0.876,3.258,-1.071
2198.0,-17.58,0.536,5.657,-0.876,3.258,-1.071
2202.0,-17.423,0.848,5.553,-0.997,3.026,-1.011
2206.0,-17.423,0.848,5.553,-0.997,3.026,-1.011
2210.0,-16.948,1.093,5.24,-0.997,3.026,-1.011
2214.0,-16.948,1.093,5.24,-1.089,2.789,-0.937
2218.0,-16.948,1.093,5.24,-1.089,2.789,-0.937
2222.0,-16.21,1.236,5.039,-1.174,2.557,-0.856
2226.0,-16.21,1.236,5.039,-1.174,2.557,-0.856
2230.0,-15.46,1.284,4.927,-1.174,2.557,-0.856
2234.0,-15.46,1.284,4.927,-1.263,2.318,-0.771
2238.0,-15.46,1.284,4.927,-1.263,2.318,-0.771
2242.0,-14.9,1.189,4.818,-1.369,2.082,-0.688
2246.0,-14.9,1.189,4.818,-1.369,2.082,-0.688
2250.0,-14.563,1.033,4.683,-1.369,1.86,-0.614
2254.0,-14.563,1.033,4.683,-1.502,1.86,-0.614
2258.0,-14.563,1.033,4.683,-1.502,1.86,-0.614
2262.0,-14.285,0.769,4.52,-1.659,1.664,-0.546
2266.0,-14.285,0.769,4.52,-1.659,1.664,-0.546
2270.0,-14.152,0.451,4.438,-1.837,1.501,-0.479
2274.0,-14.152,0.451,4.438,-1.837,1.501,-0.479
2278.0,-14.152,0.451,4.438,-1.837,1.501,-0.479
2282.0,-14.233,0.053,4.427,-2.026,1.363,-0.412
2286.0,-14.233,0.053,4.427,-2.026,1.363,-0.412
2290.0,-14.175,-0.297,4.467,-2.206,1.242,-0.345
2294.0,-14.175,-0.297,4.467,-2.206,1.242,-0.345
2298.0,-14.175,-0.297,4.467,-2.206,1.242,-0.345
2302.0,-13.822,-0.732,4.519,-2.352,1.126,-0.285
2306.0,-13.822,-0.732,4.519,-2.352,1.126,-0.285
2310.0,-13.494,-1.104,4.625,-2.453,1.01,-0.243
2314.0,-13.494,-1.104,4.625,-2.453,1.01,-0.243
2318.0,-13.494,-1.104,4.667,-2.453,1.01,-0.243
2322.0,-13.253,-1.339,4.667,-2.506,0.89,-0.213
2326.0,-13.253,-1.339,4.667,-2.506,0.89,-0.213
2330.0,-12.897,-1.674,4.624,-2.509,0.755,-0.182
2334.0,-12.897,-1.674,4.624,-2.509,0.755,-0.182
2339.0,-12.548,-1.969,4.493,-2.509,0.608,-0.159
2343.0,-12.548,-1.969,4.493,-2.468,0.608,-0.159
2347.0,-12.548,-1.969,4.493,-2.468,0.608,-0.159
2351.0,-12.321,-2.154,4.385,-2.395,0.465,-0.14
2355.0,-12.321,-2.154,4.385,-2.395,0.465,-0.14
2359.0,-12.078,-2.334,4.262,-2.292,0.33,-0.118
2363.0,-12.078,-2.334,4.262,-2.292,0.33,-0.118
2367.0,-12.078,-2.334,4.262,-2.292,0.33,-0.118
2371.0,-11.693,-2.504,4.045,-2.161,0.2,-0.1
2375.0,-11.693,-2.504,4.045,-2.161,0.2,-0.1
2379.0,-11.25,-2.575,3.79,-2.006,0.077,-0.087
2383.0,-11.25,-2.575,3.79,-2.006,0.077,-0.087
2387.0,-10.79,-2.629,3.525,-2.006,0.077,-0.087
2392.0,-10.79,-2.629,3.525,-1.828,-0.037,-0.082
2396.0,-10.79,-2.629,3.525,-1.828,-0.037,-0.082
2400.0,-10.557,-2.668,3.234,-1.638,-0.139,-0.077
2404.0,-10.557,-2.668,3.234,-1.638,-0.139,-0.077
2408.0,-10.576,-2.684,3.066,-1.448,-0.223,-0.063
2412.0,-10.576,-2.684,3.066,-1.448,-0.223,-0.063
2417.0,-10.576,-2.684,3.066,-1.448,-0.223,-0.063
2421.0,-10.474,-2.7,2.962,-1.264,-0.299,-0.027
2425.0,-10.474,-2.7,2.962,-1.264,-0.299,-0.027
2429.0,-10.073,-2.715,2.843,-1.094,-0.381,0.017
2433.0,-10.073,-2.715,2.843,-1.094,-0.381,0.017
2437.0,-9.671,-2.74,2.664,-1.094,-0.474,0.047
2441.0,-9.671,-2.74,2.664,-0.948,-0.474,0.047
2445.0,-9.671,-2.74,2.664,-0.948,-0.474,0.047
2449.0,-9.532,-2.665,2.369,-0.833,-0.56,0.045
2453.0,-9.532,-2.665,2.369,-0.833,-0.56,0.045
2457.0,-9.765,-2.55,2.063,-0.75,-0.617,0.029
2461.0,-9.765,-2.55,2.063,-0.75,-0.617,0.029
2465.0,-9.765,-2.55,2.063,-0.75,-0.617,0.029
2469.0,-10.217,-2.463,1.829,-0.702,-0.643,0.026
2473.0,-10.217,-2.463,1.829,-0.702,-0.643,0.026
2477.0,-10.546,-2.422,1.766,-0.681,-0.659,0.049
2481.0,-10.546,-2.422,1.766,-0.681,-0.659,0.049
2486.0,-10.546,-2.422,1.766,-0.681,-0.659,0.049
2490.0,-10.521,-2.438,1.61,-0.673,-0.693,0.085
2494.0,-10.521,-2.438,1.61,-0.673,-0.693,0.085
2498.0,-10.372,-2.448,1.358,-0.668,-0.747,0.112
2502.0,-10.372,-2.448,1.358,-0.668,-0.747,0.112
2506.0,-10.32,-2.432,1.071,-0.668,-0.747,0.112
2510.0,-10.32,-2.432,1.071,-0.661,-0.798,0.119
2514.0,-10.32,-2.432,1.071,-0.661,-0.798,0.119
2518.0,-10.259,-2.392,0.815,-0.65,-0.828,0.114
2522.0,-10.259,-2.392,0.815,-0.65,-0.828,0.114
2526.0,-10.085,-2.416,0.645,-0.631,-0.837,0.108
2530.0,-10.085,-2.416,0.645,-0.631,-0.837,0.108
2534.0,-10.085,-2.416,0.645,-0.631,-0.837,0.108
2539.0,-9.909,-2.441,0.546,-0.607,-0.837,0.094
2543.0,-9.909,-2.441,0.546,-0.607,-0.837,0.094
2547.0,-9.783,-2.398,0.501,-0.576,-0.832,0.065
2551.0,-9.783,-2.398,0.501,-0.576,-0.832,0.065
2555.0,-9.783,-2.398,0.501,-0.576,-0.832,0.065
2559.0,-9.537,-2.384,0.442,-0.537,-0.834,0.019
2562.0,-9.537,-2.384,0.442,-0.537,-0.834,0.019
2566.0,-9.18,-2.317,0.304,-0.49,-0.846,-0.049
2571.0,-9.18,-2.317,0.304,-0.49,-0.846,-0.049
2575.0,-9.18,-2.317,0.056,-0.49,-0.846,-0.049
2579.0,-8.829,-2.212,0.056,-0.434,-0.855,-0.141
2583.0,-8.829,-2.212,0.056,-0.434,-0.855,-0.141
2587.0,-8.73,-2.063,-0.212,-0.376,-0.84,-0.239
2591.0,-8.73,-2.063,-0.212,-0.376,-0.84,-0.239
2595.0,-9.059,-1.93,-0.384,-0.376,-0.793,-0.315
2599.0,-9.059,-1.93,-0.384,-0.322,-0.793,-0.315
2604.0,-9.059,-1.93,-0.384,-0.322,-0.793,-0.315
2608.0,-9.616,-1.917,-0.304,-0.273,-0.722,-0.349
2612.0,-9.616,-1.917,-0.304,-0.273,-0.722,-0.349
2616.0,-9.973,-2.019,-0.17,-0.226,-0.663,-0.338
2620.0,-9.973,-2.019,-0.17,-0.226,-0.663,-0.338
2624.0,-10.058,-2.16,-0.159,-0.226,-0.663,-0.338
2629.0,-10.058,-2.16,-0.159,-0.181,-0.638,-0.312
2633.0,-10.058,-2.16,-0.159,-0.181,-0.638,-0.312
2637.0,-10.13,-2.256,-0.207,-0.139,-0.637,-0.299
2641.0,-10.13,-2.256,-0.207,-0.139,-0.637,-0.299
2646.0,-10.251,-2.25,-0.212,-0.101,-0.637,-0.312
2650.0,-10.251,-2.25,-0.212,-0.101,-0.637,-0.312
2654.0,-10.181,-2.182,-0.282,-0.101,-0.637,-0.332
2658.0,-10.181,-2.182,-0.282,-0.074,-0.629,-0.332
2663.0,-10.181,-2.182,-0.282,-0.074,-0.629,-0.332
2667.0,-9.841,-2.094,-0.297,-0.061,-0.602,-0.345
2671.0,-9.841,-2.094,-0.297,-0.061,-0.602,-0.345
2675.0,-9.49,-2.058,-0.248,-0.059,-0.559,-0.352
2679.0,-9.49,-2.058,-0.248,-0.059,-0.559,-0.352
2684.0,-9.462,-1.985,-0.156,-0.059,-0.559,-0.352
2688.0,-9.462,-1.985,-0.156,-0.059,-0.505,-0.361
2692.0,-9.462,-1.985,-0.156,-0.059,-0.505,-0.361
2696.0,-9.793,-1.908,-0.044,-0.051,-0.443,-0.366
2700.0,-9.793,-1.908,-0.044,-0.051,-0.443,-0.366
2704.0,-10.189,-1.869,-0.009,-0.035,-0.392,-0.358
2709.0,-10.189,-1.869,-0.009,-0.035,-0.392,-0.358
2713.0,-10.189,-1.869,-0.029,-0.035,-0.392,-0.358
2717.0,-10.521,-1.804,-0.029,-0.019,-0.351,-0.329
2721.0,-10.521,-1.804,-0.029,-0.019,-0.351,-0.329
2726.0,-10.699,-1.8,-0.002,-0.008,-0.312,-0.282
2730.0,-10.699,-1.8,-0.002,-0.008,-0.312,-0.282
2734.0,-10.683,-1.806,0.082,0.006,-0.275,-0.225
2738.0,-10.683,-1.806,0.082,0.006,-0.275,-0.225
2742.0,-10.683,-1.806,0.082,0.006,-0.275,-0.225
2746.0,-10.335,-1.872,0.179,0.03,-0.243,-0.172
2751.0,-10.335,-1.872,0.179,0.03,-0.243,-0.172
2755.0,-9.937,-1.86,0.315,0.068,-0.212,-0.132
2759.0,-9.937,-1.86,0.315,0.068,-0.212,-0.132
2763.0,-9.568,-1.799,0.513,0.068,-0.212,-0.132
2767.0,-9.568,-1.799,0.513,0.126,-0.178,-0.109
2771.0,-9.568,-1.799,0.513,0.126,-0.178,-0.109
2775.0,-9.187,-1.673,0.592,0.201,-0.154,-0.099
2779.0,-9.187,-1.673,0.592,0.201,-0.154,-0.099
2783.0,-8.912,-1.522,0.565,0.201,-0.154,-0.093
2787.0,-8.912,-1.522,0.565,0.281,-0.139,-0.093
2791.0,-8.912,-1.522,0.565,0.281,-0.139,-0.093
2795.0,-8.792,-1.375,0.532,0.357,-0.12,-0.084
2799.0,-8.792,-1.375,0.532,0.357,-0.12,-0.084
2803.0,-8.673,-1.262,0.56,0.357,-0.092,-0.066
2807.0,-8.673,-1.262,0.56,0.427,-0.092,-0.066
2810.0,-8.673,-1.262,0.56,0.427,-0.092,-0.066
2814.0,-8.38,-1.228,0.649,0.494,-0.068,-0.041
2818.0,-8.38,-1.228,0.649,0.494,-0.068,-0.041
2822.0,-8.061,-1.25,0.612,0.554,-0.053,-0.019
2826.0,-8.061,-1.25,0.612,0.554,-0.053,-0.019
2830.0,-8.061,-1.25,0.612,0.554,-0.053,-0.019
2834.0,-8.076,-1.221,0.515,0.601,-0.032,-0.011
2838.0,-8.076,-1.221,0.515,0.601,-0.032,-0.011
2842.0,-8.548,-1.172,0.473,0.629,0.01,-0.012
2846.0,-8.548,-1.172,0.473,0.629,0.01,-0.012
2850.0,-8.548,-1.172,0.473,0.629,0.01,-0.012
2854.0,-9.131,-1.15,0.485,0.639,0.059,-0.004
2858.0,-9.131,-1.15,0.485,0.639,0.059,-0.004
2862.0,-9.497,-1.111,0.547,0.629,0.086,0.018
2866.0,-9.497,-1.111,0.547,0.629,0.086,0.018
2870.0,-9.497,-1.111,0.547,0.629,0.086,0.018
2873.0,-9.745,-1.083,0.523,0.599,0.09,0.051
2877.0,-9.745,-1.083,0.523,0.599,0.09,0.051
2881.0,-10.012,-1.084,0.489,0.599,0.09,0.051
2885.0,-10.012,-1.084,0.489,0.558,0.094,0.087
2889.0,-10.012,-1.084,0.489,0.558,0.094,0.087
2893.0,-10.241,-1.1,0.582,0.512,0.108,0.121
2897.0,-10.241,-1.1,0.582,0.512,0.108,0.121
2901.0,-10.241,-1.144,0.686,0.512,0.108,0.121
2905.0,-10.239,-1.144,0.686,0.467,0.114,0.156
2908.0,-10.239,-1.144,0.686,0.467,0.114,0.156
2912.0,-10.178,-1.195,0.627,0.418,0.106,0.189
2916.0,-10.178,-1.195,0.627,0.418,0.106,0.189
2920.0,-10.178,-1.195,0.528,0.418,0.106,0.189
2924.0,-10.373,-1.23,0.528,0.361,0.104,0.213
2928.0,-10.373,-1.23,0.528,0.361,0.104,0.213
2932.0,-10.731,-1.247,0.523,0.294,0.115,0.231
2936.0,-10.731,-1.247,0.523,0.294,0.115,0.231
2940.0,-10.731,-1.247,0.523,0.294,0.115,0.231
2944.0,-10.856,-1.289,0.611,0.221,0.119,0.251
2947.0,-10.856,-1.289,0.611,0.221,0.119,0.251
2951.0,-10.571,-1.344,0.787,0.147,0.099,0.262
2955.0,-10.571,-1.344,0.787,0.147,0.099,0.262
2959.0,-10.571,-1.344,0.787,0.147,0.099,0.262
2963.0,-10.095,-1.39,0.936,0.081,0.057,0.249
2967.0,-10.095,-1.39,0.936,0.081,0.057,0.249
2971.0,-9.605,-1.343,0.931,0.029,0.005,0.2
2975.0,-9.605,-1.343,0.931,0.029,0.005,0.2
2979.0,-9.605,-1.343,0.931,0.029,0.005,0.2
2982.0,-9.138,-1.241,0.842,-0.014,-0.041,0.123
2986.0,-9.138,-1.241,0.842,-0.014,-0.041,0.123
2990.0,-8.668,-1.109,0.785,-0.056,-0.07,0.033
2994.0,-8.668,-1.109,0.785,-0.056,-0.07,0.033
2998.0,-8.668,-1.109,0.785,-0.056,-0.07,0.033
