deltaTime,Acc_X,Acc_Y,Acc_Z,Gyro_X,Gyro_Y,Gyro_Z
0.0,-9.03,-2.113,1.442,-0.757,-0.357,0.041
3.0,-9.03,-2.113,1.442,-0.757,-0.357,0.041
6.0,-9.03,-2.113,1.442,-0.757,-0.357,0.041
9.0,-9.03,-2.263,2.093,-0.757,-0.357,0.041
12.0,-8.855,-2.263,2.093,-0.74,-0.433,0.018
15.0,-8.855,-2.263,2.093,-0.74,-0.433,0.018
18.0,-8.855,-2.263,2.093,-0.74,-0.433,0.018
21.0,-9.166,-1.764,1.721,-0.702,-0.316,0.05
24.0,-9.166,-1.764,1.721,-0.702,-0.316,0.05
27.0,-9.166,-1.764,1.721,-0.702,-0.316,0.05
30.0,-9.187,-1.898,2.052,-0.772,-0.304,0.074
33.0,-9.187,-1.898,2.052,-0.772,-0.304,0.074
37.0,-9.187,-1.898,2.052,-0.772,-0.304,0.074
41.0,-9.374,-1.994,2.069,-0.821,-0.332,0.097
45.0,-9.374,-1.994,2.069,-0.821,-0.332,0.097
49.0,-9.374,-2.572,0.517,-0.821,-0.332,0.097
52.0,-7.161,-2.572,0.517,-0.888,-0.697,0.077
56.0,-7.161,-2.572,0.517,-0.888,-0.697,0.077
60.0,-9.026,-1.192,5.353,-0.87,-0.758,0.101
64.0,-9.026,-1.192,5.353,-0.87,-0.758,0.101
68.0,-9.026,-1.192,5.353,-0.87,-0.758,0.101
72.0,-8.828,-2.27,2.996,-0.916,-0.555,0.103
75.0,-8.828,-2.27,2.996,-0.916,-0.555,0.103
79.0,-8.892,-2.26,1.878,-0.844,-0.605,0.099
83.0,-8.892,-2.26,1.878,-0.844,-0.605,0.099
87.0,-8.892,-2.26,1.878,-0.844,-0.605,0.099
91.0,-8.597,-1.836,1.557,-0.772,-0.62,0.103
94.0,-8.597,-1.836,1.557,-0.772,-0.62,0.103
98.0,-8.45,-1.944,1.775,-0.772,-0.62,0.103
102.0,-8.45,-1.944,1.775,-0.787,-0.584,0.116
106.0,-8.45,-1.944,1.775,-0.787,-0.584,0.116
110.0,-8.956,-1.933,2.455,-0.788,-0.552,0.13
114.0,-8.956,-1.933,2.455,-0.788,-0.552,0.13
118.0,-8.956,-2.445,1.892,-0.788,-0.552,0.13
122.0,-9.844,-2.445,1.892,-0.764,-0.522,0.154
125.0,-9.844,-2.445,1.892,-0.764,-0.522,0.154
129.0,-9.858,-2.085,2.119,-0.766,-0.504,0.21
133.0,-9.858,-2.085,2.119,-0.766,-0.504,0.21
137.0,-9.858,-2.085,2.696,-0.766,-0.504,0.21
141.0,-9.829,-2.349,2.696,-0.886,-0.439,0.26
145.0,-9.829,-2.349,2.696,-0.886,-0.439,0.26
149.0,-10.665,-2.98,2.932,-0.97,-0.382,0.283
153.0,-10.665,-2.98,2.932,-0.97,-0.382,0.283
157.0,-10.665,-2.98,2.34,-0.97,-0.382,0.283
161.0,-11.862,-3.361,2.34,-0.961,-0.323,0.298
165.0,-11.862,-3.361,2.34,-0.961,-0.323,0.298
169.0,-12.269,-3.233,2.012,-0.946,-0.289,0.317
173.0,-12.269,-3.233,2.012,-0.946,-0.289,0.317
177.0,-12.269,-3.197,1.894,-0.946,-0.289,0.317
181.0,-11.949,-3.197,1.894,-0.98,-0.284,0.324
185.0,-11.949,-3.197,1.894,-0.98,-0.284,0.324
189.0,-11.621,-3.133,2.228,-1.024,-0.343,0.306
193.0,-11.621,-3.133,2.228,-1.024,-0.343,0.306
197.0,-11.235,-3.162,2.49,-1.024,-0.343,0.306
201.0,-11.235,-3.162,2.49,-1.022,-0.426,0.256
205.0,-11.235,-3.162,2.49,-1.022,-0.426,0.256
209.0,-10.573,-2.995,2.503,-0.928,-0.502,0.2
213.0,-10.573,-2.995,2.503,-0.928,-0.502,0.2
217.0,-9.763,-2.763,2.222,-0.928,-0.502,0.15
221.0,-9.763,-2.763,2.222,-0.774,-0.545,0.15
225.0,-9.763,-2.763,2.222,-0.774,-0.545,0.15
229.0,-9.054,-2.385,1.986,-0.64,-0.562,0.126
232.0,-9.054,-2.385,1.986,-0.64,-0.562,0.126
236.0,-8.698,-2.188,1.882,-0.64,-0.562,0.126
240.0,-8.698,-2.188,1.882,-0.584,-0.558,0.123
244.0,-8.698,-2.188,1.882,-0.584,-0.558,0.123
248.0,-8.45,-2.057,2.362,-0.572,-0.543,0.118
252.0,-8.45,-2.057,2.362,-0.572,-0.543,0.118
256.0,-8.45,-2.269,2.49,-0.572,-0.543,0.118
260.0,-8.316,-2.269,2.49,-0.58,-0.527,0.121
264.0,-8.316,-2.269,2.49,-0.58,-0.527,0.121
268.0,-8.16,-2.309,2.167,-0.582,-0.519,0.125
272.0,-8.16,-2.309,2.167,-0.582,-0.519,0.125
275.0,-8.16,-2.309,1.851,-0.582,-0.519,0.125
279.0,-7.891,-2.233,1.851,-0.606,-0.492,0.125
283.0,-7.891,-2.233,1.851,-0.606,-0.492,0.125
287.0,-7.99,-2.214,1.574,-0.646,-0.448,0.141
291.0,-7.99,-2.214,1.574,-0.646,-0.448,0.141
295.0,-7.99,-2.214,1.574,-0.646,-0.448,0.141
299.0,-8.295,-2.185,1.809,-0.69,-0.397,0.171
303.0,-8.295,-2.185,1.809,-0.69,-0.397,0.171
307.0,-8.77,-2.381,2.158,-0.721,-0.345,0.215
311.0,-8.77,-2.381,2.158,-0.721,-0.345,0.215
314.0,-8.77,-2.381,2.158,-0.721,-0.345,0.215
318.0,-9.22,-2.691,2.642,-0.717,-0.319,0.271
322.0,-9.22,-2.691,2.642,-0.717,-0.319,0.271
326.0,-9.58,-2.889,2.963,-0.694,-0.316,0.312
330.0,-9.58,-2.889,2.963,-0.694,-0.316,0.312
334.0,-9.58,-2.889,2.963,-0.694,-0.316,0.312
338.0,-9.747,-3.188,3.166,-0.681,-0.32,0.334
342.0,-9.747,-3.188,3.166,-0.681,-0.32,0.334
346.0,-9.683,-3.357,3.267,-0.652,-0.318,0.342
350.0,-9.683,-3.357,3.267,-0.652,-0.318,0.342
354.0,-9.683,-3.357,3.267,-0.652,-0.318,0.342
357.0,-9.815,-3.729,3.23,-0.61,-0.301,0.334
361.0,-9.815,-3.729,3.23,-0.61,-0.301,0.334
365.0,-9.657,-3.799,3.173,-0.528,-0.29,0.318
369.0,-9.657,-3.799,3.173,-0.528,-0.29,0.318
373.0,-9.657,-3.799,3.173,-0.528,-0.29,0.318
377.0,-9.593,-3.869,3.08,-0.441,-0.267,0.285
381.0,-9.593,-3.869,3.08,-0.441,-0.267,0.285
385.0,-9.857,-3.748,2.83,-0.441,-0.241,0.232
389.0,-9.857,-3.748,2.83,-0.344,-0.241,0.232
393.0,-9.857,-3.748,2.83,-0.344,-0.241,0.232
397.0,-10.006,-3.584,2.225,-0.254,-0.222,0.167
400.0,-10.006,-3.584,2.225,-0.254,-0.222,0.167
404.0,-9.684,-3.33,1.986,-0.254,-0.196,0.087
408.0,-9.684,-3.33,1.986,-0.194,-0.196,0.087
412.0,-9.684,-3.33,1.986,-0.194,-0.196,0.087
416.0,-9.406,-3.302,2.285,-0.145,-0.139,0.002
420.0,-9.406,-3.302,2.285,-0.145,-0.139,0.002
424.0,-9.513,-3.464,2.25,-0.145,-0.139,0.002
428.0,-9.513,-3.464,2.25,-0.058,-0.073,-0.071
432.0,-9.513,-3.464,2.25,-0.058,-0.073,-0.071
436.0,-9.445,-3.377,1.878,0.059,-0.038,-0.139
440.0,-9.445,-3.377,1.878,0.059,-0.038,-0.139
444.0,-9.087,-3.432,2.005,0.059,-0.038,-0.139
448.0,-9.087,-3.432,2.005,0.156,-0.008,-0.2
452.0,-9.087,-3.432,2.005,0.156,-0.008,-0.2
455.0,-8.82,-3.563,2.342,0.296,0.039,-0.244
459.0,-8.82,-3.563,2.342,0.296,0.039,-0.244
463.0,-8.82,-3.563,2.453,0.296,0.039,-0.244
467.0,-8.778,-3.545,2.453,0.476,0.073,-0.258
471.0,-8.778,-3.545,2.453,0.476,0.073,-0.258
475.0,-8.764,-3.373,2.788,0.644,0.091,-0.257
478.0,-8.764,-3.373,2.788,0.644,0.091,-0.257
482.0,-8.764,-3.373,2.788,0.644,0.091,-0.257
486.0,-8.636,-3.217,2.94,0.772,0.108,-0.248
490.0,-8.636,-3.217,2.94,0.772,0.108,-0.248
494.0,-8.573,-2.853,2.845,0.867,0.111,-0.232
497.0,-8.573,-2.853,2.845,0.867,0.111,-0.232
501.0,-8.573,-2.853,2.845,0.867,0.111,-0.232
505.0,-8.386,-2.502,2.812,0.894,0.097,-0.213
509.0,-8.386,-2.502,2.812,0.894,0.097,-0.213
513.0,-8.436,-2.238,2.515,0.894,0.097,-0.213
517.0,-8.436,-2.238,2.515,0.892,0.098,-0.189
520.0,-8.436,-2.238,2.515,0.892,0.098,-0.189
524.0,-8.451,-1.984,2.189,0.874,0.113,-0.161
528.0,-8.451,-1.984,2.189,0.874,0.113,-0.161
532.0,-8.451,-1.984,2.189,0.874,0.113,-0.161
536.0,-8.677,-1.704,1.919,0.849,0.143,-0.133
539.0,-8.677,-1.704,1.919,0.849,0.143,-0.133
543.0,-8.999,-1.493,1.671,0.813,0.183,-0.099
547.0,-8.999,-1.493,1.671,0.813,0.183,-0.099
551.0,-8.999,-1.493,1.671,0.813,0.183,-0.099
555.0,-9.552,-1.363,1.483,0.744,0.235,-0.053
559.0,-9.552,-1.363,1.483,0.744,0.235,-0.053
562.0,-9.919,-1.414,1.418,0.744,0.235,0.004
566.0,-9.919,-1.414,1.418,0.635,0.273,0.004
570.0,-9.919,-1.414,1.418,0.635,0.273,0.004
574.0,-10.219,-1.335,1.562,0.521,0.259,0.048
577.0,-10.219,-1.335,1.562,0.521,0.259,0.048
581.0,-10.219,-1.335,1.562,0.521,0.259,0.048
585.0,-10.511,-1.379,1.781,0.404,0.226,0.074
589.0,-10.511,-1.379,1.781,0.404,0.226,0.074
593.0,-10.713,-1.524,1.979,0.308,0.181,0.092
596.0,-10.713,-1.524,1.979,0.308,0.181,0.092
600.0,-10.713,-1.524,1.979,0.308,0.181,0.092
604.0,-10.583,-1.576,2.079,0.243,0.13,0.105
608.0,-10.583,-1.576,2.079,0.243,0.13,0.105
612.0,-10.217,-1.695,2.058,0.243,0.087,0.115
616.0,-10.217,-1.695,2.058,0.194,0.087,0.115
619.0,-10.217,-1.695,2.058,0.194,0.087,0.115
623.0,-9.8,-1.914,2.022,0.174,0.065,0.115
627.0,-9.8,-1.914,2.022,0.174,0.065,0.115
631.0,-9.8,-1.914,2.022,0.174,0.065,0.115
634.0,-9.567,-2.157,1.977,0.197,0.069,0.1
638.0,-9.567,-2.157,1.977,0.197,0.069,0.1
642.0,-9.43,-2.268,1.95,0.262,0.098,0.072
646.0,-9.43,-2.268,1.95,0.262,0.098,0.072
649.0,-9.43,-2.268,1.95,0.262,0.098,0.072
653.0,-9.322,-2.329,1.957,0.353,0.138,0.039
657.0,-9.322,-2.329,1.957,0.353,0.138,0.039
661.0,-9.322,-2.228,2.099,0.353,0.138,0.039
664.0,-9.069,-2.228,2.099,0.451,0.18,0.004
668.0,-9.069,-2.228,2.099,0.451,0.18,0.004
672.0,-8.905,-2.104,2.148,0.526,0.227,-0.055
676.0,-8.905,-2.104,2.148,0.526,0.227,-0.055
679.0,-8.905,-2.104,2.148,0.526,0.227,-0.055
683.0,-8.931,-2.311,2.23,0.573,0.26,-0.131
687.0,-8.931,-2.311,2.23,0.573,0.26,-0.131
691.0,-9.272,-3.064,2.513,0.573,0.277,-0.167
695.0,-9.272,-3.064,2.513,0.662,0.277,-0.167
698.0,-9.272,-3.064,2.513,0.662,0.277,-0.167
702.0,-9.775,-3.065,2.713,0.842,0.28,-0.155
706.0,-9.775,-3.065,2.713,0.842,0.28,-0.155
710.0,-9.775,-3.228,2.913,0.842,0.28,-0.155
714.0,-10.101,-3.228,2.913,1.03,0.255,-0.143
718.0,-10.101,-3.228,2.913,1.03,0.255,-0.143
722.0,-10.457,-2.576,3.026,1.185,0.227,-0.118
725.0,-10.457,-2.576,3.026,1.185,0.227,-0.118
729.0,-10.457,-2.576,3.026,1.185,0.227,-0.118
733.0,-11.023,-2.612,3.023,1.226,0.196,-0.093
737.0,-11.023,-2.612,3.023,1.226,0.196,-0.093
741.0,-11.064,-2.955,2.932,1.259,0.13,-0.061
745.0,-11.064,-2.955,2.932,1.259,0.13,-0.061
749.0,-11.064,-2.955,2.932,1.259,0.13,-0.061
753.0,-10.801,-3.275,2.909,1.346,0.039,-0.037
757.0,-10.801,-3.275,2.909,1.346,0.039,-0.037
761.0,-10.501,-3.622,3.069,1.469,-0.048,-0.058
765.0,-10.501,-3.622,3.069,1.469,-0.048,-0.058
769.0,-10.501,-3.622,3.069,1.469,-0.048,-0.058
773.0,-10.112,-3.842,3.091,1.6,-0.127,-0.151
777.0,-10.112,-3.842,3.091,1.6,-0.127,-0.151
781.0,-9.765,-3.928,2.91,1.727,-0.193,-0.313
785.0,-9.765,-3.928,2.91,1.727,-0.193,-0.313
788.0,-9.765,-3.928,2.91,1.727,-0.193,-0.313
792.0,-9.678,-4.016,2.608,1.854,-0.229,-0.519
796.0,-9.678,-4.016,2.608,1.854,-0.229,-0.519
800.0,-9.717,-4.279,2.393,2.0,-0.217,-0.746
804.0,-9.717,-4.279,2.393,2.0,-0.217,-0.746
808.0,-9.717,-4.279,2.393,2.0,-0.217,-0.746
812.0,-9.87,-4.826,2.3,2.182,-0.157,-0.98
816.0,-9.87,-4.826,2.3,2.182,-0.157,-0.98
820.0,-10.021,-5.482,2.387,2.416,-0.051,-1.218
824.0,-10.021,-5.482,2.387,2.416,-0.051,-1.218
828.0,-10.021,-5.482,2.387,2.416,-0.051,-1.218
832.0,-10.29,-6.15,3.041,2.723,0.076,-1.448
836.0,-10.29,-6.15,3.041,2.723,0.076,-1.448
839.0,-10.871,-6.692,4.054,3.097,0.165,-1.66
843.0,-10.871,-6.692,4.054,3.097,0.165,-1.66
847.0,-10.871,-6.692,4.054,3.097,0.165,-1.66
851.0,-11.642,-7.187,4.656,3.507,0.175,-1.847
855.0,-11.642,-7.187,4.656,3.507,0.175,-1.847
859.0,-12.074,-7.504,4.875,3.921,0.119,-2.0
863.0,-12.074,-7.504,4.875,3.921,0.119,-2.0
867.0,-12.074,-7.504,4.875,3.921,0.119,-2.0
871.0,-12.253,-7.48,5.037,4.3,0.0,-2.11
875.0,-12.253,-7.48,5.037,4.3,0.0,-2.11
879.0,-12.317,-7.142,5.01,4.588,-0.163,-2.163
883.0,-12.317,-7.142,5.01,4.588,-0.163,-2.163
887.0,-12.317,-7.142,5.01,4.588,-0.163,-2.163
891.0,-12.098,-6.797,5.006,4.761,-0.333,-2.153
894.0,-12.098,-6.797,5.006,4.761,-0.333,-2.153
898.0,-11.653,-6.531,5.142,4.825,-0.497,-2.103
902.0,-11.653,-6.531,5.142,4.825,-0.497,-2.103
906.0,-11.653,-6.531,5.142,4.825,-0.497,-2.103
910.0,-11.412,-6.351,5.43,4.804,-0.655,-2.047
914.0,-11.412,-6.351,5.43,4.804,-0.655,-2.047
918.0,-11.431,-6.289,5.865,4.732,-0.804,-2.003
922.0,-11.431,-6.289,5.865,4.732,-0.804,-2.003
926.0,-11.431,-6.289,5.865,4.732,-0.804,-2.003
930.0,-11.447,-6.209,6.272,4.654,-0.947,-1.974
934.0,-11.447,-6.209,6.272,4.654,-0.947,-1.974
938.0,-11.214,-5.87,6.534,4.592,-1.101,-1.963
942.0,-11.214,-5.87,6.534,4.592,-1.101,-1.963
946.0,-11.214,-5.87,6.534,4.592,-1.101,-1.963
950.0,-10.889,-5.367,6.736,4.549,-1.276,-1.973
954.0,-10.889,-5.367,6.736,4.549,-1.276,-1.973
958.0,-10.481,-4.909,6.547,4.529,-1.452,-2.0
962.0,-10.481,-4.909,6.547,4.529,-1.452,-2.0
966.0,-10.481,-4.909,6.409,4.529,-1.452,-2.0
970.0,-9.978,-4.722,6.409,4.537,-1.585,-2.027
974.0,-9.978,-4.722,6.409,4.537,-1.585,-2.027
978.0,-9.605,-4.678,6.419,4.558,-1.677,-2.045
982.0,-9.605,-4.678,6.419,4.558,-1.677,-2.045
986.0,-9.605,-4.678,6.419,4.558,-1.677,-2.045
990.0,-9.315,-4.655,6.304,4.596,-1.745,-2.048
994.0,-9.315,-4.655,6.304,4.596,-1.745,-2.048
998.0,-9.117,-4.976,6.339,4.671,-1.804,-2.021
1002.0,-9.117,-4.976,6.339,4.671,-1.804,-2.021
1006.0,-9.117,-4.976,6.339,4.671,-1.804,-2.021
1010.0,-8.951,-5.201,6.297,4.798,-1.869,-1.984
1014.0,-8.951,-5.201,6.297,4.798,-1.869,-1.984
1018.0,-8.778,-5.297,6.113,4.948,-1.952,-1.948
1022.0,-8.778,-5.297,6.113,4.948,-1.952,-1.948
1026.0,-8.778,-5.297,5.573,4.948,-1.952,-1.948
1030.0,-8.527,-5.175,5.573,4.995,-2.05,-1.917
1034.0,-8.527,-5.175,5.573,4.995,-2.05,-1.917
1038.0,-7.99,-4.945,4.784,4.995,-2.137,-1.887
1042.0,-7.99,-4.945,4.784,4.995,-2.137,-1.887
1046.0,-7.99,-4.822,4.203,4.995,-2.137,-1.887
1050.0,-7.3,-4.822,4.203,4.995,-2.182,-1.86
1054.0,-7.3,-4.822,4.203,4.995,-2.182,-1.86
1058.0,-6.919,-4.789,4.161,4.995,-2.158,-1.83
1062.0,-6.919,-4.789,4.161,4.995,-2.158,-1.83
1066.0,-6.966,-4.914,4.399,4.995,-2.158,-1.83
1069.0,-6.966,-4.914,4.399,4.995,-2.086,-1.797
1073.0,-6.966,-4.914,4.399,4.995,-2.086,-1.797
1077.0,-7.138,-5.089,4.572,4.995,-2.009,-1.77
1081.0,-7.138,-5.089,4.572,4.995,-2.009,-1.77
1085.0,-6.936,-5.161,4.724,4.995,-2.009,-1.759
1089.0,-6.936,-5.161,4.724,4.995,-1.952,-1.759
1093.0,-6.936,-5.161,4.724,4.995,-1.952,-1.759
1097.0,-6.998,-5.109,5.193,4.995,-1.912,-1.758
1101.0,-6.998,-5.109,5.193,4.995,-1.912,-1.758
1105.0,-7.624,-4.719,5.424,4.995,-1.884,-1.744
1109.0,-7.624,-4.719,5.424,4.995,-1.884,-1.744
1113.0,-7.624,-4.719,5.424,4.995,-1.884,-1.744
1117.0,-7.917,-4.05,5.244,4.995,-1.875,-1.706
1121.0,-7.917,-4.05,5.244,4.995,-1.875,-1.706
1125.0,-7.655,-3.291,5.051,4.995,-1.902,-1.666
1129.0,-7.655,-3.291,5.051,4.995,-1.902,-1.666
1133.0,-7.655,-3.291,5.051,4.995,-1.902,-1.666
1137.0,-7.395,-2.472,4.765,4.993,-1.942,-1.642
1141.0,-7.395,-2.472,4.765,4.993,-1.942,-1.642
1145.0,-7.299,-1.639,4.316,4.869,-1.97,-1.623
1149.0,-7.299,-1.639,4.316,4.869,-1.97,-1.623
1153.0,-7.299,-1.639,4.316,4.869,-1.97,-1.623
1157.0,-6.948,-0.948,3.969,4.496,-1.98,-1.591
1161.0,-6.948,-0.948,3.969,4.496,-1.98,-1.591
1165.0,-6.48,-0.537,3.729,4.054,-1.994,-1.558
1169.0,-6.48,-0.537,3.729,4.054,-1.994,-1.558
1173.0,-6.48,-0.537,3.729,4.054,-1.994,-1.558
1177.0,-5.984,-0.263,3.559,3.601,-2.02,-1.544
1181.0,-5.984,-0.263,3.559,3.601,-2.02,-1.544
1185.0,-5.526,-0.009,3.528,3.181,-2.049,-1.534
1189.0,-5.526,-0.009,3.528,3.181,-2.049,-1.534
1193.0,-5.526,-0.009,3.528,3.181,-2.049,-1.534
1197.0,-5.136,0.137,3.51,2.804,-2.05,-1.498
1201.0,-5.136,0.137,3.51,2.804,-2.05,-1.498
1205.0,-4.773,0.097,3.501,2.466,-1.994,-1.414
1209.0,-4.773,0.097,3.501,2.466,-1.994,-1.414
1213.0,-4.773,0.097,3.501,2.466,-1.994,-1.414
1217.0,-4.258,-0.075,3.299,2.166,-1.883,-1.325
1221.0,-4.258,-0.075,3.299,2.166,-1.883,-1.325
1225.0,-3.747,0.079,3.238,1.905,-1.722,-1.267
1229.0,-3.747,0.079,3.238,1.905,-1.722,-1.267
1233.0,-3.747,0.079,3.238,1.905,-1.722,-1.267
1237.0,-3.782,0.543,3.146,1.666,-1.521,-1.206
1240.0,-3.782,0.543,3.146,1.666,-1.521,-1.206
1244.0,-3.925,1.128,2.987,1.436,-1.299,-1.121
1248.0,-3.925,1.128,2.987,1.436,-1.299,-1.121
1252.0,-3.925,1.128,2.987,1.436,-1.299,-1.121
1256.0,-4.098,1.639,2.938,1.222,-1.094,-1.027
1260.0,-4.098,1.639,2.938,1.222,-1.094,-1.027
1264.0,-4.274,2.05,2.962,1.026,-0.92,-0.923
1268.0,-4.274,2.05,2.962,1.026,-0.92,-0.923
1272.0,-4.274,2.05,2.962,1.026,-0.92,-0.923
1276.0,-4.45,2.402,3.227,0.836,-0.752,-0.789
1279.0,-4.45,2.402,3.227,0.836,-0.752,-0.789
1283.0,-4.682,2.794,3.715,0.649,-0.585,-0.624
1287.0,-4.682,2.794,3.715,0.649,-0.585,-0.624
1291.0,-4.682,2.794,3.715,0.649,-0.585,-0.624
1295.0,-4.852,3.115,4.329,0.477,-0.441,-0.456
1299.0,-4.852,3.115,4.329,0.477,-0.441,-0.456
1303.0,-4.999,3.378,4.995,0.477,-0.343,-0.318
1307.0,-4.999,3.378,4.995,0.331,-0.343,-0.318
1311.0,-4.999,3.378,4.995,0.331,-0.343,-0.318
1315.0,-5.015,3.695,5.528,0.209,-0.283,-0.201
1319.0,-5.015,3.695,5.528,0.209,-0.283,-0.201
1322.0,-4.871,3.959,6.13,0.209,-0.283,-0.084
1326.0,-4.871,3.959,6.13,0.111,-0.232,-0.084
1330.0,-4.871,3.959,6.13,0.111,-0.232,-0.084
1334.0,-5.009,4.081,7.003,0.032,-0.167,0.031
1338.0,-5.009,4.081,7.003,0.032,-0.167,0.031
1342.0,-5.305,4.184,7.967,0.032,-0.167,0.031
1346.0,-5.305,4.184,7.967,-0.05,-0.096,0.141
1350.0,-5.305,4.184,7.967,-0.05,-0.096,0.141
1353.0,-5.541,4.388,8.736,-0.137,-0.039,0.22
1357.0,-5.541,4.388,8.736,-0.137,-0.039,0.22
1361.0,-5.541,4.388,9.106,-0.137,-0.039,0.22
1365.0,-5.407,4.602,9.106,-0.224,-0.002,0.262
1369.0,-5.407,4.602,9.106,-0.224,-0.002,0.262
1373.0,-4.98,4.814,9.639,-0.342,0.066,0.295
1377.0,-4.98,4.814,9.639,-0.342,0.066,0.295
1381.0,-4.98,4.814,9.639,-0.342,0.066,0.295
1384.0,-5.216,4.831,10.142,-0.502,0.188,0.348
1388.0,-5.216,4.831,10.142,-0.502,0.188,0.348
1392.0,-5.769,4.64,10.466,-0.675,0.302,0.375
1396.0,-5.769,4.64,10.466,-0.675,0.302,0.375
1400.0,-5.769,4.64,10.466,-0.675,0.302,0.375
1404.0,-6.102,4.531,10.657,-0.83,0.352,0.338
1408.0,-6.102,4.531,10.657,-0.83,0.352,0.338
1412.0,-6.129,4.351,10.522,-0.947,0.338,0.282
1416.0,-6.129,4.351,10.522,-0.947,0.338,0.282
1420.0,-6.129,4.351,10.522,-0.947,0.338,0.282
1423.0,-5.898,3.837,10.571,-1.015,0.319,0.258
1427.0,-5.898,3.837,10.571,-1.015,0.319,0.258
1431.0,-6.121,3.017,11.133,-1.03,0.315,0.258
1435.0,-6.121,3.017,11.133,-1.03,0.315,0.258
1439.0,-6.121,3.017,11.133,-1.03,0.315,0.258
1443.0,-6.443,2.734,11.483,-0.953,0.268,0.244
1447.0,-6.443,2.734,11.483,-0.953,0.268,0.244
1451.0,-6.162,2.731,11.72,-0.953,0.145,0.235
1455.0,-6.162,2.731,11.72,-0.778,0.145,0.235
1459.0,-6.162,2.731,11.72,-0.778,0.145,0.235
1463.0,-5.59,3.239,11.863,-0.543,-0.012,0.281
1467.0,-5.59,3.239,11.863,-0.543,-0.012,0.281
1471.0,-4.762,4.029,11.685,-0.543,-0.012,0.458
1475.0,-4.762,4.029,11.685,-0.281,-0.165,0.458
1479.0,-4.762,4.029,11.685,-0.281,-0.165,0.458
1483.0,-3.826,4.569,11.761,-0.041,-0.258,0.77
1487.0,-3.826,4.569,11.761,-0.041,-0.258,0.77
1491.0,-3.589,4.78,12.227,0.117,-0.264,1.136
1494.0,-3.589,4.78,12.227,0.117,-0.264,1.136
1498.0,-3.589,4.78,12.227,0.117,-0.264,1.136
1502.0,-3.869,5.643,12.693,0.205,-0.263,1.435
1506.0,-3.869,5.643,12.693,0.205,-0.263,1.435
1510.0,-4.28,6.441,13.172,0.205,-0.263,1.643
1514.0,-4.28,6.441,13.172,0.237,-0.319,1.643
1518.0,-4.28,6.441,13.172,0.237,-0.319,1.643
1522.0,-5.26,7.094,13.611,0.182,-0.406,1.791
1526.0,-5.26,7.094,13.611,0.182,-0.406,1.791
1530.0,-6.188,8.015,13.62,0.182,-0.406,1.791
1533.0,-6.188,8.015,13.62,0.037,-0.523,1.913
1537.0,-6.188,8.015,13.62,0.037,-0.523,1.913
1541.0,-6.268,8.775,13.646,-0.132,-0.656,2.011
1545.0,-6.268,8.775,13.646,-0.132,-0.656,2.011
1549.0,-6.888,9.235,14.099,-0.132,-0.656,2.011
1553.0,-6.888,9.235,14.099,-0.3,-0.756,2.115
1557.0,-6.888,9.235,14.099,-0.3,-0.756,2.115
1561.0,-8.303,9.818,14.4,-0.434,-0.865,2.217
1565.0,-8.303,9.818,14.4,-0.434,-0.865,2.217
1569.0,-8.615,10.826,14.158,-0.434,-0.865,2.276
1573.0,-8.615,10.826,14.158,-0.462,-1.07,2.276
1577.0,-8.615,10.826,14.158,-0.462,-1.07,2.276
1581.0,-7.828,11.131,14.334,-0.426,-1.285,2.392
1586.0,-7.828,11.131,14.334,-0.426,-1.285,2.392
1590.0,-8.062,11.073,14.722,-0.377,-1.411,2.622
1594.0,-8.062,11.073,14.722,-0.377,-1.411,2.622
1598.0,-8.062,11.073,14.722,-0.377,-1.411,2.622
1602.0,-8.767,11.326,14.53,-0.261,-1.583,2.886
1606.0,-8.767,11.326,14.53,-0.261,-1.583,2.886
1610.0,-8.45,11.292,14.618,-0.117,-1.855,3.191
1614.0,-8.45,11.292,14.618,-0.117,-1.855,3.191
1618.0,-8.45,10.431,15.239,-0.117,-1.855,3.191
1622.0,-8.231,10.431,15.239,-0.025,-2.103,3.584
1626.0,-8.231,10.431,15.239,-0.025,-2.103,3.584
1630.0,-8.944,9.919,15.252,0.05,-2.324,3.972
1634.0,-8.944,9.919,15.252,0.05,-2.324,3.972
1638.0,-8.968,9.425,15.144,0.05,-2.324,4.328
1642.0,-8.968,9.425,15.144,0.097,-2.599,4.328
1646.0,-8.968,9.425,15.144,0.097,-2.599,4.328
1650.0,-8.884,8.984,14.993,0.069,-2.904,4.646
1654.0,-8.884,8.984,14.993,0.069,-2.904,4.646
1658.0,-9.023,8.831,14.301,0.069,-2.904,4.646
1662.0,-9.023,8.831,14.301,-0.001,-3.217,4.894
1666.0,-9.023,8.831,14.301,-0.001,-3.217,4.894
1670.0,-9.093,8.462,13.504,-0.097,-3.531,5.006
1674.0,-9.093,8.462,13.504,-0.097,-3.531,5.006
1678.0,-9.016,7.139,13.059,-0.097,-3.531,5.006
1682.0,-9.016,7.139,13.059,-0.258,-3.781,5.013
1686.0,-9.016,7.139,13.059,-0.258,-3.781,5.013
1690.0,-9.047,5.525,13.022,-0.436,-3.957,5.013
1694.0,-9.047,5.525,13.022,-0.436,-3.957,5.013
1698.0,-9.218,3.963,12.954,-0.436,-4.137,5.013
1702.0,-9.218,3.963,12.954,-0.534,-4.137,5.013
1706.0,-9.218,3.963,12.954,-0.534,-4.137,5.013
1710.0,-9.438,2.646,12.805,-0.547,-4.332,5.013
1714.0,-9.438,2.646,12.805,-0.547,-4.332,5.013
1718.0,-9.397,1.307,12.492,-0.513,-4.491,5.013
1722.0,-9.397,1.307,12.492,-0.513,-4.491,5.013
1726.0,-9.397,1.307,12.492,-0.513,-4.491,5.013
1730.0,-8.982,0.072,12.274,-0.438,-4.575,5.013
1734.0,-8.982,0.072,12.274,-0.438,-4.575,5.013
1738.0,-8.636,-0.616,12.185,-0.297,-4.606,5.013
1742.0,-8.636,-0.616,12.185,-0.297,-4.606,5.013
1746.0,-8.636,-0.616,12.185,-0.297,-4.606,5.013
1750.0,-8.539,-1.172,11.726,-0.106,-4.635,5.009
1754.0,-8.539,-1.172,11.726,-0.106,-4.635,5.009
1758.0,-8.03,-1.91,10.84,0.062,-4.661,4.946
1762.0,-8.03,-1.91,10.84,0.062,-4.661,4.946
1766.0,-8.03,-1.91,10.03,0.062,-4.661,4.946
1770.0,-7.084,-2.343,10.03,0.186,-4.655,4.814
1774.0,-7.084,-2.343,10.03,0.186,-4.655,4.814
1778.0,-6.164,-2.786,8.958,0.295,-4.608,4.666
1782.0,-6.164,-2.786,8.958,0.295,-4.608,4.666
1786.0,-6.164,-2.786,7.934,0.295,-4.608,4.666
1790.0,-5.215,-3.109,7.934,0.381,-4.515,4.513
1794.0,-5.215,-3.109,7.934,0.381,-4.515,4.513
1797.0,-4.361,-3.294,7.042,0.435,-4.383,4.373
1801.0,-4.361,-3.294,7.042,0.435,-4.383,4.373
1805.0,-4.361,-3.294,7.042,0.435,-4.383,4.373
1809.0,-3.592,-3.287,6.368,0.478,-4.227,4.252
1813.0,-3.592,-3.287,6.368,0.478,-4.227,4.252
1817.0,-2.91,-3.396,5.319,0.533,-4.052,4.153
1821.0,-2.91,-3.396,5.319,0.533,-4.052,4.153
1825.0,-2.91,-3.396,5.319,0.533,-4.052,4.153
1829.0,-2.177,-3.731,4.112,0.561,-3.822,4.047
1833.0,-2.177,-3.731,4.112,0.561,-3.822,4.047
1837.0,-1.426,-4.13,3.316,0.553,-3.519,3.909
1840.0,-1.426,-4.13,3.316,0.553,-3.519,3.909
1844.0,-1.426,-4.13,3.316,0.553,-3.519,3.909
1848.0,-0.67,-4.789,2.934,0.514,-3.174,3.746
1852.0,-0.67,-4.789,2.934,0.514,-3.174,3.746
1856.0,-0.268,-5.461,3.136,0.46,-2.83,3.56
1860.0,-0.268,-5.461,3.136,0.46,-2.83,3.56
1864.0,-0.268,-5.461,3.136,0.46,-2.83,3.56
1868.0,-0.01,-5.8,3.389,0.451,-2.519,3.383
1872.0,-0.01,-5.8,3.389,0.451,-2.519,3.383
1876.0,0.218,-5.914,3.303,0.532,-2.232,3.251
1879.0,0.218,-5.914,3.303,0.532,-2.232,3.251
1883.0,0.218,-5.914,3.303,0.532,-2.232,3.251
1887.0,0.219,-6.199,2.977,0.671,-1.947,3.157
1891.0,0.219,-6.199,2.977,0.671,-1.947,3.157
1895.0,0.257,-6.864,2.578,0.671,-1.947,3.157
1898.0,0.257,-6.864,2.578,0.815,-1.668,3.079
1902.0,0.257,-6.864,2.578,0.815,-1.668,3.079
1906.0,0.641,-7.723,2.234,0.961,-1.406,3.005
1910.0,0.641,-7.723,2.234,0.961,-1.406,3.005
1914.0,0.641,-7.723,2.234,0.961,-1.406,3.005
1918.0,1.087,-8.112,1.965,1.123,-1.151,2.926
1921.0,1.087,-8.112,1.965,1.123,-1.151,2.926
1925.0,1.249,-8.113,1.719,1.275,-0.896,2.872
1929.0,1.249,-8.113,1.719,1.275,-0.896,2.872
1933.0,1.249,-8.113,1.719,1.275,-0.896,2.872
1937.0,1.368,-7.978,1.517,1.376,-0.643,2.853
1940.0,1.368,-7.978,1.517,1.376,-0.643,2.853
1944.0,1.424,-7.71,1.312,1.376,-0.643,2.872
1948.0,1.424,-7.71,1.312,1.418,-0.402,2.872
1952.0,1.424,-7.71,1.312,1.418,-0.402,2.872
1956.0,1.44,-7.332,1.269,1.413,-0.191,2.928
1960.0,1.44,-7.332,1.269,1.413,-0.191,2.928
1963.0,1.44,-7.332,1.688,1.413,-0.191,2.928
1967.0,1.497,-7.19,1.688,1.369,-0.04,2.998
1971.0,1.497,-7.19,1.688,1.369,-0.04,2.998
1975.0,1.584,-7.614,2.189,1.288,0.013,3.035
1979.0,1.584,-7.614,2.189,1.288,0.013,3.035
1982.0,1.584,-7.614,2.189,1.288,0.013,3.035
1986.0,1.747,-8.163,2.364,1.193,-0.029,3.01
1990.0,1.747,-8.163,2.364,1.193,-0.029,3.01
1994.0,1.78,-8.463,2.251,1.193,-0.029,2.941
1998.0,1.78,-8.463,2.251,1.078,-0.112,2.941
2001.0,1.78,-8.463,2.251,1.078,-0.112,2.941
2005.0,1.736,-8.471,2.01,0.926,-0.194,2.852
2009.0,1.736,-8.471,2.01,0.926,-0.194,2.852
2013.0,1.736,-8.471,2.218,0.926,-0.194,2.852
2017.0,1.842,-8.265,2.218,0.693,-0.126,2.769
2020.0,1.842,-8.265,2.218,0.693,-0.126,2.769
2024.0,0.613,-7.789,1.359,0.465,-0.102,2.653
2028.0,0.613,-7.789,1.359,0.465,-0.102,2.653
2032.0,0.613,-7.789,1.359,0.465,-0.102,2.653
2036.0,0.92,-8.854,2.403,0.213,-0.434,2.471
2040.0,0.92,-8.854,2.403,0.213,-0.434,2.471
2043.0,0.747,-9.251,2.305,-0.089,-0.621,2.253
2047.0,0.747,-9.251,2.305,-0.089,-0.621,2.253
2051.0,0.747,-9.251,2.305,-0.089,-0.621,2.253
2055.0,0.647,-9.424,1.61,-0.375,-0.784,1.96
2059.0,0.647,-9.424,1.61,-0.375,-0.784,1.96
2063.0,1.085,-9.302,0.803,-0.375,-0.907,1.647
2067.0,1.085,-9.302,0.803,-0.638,-0.907,1.647
2071.0,1.085,-9.302,0.803,-0.638,-0.907,1.647
2075.0,2.504,-9.258,0.234,-0.873,-1.007,1.374
2079.0,2.504,-9.258,0.234,-0.873,-1.007,1.374
2082.0,4.417,-9.259,0.08,-0.873,-1.007,1.157
2086.0,4.417,-9.259,0.08,-1.071,-1.068,1.157
2090.0,4.417,-9.259,0.08,-1.071,-1.068,1.157
2094.0,6.529,-9.738,0.392,-1.185,-1.086,0.996
2098.0,6.529,-9.738,0.392,-1.185,-1.086,0.996
2102.0,8.334,-10.637,0.549,-1.185,-1.086,0.996
2106.0,8.334,-10.637,0.549,-1.123,-1.057,0.878
2110.0,8.334,-10.637,0.549,-1.123,-1.057,0.878
2114.0,9.079,-11.265,0.287,-0.884,-0.944,0.778
2118.0,9.079,-11.265,0.287,-0.884,-0.944,0.778
2122.0,8.925,-11.505,0.194,-0.884,-0.944,0.693
2126.0,8.925,-11.505,0.194,-0.557,-0.751,0.693
2130.0,8.925,-11.505,0.194,-0.557,-0.751,0.693
2134.0,8.451,-11.46,0.344,-0.217,-0.551,0.615
2138.0,8.451,-11.46,0.344,-0.217,-0.551,0.615
2142.0,7.971,-11.095,0.52,-0.217,-0.38,0.535
2146.0,7.971,-11.095,0.52,0.092,-0.38,0.535
2150.0,7.971,-11.095,0.52,0.092,-0.38,0.535
2154.0,7.393,-10.39,0.575,0.335,-0.24,0.457
2158.0,7.393,-10.39,0.575,0.335,-0.24,0.457
2162.0,6.979,-9.689,0.698,0.335,-0.24,0.404
2165.0,6.979,-9.689,0.698,0.498,-0.124,0.404
2169.0,6.979,-9.689,0.698,0.498,-0.124,0.404
2173.0,7.393,-9.269,1.305,0.607,-0.05,0.382
2177.0,7.393,-9.269,1.305,0.607,-0.05,0.382
2181.0,7.393,-9.269,2.154,0.607,-0.05,0.382
2184.0,8.346,-8.975,2.154,0.709,-0.045,0.355
2188.0,8.346,-8.975,2.154,0.709,-0.045,0.355
2192.0,8.81,-8.431,2.438,0.815,-0.097,0.292
2196.0,8.81,-8.431,2.438,0.815,-0.097,0.292
2200.0,8.81,-8.431,2.438,0.815,-0.097,0.292
2204.0,8.659,-7.667,2.195,0.877,-0.132,0.223
2207.0,8.659,-7.667,2.195,0.877,-0.132,0.223
2211.0,8.701,-7.139,2.076,0.867,-0.112,0.206
2215.0,8.701,-7.139,2.076,0.867,-0.112,0.206
2219.0,8.701,-7.139,2.076,0.867,-0.112,0.206
2223.0,9.103,-6.909,2.505,0.815,-0.068,0.239
2226.0,9.103,-6.909,2.505,0.815,-0.068,0.239
2230.0,9.252,-6.723,2.936,0.815,-0.068,0.239
2234.0,9.252,-6.723,2.936,0.759,-0.032,0.275
2238.0,9.252,-6.723,2.936,0.759,-0.032,0.275
2242.0,8.98,-6.5,3.185,0.705,0.014,0.299
2245.0,8.98,-6.5,3.185,0.705,0.014,0.299
2249.0,8.98,-6.5,3.185,0.705,0.014,0.299
2253.0,8.623,-6.357,3.464,0.644,0.056,0.32
2257.0,8.623,-6.357,3.464,0.644,0.056,0.32
2260.0,8.333,-6.195,3.797,0.644,0.073,0.337
2264.0,8.333,-6.195,3.797,0.573,0.073,0.337
2268.0,8.333,-6.195,3.797,0.573,0.073,0.337
2272.0,8.094,-6.096,4.122,0.492,0.076,0.345
2275.0,8.094,-6.096,4.122,0.492,0.076,0.345
2279.0,8.094,-6.096,4.122,0.492,0.076,0.345
2283.0,7.878,-6.047,4.433,0.405,0.077,0.338
2286.0,7.878,-6.047,4.433,0.405,0.077,0.338
2290.0,7.641,-5.989,4.556,0.318,0.074,0.314
2294.0,7.641,-5.989,4.556,0.318,0.074,0.314
2298.0,7.641,-5.989,4.556,0.318,0.074,0.314
2301.0,7.289,-5.898,4.512,0.23,0.076,0.269
2305.0,7.289,-5.898,4.512,0.23,0.076,0.269
2309.0,7.289,-5.898,4.467,0.23,0.076,0.269
2313.0,6.842,-5.777,4.467,0.134,0.089,0.212
2316.0,6.842,-5.777,4.467,0.134,0.089,0.212
2320.0,6.513,-5.718,4.552,0.029,0.103,0.158
2324.0,6.513,-5.718,4.552,0.029,0.103,0.158
2328.0,6.513,-5.718,4.552,0.029,0.103,0.158
2331.0,6.337,-5.751,4.666,-0.07,0.107,0.107
2335.0,6.337,-5.751,4.666,-0.07,0.107,0.107
2339.0,6.218,-5.819,4.676,-0.07,0.107,0.107
2343.0,6.218,-5.819,4.676,-0.152,0.113,0.063
2347.0,6.218,-5.819,4.676,-0.152,0.113,0.063
2350.0,6.153,-5.893,4.693,-0.212,0.135,0.031
2354.0,6.153,-5.893,4.693,-0.212,0.135,0.031
2358.0,6.153,-5.893,4.693,-0.212,0.135,0.031
2362.0,6.218,-5.989,4.875,-0.25,0.16,0.007
2366.0,6.218,-5.989,4.875,-0.25,0.16,0.007
2369.0,6.343,-6.034,4.995,-0.259,0.169,-0.017
2373.0,6.343,-6.034,4.995,-0.259,0.169,-0.017
2377.0,6.343,-6.034,4.995,-0.259,0.169,-0.017
2381.0,6.399,-5.974,4.961,-0.245,0.174,-0.041
2385.0,6.399,-5.974,4.961,-0.245,0.174,-0.041
2389.0,6.397,-5.883,4.997,-0.219,0.188,-0.054
2393.0,6.397,-5.883,4.997,-0.219,0.188,-0.054
2397.0,6.397,-5.883,4.997,-0.219,0.188,-0.054
2401.0,6.358,-5.796,5.133,-0.182,0.204,-0.049
2405.0,6.358,-5.796,5.133,-0.182,0.204,-0.049
2409.0,6.345,-5.742,5.326,-0.13,0.216,-0.027
2412.0,6.345,-5.742,5.326,-0.13,0.216,-0.027
2416.0,6.345,-5.742,5.326,-0.13,0.216,-0.027
2420.0,6.402,-5.737,5.564,-0.058,0.227,0.006
2424.0,6.402,-5.737,5.564,-0.058,0.227,0.006
2428.0,6.565,-5.755,5.746,-0.058,0.227,0.043
2432.0,6.565,-5.755,5.746,0.031,0.231,0.043
2435.0,6.565,-5.755,5.746,0.031,0.231,0.043
2439.0,6.681,-5.723,5.693,0.124,0.231,0.075
2443.0,6.681,-5.723,5.693,0.124,0.231,0.075
2447.0,6.681,-5.723,5.693,0.124,0.231,0.075
2450.0,6.683,-5.656,5.688,0.214,0.24,0.102
2454.0,6.683,-5.656,5.688,0.214,0.24,0.102
2458.0,6.732,-5.531,5.858,0.214,0.244,0.136
2462.0,6.732,-5.531,5.858,0.293,0.244,0.136
2465.0,6.732,-5.531,5.858,0.293,0.244,0.136
2469.0,6.874,-5.453,6.063,0.361,0.229,0.18
2473.0,6.874,-5.453,6.063,0.361,0.229,0.18
2477.0,6.874,-5.453,6.063,0.361,0.229,0.18
2480.0,6.984,-5.394,6.129,0.419,0.197,0.226
2484.0,6.984,-5.394,6.129,0.419,0.197,0.226
2488.0,6.873,-5.308,5.977,0.456,0.168,0.261
2491.0,6.873,-5.308,5.977,0.456,0.168,0.261
2495.0,6.873,-5.308,5.977,0.456,0.168,0.261
2499.0,6.526,-5.202,5.747,0.459,0.153,0.293
2503.0,6.526,-5.202,5.747,0.459,0.153,0.293
2506.0,6.526,-5.202,5.665,0.459,0.153,0.293
2510.0,6.163,-5.203,5.665,0.427,0.153,0.334
2514.0,6.163,-5.203,5.665,0.427,0.153,0.334
2518.0,5.939,-5.286,5.932,0.373,0.165,0.382
2521.0,5.939,-5.286,5.932,0.373,0.165,0.382
2525.0,5.939,-5.286,5.932,0.373,0.165,0.382
2529.0,5.954,-5.432,6.302,0.321,0.163,0.424
2533.0,5.954,-5.432,6.302,0.321,0.163,0.424
2536.0,5.897,-5.521,6.285,0.321,0.163,0.424
2540.0,5.897,-5.521,6.285,0.28,0.148,0.445
2544.0,5.897,-5.521,6.285,0.28,0.148,0.445
2547.0,5.796,-5.535,6.244,0.231,0.166,0.462
2551.0,5.796,-5.535,6.244,0.231,0.166,0.462
2555.0,5.796,-5.535,6.244,0.231,0.166,0.462
2559.0,6.303,-5.774,7.092,0.187,0.194,0.477
2562.0,6.303,-5.774,7.092,0.187,0.194,0.477
2566.0,7.131,-5.946,7.268,0.187,0.194,0.477
2570.0,7.131,-5.946,7.268,0.186,0.147,0.455
2574.0,7.131,-5.946,7.268,0.186,0.147,0.455
2577.0,7.157,-5.645,6.268,0.202,0.105,0.385
2581.0,7.157,-5.645,6.268,0.202,0.105,0.385
2585.0,7.157,-5.645,6.268,0.202,0.105,0.385
2588.0,6.628,-5.322,5.78,0.171,0.153,0.337
2592.0,6.628,-5.322,5.78,0.171,0.153,0.337
2596.0,6.71,-5.503,6.101,0.171,0.21,0.352
2600.0,6.71,-5.503,6.101,0.105,0.21,0.352
2603.0,6.71,-5.503,6.101,0.105,0.21,0.352
2607.0,6.803,-5.678,6.3,0.063,0.213,0.379
2611.0,6.803,-5.678,6.3,0.063,0.213,0.379
2615.0,6.803,-5.678,6.3,0.063,0.213,0.379
2618.0,6.236,-5.679,6.025,0.045,0.19,0.382
2622.0,6.236,-5.679,6.025,0.045,0.19,0.382
2626.0,5.383,-5.764,5.737,0.013,0.19,0.389
2630.0,5.383,-5.764,5.737,0.013,0.19,0.389
2633.0,5.383,-5.764,5.737,0.013,0.19,0.389
2637.0,4.864,-6.017,6.013,-0.029,0.207,0.429
2641.0,4.864,-6.017,6.013,-0.029,0.207,0.429
2645.0,4.864,-6.017,6.753,-0.029,0.207,0.429
2648.0,5.274,-6.376,6.753,-0.032,0.182,0.457
2652.0,5.274,-6.376,6.753,-0.032,0.182,0.457
2656.0,6.127,-6.36,6.891,0.035,0.092,0.41
2660.0,6.127,-6.36,6.891,0.035,0.092,0.41
2664.0,6.127,-6.36,6.891,0.035,0.092,0.41
2667.0,6.13,-5.877,6.135,0.118,0.005,0.305
2671.0,6.13,-5.877,6.135,0.118,0.005,0.305
2675.0,5.567,-5.489,5.529,0.118,0.005,0.234
2679.0,5.567,-5.489,5.529,0.136,0.002,0.234
2682.0,5.567,-5.489,5.529,0.136,0.002,0.234
2686.0,5.518,-5.477,5.468,0.104,0.05,0.233
2690.0,5.518,-5.477,5.468,0.104,0.05,0.233
2693.0,5.518,-5.477,5.468,0.104,0.05,0.233
2697.0,5.547,-5.41,5.432,0.072,0.084,0.247
2701.0,5.547,-5.41,5.432,0.072,0.084,0.247
2705.0,5.318,-5.389,5.283,0.072,0.114,0.255
2708.0,5.318,-5.389,5.283,0.046,0.114,0.255
2712.0,5.318,-5.389,5.283,0.046,0.114,0.255
2716.0,5.143,-5.547,5.392,0.023,0.159,0.279
2720.0,5.143,-5.547,5.392,0.023,0.159,0.279
2723.0,5.143,-5.547,5.392,0.023,0.159,0.279
2727.0,5.271,-5.813,5.648,0.026,0.178,0.319
2731.0,5.271,-5.813,5.648,0.026,0.178,0.319
2734.0,5.608,-5.99,5.803,0.064,0.165,0.348
2738.0,5.608,-5.99,5.803,0.064,0.165,0.348
2742.0,5.608,-5.99,5.803,0.064,0.165,0.348
2746.0,5.92,-6.022,5.865,0.125,0.146,0.344
2749.0,5.92,-6.022,5.865,0.125,0.146,0.344
2753.0,5.92,-6.022,5.718,0.125,0.146,0.344
2757.0,5.893,-5.883,5.718,0.182,0.125,0.322
2761.0,5.893,-5.883,5.718,0.182,0.125,0.322
2764.0,5.287,-5.6,5.451,0.209,0.106,0.302
2768.0,5.287,-5.6,5.451,0.209,0.106,0.302
2772.0,5.287,-5.6,5.451,0.209,0.106,0.302
2776.0,4.526,-5.4,5.287,0.195,0.096,0.301
2779.0,4.526,-5.4,5.287,0.195,0.096,0.301
2783.0,3.966,-5.353,5.386,0.195,0.096,0.301
2787.0,3.966,-5.353,5.386,0.151,0.075,0.313
2790.0,3.966,-5.353,5.386,0.151,0.075,0.313
2794.0,3.591,-5.389,5.424,0.101,0.033,0.323
2798.0,3.591,-5.389,5.424,0.101,0.033,0.323
2802.0,3.591,-5.389,5.424,0.101,0.033,0.323
2805.0,3.31,-5.41,5.419,0.052,-0.023,0.319
2809.0,3.31,-5.41,5.419,0.052,-0.023,0.319
2813.0,3.215,-5.4,5.269,0.052,-0.023,0.298
2817.0,3.215,-5.4,5.269,0.007,-0.08,0.298
2821.0,3.215,-5.4,5.269,0.007,-0.08,0.298
2825.0,3.278,-5.397,5.287,-0.03,-0.122,0.265
2828.0,3.278,-5.397,5.287,-0.03,-0.122,0.265
2832.0,3.278,-5.554,5.475,-0.03,-0.122,0.265
2836.0,3.684,-5.554,5.475,-0.046,-0.158,0.225
2840.0,3.684,-5.554,5.475,-0.046,-0.158,0.225
2844.0,4.16,-5.584,5.558,-0.028,-0.201,0.173
2848.0,4.16,-5.584,5.558,-0.028,-0.201,0.173
2852.0,4.16,-5.584,5.523,-0.028,-0.201,0.173
2856.0,4.401,-5.525,5.523,0.013,-0.24,0.117
2860.0,4.401,-5.525,5.523,0.013,-0.24,0.117
2863.0,4.388,-5.31,5.109,0.06,-0.274,0.067
2867.0,4.388,-5.31,5.109,0.06,-0.274,0.067
2871.0,4.388,-5.31,5.109,0.06,-0.274,0.067
2875.0,4.067,-5.003,4.639,0.089,-0.303,0.05
2879.0,4.067,-5.003,4.639,0.089,-0.303,0.05
2883.0,4.138,-4.936,4.342,0.08,-0.302,0.08
2886.0,4.138,-4.936,4.342,0.08,-0.302,0.08
2890.0,4.138,-4.936,4.342,0.08,-0.302,0.08
2894.0,4.708,-5.04,4.548,0.068,-0.269,0.137
2898.0,4.708,-5.04,4.548,0.068,-0.269,0.137
2902.0,5.575,-5.091,4.603,0.068,-0.269,0.137
2905.0,5.575,-5.091,4.603,0.086,-0.248,0.194
2909.0,5.575,-5.091,4.603,0.086,-0.248,0.194
2913.0,6.249,-4.994,4.536,0.122,-0.211,0.243
2917.0,6.249,-4.994,4.536,0.122,-0.211,0.243
2921.0,6.249,-4.994,4.536,0.122,-0.211,0.243
2925.0,6.751,-4.927,4.472,0.154,-0.141,0.305
2928.0,6.751,-4.927,4.472,0.154,-0.141,0.305
2932.0,6.968,-4.895,4.381,0.183,-0.049,0.389
2936.0,6.968,-4.895,4.381,0.183,-0.049,0.389
2940.0,6.968,-4.895,4.381,0.183,-0.049,0.389
2944.0,6.584,-4.822,4.102,0.207,0.057,0.487
2947.0,6.584,-4.822,4.102,0.207,0.057,0.487
2951.0,5.755,-4.748,4.102,0.207,0.057,0.487
2955.0,5.755,-4.748,4.102,0.212,0.189,0.602
2959.0,5.755,-4.748,4.102,0.212,0.189,0.602
2962.0,5.075,-4.807,4.245,0.217,0.304,0.723
2966.0,5.075,-4.807,4.245,0.217,0.304,0.723
2970.0,5.075,-4.807,4.245,0.217,0.304,0.723
2973.0,4.456,-4.749,4.002,0.231,0.375,0.832
2977.0,4.456,-4.749,4.002,0.231,0.375,0.832
2981.0,3.797,-4.557,3.479,0.231,0.454,0.941
2985.0,3.797,-4.557,3.479,0.235,0.454,0.941
2988.0,3.797,-4.557,3.479,0.235,0.454,0.941
2992.0,3.274,-4.443,3.224,0.223,0.576,1.072
2996.0,3.274,-4.443,3.224,0.223,0.576,1.072
3000.0,3.274,-4.443,3.224,0.223,0.576,1.072
