deltaTime,Acc_X,Acc_Y,Acc_Z,Gyro_X,Gyro_Y,Gyro_Z
0.0,-10.635,-2.186,0.832,-0.205,-0.425,0.041
3.0,-10.635,-2.186,0.832,-0.205,-0.425,0.041
6.0,-10.296,-1.969,0.626,-0.146,-0.379,-0.023
9.0,-10.296,-1.969,0.626,-0.146,-0.379,-0.023
12.0,-10.296,-1.969,0.626,-0.146,-0.379,-0.023
15.0,-10.197,-1.688,0.601,-0.096,-0.319,-0.089
18.0,-10.197,-1.688,0.601,-0.096,-0.319,-0.089
21.0,-10.197,-1.688,0.601,-0.096,-0.319,-0.089
24.0,-10.442,-1.326,0.605,-0.096,-0.319,-0.089
27.0,-10.442,-1.326,0.605,-0.084,-0.256,-0.151
31.0,-10.442,-1.326,0.605,-0.084,-0.256,-0.151
35.0,-10.792,-1.245,0.973,-0.123,-0.202,-0.192
39.0,-10.792,-1.245,0.973,-0.123,-0.202,-0.192
43.0,-10.792,-1.245,0.973,-0.123,-0.202,-0.192
47.0,-11.177,-1.356,1.325,-0.176,-0.192,-0.207
51.0,-11.177,-1.356,1.325,-0.176,-0.192,-0.207
55.0,-11.353,-1.492,1.293,-0.223,-0.228,-0.202
59.0,-11.353,-1.492,1.293,-0.223,-0.228,-0.202
63.0,-11.353,-1.492,1.293,-0.223,-0.228,-0.202
67.0,-11.267,-1.671,1.315,-0.28,-0.271,-0.18
71.0,-11.267,-1.671,1.315,-0.28,-0.271,-0.18
75.0,-11.194,-1.898,1.354,-0.33,-0.316,-0.157
79.0,-11.194,-1.898,1.354,-0.33,-0.316,-0.157
83.0,-11.194,-1.898,1.188,-0.33,-0.316,-0.157
87.0,-10.959,-1.942,1.188,-0.362,-0.354,-0.135
91.0,-10.959,-1.942,1.188,-0.362,-0.354,-0.135
95.0,-10.716,-1.953,1.34,-0.39,-0.359,-0.116
99.0,-10.716,-1.953,1.34,-0.39,-0.359,-0.116
103.0,-10.716,-1.866,1.061,-0.39,-0.359,-0.116
107.0,-10.577,-1.866,1.061,-0.397,-0.359,-0.111
111.0,-10.577,-1.866,1.061,-0.397,-0.359,-0.111
115.0,-10.386,-1.618,0.922,-0.396,-0.335,-0.109
119.0,-10.386,-1.618,0.922,-0.396,-0.335,-0.109
124.0,-10.429,-1.439,1.332,-0.396,-0.286,-0.095
128.0,-10.429,-1.439,1.332,-0.396,-0.286,-0.095
132.0,-10.429,-1.439,1.332,-0.396,-0.286,-0.095
136.0,-10.753,-1.288,1.488,-0.392,-0.263,-0.074
140.0,-10.753,-1.288,1.488,-0.392,-0.263,-0.074
144.0,-11.0,-1.366,1.725,-0.409,-0.245,-0.038
148.0,-11.0,-1.366,1.725,-0.409,-0.245,-0.038
152.0,-11.0,-1.366,1.725,-0.409,-0.245,-0.038
156.0,-11.003,-1.647,1.922,-0.426,-0.22,0.01
160.0,-11.003,-1.647,1.922,-0.426,-0.22,0.01
164.0,-10.934,-1.991,2.167,-0.416,-0.186,0.051
168.0,-10.934,-1.991,2.167,-0.416,-0.186,0.051
172.0,-10.934,-2.373,2.667,-0.416,-0.186,0.051
176.0,-10.871,-2.373,2.667,-0.353,-0.128,0.084
180.0,-10.871,-2.373,2.667,-0.353,-0.128,0.084
184.0,-10.869,-2.579,2.845,-0.231,-0.058,0.113
188.0,-10.869,-2.579,2.845,-0.231,-0.058,0.113
192.0,-11.032,-2.931,3.132,-0.231,-0.058,0.113
196.0,-11.032,-2.931,3.132,-0.06,0.021,0.141
200.0,-11.032,-2.931,3.132,-0.06,0.021,0.141
204.0,-11.328,-3.104,3.009,0.194,0.074,0.166
208.0,-11.328,-3.104,3.009,0.194,0.074,0.166
212.0,-11.328,-3.104,2.899,0.194,0.074,0.166
215.0,-11.59,-2.931,2.899,0.488,0.1,0.181
219.0,-11.59,-2.931,2.899,0.488,0.1,0.181
223.0,-11.655,-2.807,2.512,0.768,0.109,0.193
227.0,-11.655,-2.807,2.512,0.768,0.109,0.193
231.0,-11.655,-2.807,2.512,0.768,0.109,0.193
235.0,-11.477,-2.468,1.963,1.006,0.127,0.222
238.0,-11.477,-2.468,1.963,1.006,0.127,0.222
242.0,-11.304,-2.316,1.855,1.169,0.198,0.278
246.0,-11.304,-2.316,1.855,1.169,0.198,0.278
250.0,-11.304,-2.316,1.855,1.169,0.198,0.278
254.0,-11.237,-2.447,1.799,1.308,0.269,0.349
257.0,-11.237,-2.447,1.799,1.308,0.269,0.349
261.0,-11.159,-2.383,1.923,1.308,0.269,0.349
265.0,-11.159,-2.383,1.923,1.42,0.356,0.42
269.0,-11.159,-2.383,1.923,1.42,0.356,0.42
273.0,-11.218,-2.393,1.947,1.477,0.455,0.472
277.0,-11.218,-2.393,1.947,1.477,0.455,0.472
280.0,-11.218,-2.393,1.947,1.477,0.455,0.472
284.0,-11.667,-2.552,1.446,1.485,0.477,0.517
288.0,-11.667,-2.552,1.446,1.485,0.477,0.517
292.0,-11.882,-2.441,1.095,1.47,0.316,0.562
296.0,-11.882,-2.441,1.095,1.47,0.316,0.562
299.0,-11.882,-2.441,1.095,1.47,0.316,0.562
303.0,-11.412,-2.353,1.06,1.408,0.066,0.578
307.0,-11.412,-2.353,1.06,1.408,0.066,0.578
311.0,-10.723,-2.593,1.035,1.408,0.066,0.538
315.0,-10.723,-2.593,1.035,1.337,-0.077,0.538
319.0,-10.723,-2.593,1.035,1.337,-0.077,0.538
323.0,-10.198,-2.699,0.73,1.297,-0.112,0.481
326.0,-10.198,-2.699,0.73,1.297,-0.112,0.481
330.0,-9.773,-2.892,0.379,1.297,-0.112,0.481
334.0,-9.773,-2.892,0.379,1.273,-0.092,0.434
338.0,-9.773,-2.892,0.379,1.273,-0.092,0.434
342.0,-9.693,-3.015,0.194,1.268,-0.034,0.408
346.0,-9.693,-3.015,0.194,1.268,-0.034,0.408
349.0,-9.693,-3.015,0.194,1.268,-0.034,0.408
353.0,-9.756,-3.178,0.319,1.272,0.036,0.383
357.0,-9.756,-3.178,0.319,1.272,0.036,0.383
361.0,-9.846,-3.477,0.537,1.292,0.089,0.337
364.0,-9.846,-3.477,0.537,1.292,0.089,0.337
368.0,-9.846,-3.477,0.537,1.292,0.089,0.337
372.0,-9.799,-3.851,0.797,1.339,0.118,0.26
376.0,-9.799,-3.851,0.797,1.339,0.118,0.26
379.0,-9.799,-3.851,1.195,1.339,0.118,0.26
383.0,-9.547,-4.312,1.195,1.427,0.123,0.149
387.0,-9.547,-4.312,1.195,1.427,0.123,0.149
391.0,-9.233,-4.774,1.488,1.555,0.112,-0.005
394.0,-9.233,-4.774,1.488,1.555,0.112,-0.005
398.0,-9.233,-4.774,1.488,1.555,0.112,-0.005
402.0,-9.066,-5.066,1.79,1.729,0.105,-0.18
406.0,-9.066,-5.066,1.79,1.729,0.105,-0.18
410.0,-9.176,-5.161,1.89,1.729,0.11,-0.343
413.0,-9.176,-5.161,1.89,1.947,0.11,-0.343
417.0,-9.176,-5.161,1.89,1.947,0.11,-0.343
421.0,-9.446,-5.064,1.953,2.18,0.125,-0.456
425.0,-9.446,-5.064,1.953,2.18,0.125,-0.456
429.0,-9.446,-5.064,2.14,2.18,0.125,-0.456
433.0,-9.587,-5.009,2.14,2.397,0.137,-0.501
436.0,-9.587,-5.009,2.14,2.397,0.137,-0.501
440.0,-9.643,-5.215,2.492,2.58,0.14,-0.496
444.0,-9.643,-5.215,2.492,2.58,0.14,-0.496
448.0,-9.643,-5.215,2.492,2.58,0.14,-0.496
452.0,-9.755,-5.722,3.02,2.743,0.127,-0.485
456.0,-9.755,-5.722,3.02,2.743,0.127,-0.485
459.0,-9.925,-6.188,3.52,2.915,0.084,-0.505
463.0,-9.925,-6.188,3.52,2.915,0.084,-0.505
467.0,-9.925,-6.188,3.52,2.915,0.084,-0.505
471.0,-10.043,-6.418,3.924,3.107,-0.005,-0.558
475.0,-10.043,-6.418,3.924,3.107,-0.005,-0.558
479.0,-10.184,-6.547,4.292,3.107,-0.13,-0.641
483.0,-10.184,-6.547,4.292,3.313,-0.13,-0.641
487.0,-10.184,-6.547,4.292,3.313,-0.13,-0.641
491.0,-10.378,-6.608,4.819,3.513,-0.265,-0.742
495.0,-10.378,-6.608,4.819,3.513,-0.265,-0.742
499.0,-10.584,-6.501,5.057,3.693,-0.408,-0.856
503.0,-10.584,-6.501,5.057,3.693,-0.408,-0.856
507.0,-10.584,-6.501,5.057,3.693,-0.408,-0.856
511.0,-10.71,-6.216,5.078,3.833,-0.547,-0.972
515.0,-10.71,-6.216,5.078,3.833,-0.547,-0.972
519.0,-10.776,-6.037,5.269,3.912,-0.662,-1.078
523.0,-10.776,-6.037,5.269,3.912,-0.662,-1.078
527.0,-10.776,-6.037,5.269,3.912,-0.662,-1.078
531.0,-10.941,-5.959,5.679,3.942,-0.762,-1.178
535.0,-10.941,-5.959,5.679,3.942,-0.762,-1.178
539.0,-11.167,-6.027,5.969,3.952,-0.875,-1.284
543.0,-11.167,-6.027,5.969,3.952,-0.875,-1.284
547.0,-11.167,-6.027,5.969,3.952,-0.875,-1.284
551.0,-11.24,-6.205,6.289,3.966,-1.007,-1.394
555.0,-11.24,-6.205,6.289,3.966,-1.007,-1.394
559.0,-11.138,-6.421,6.689,4.008,-1.151,-1.502
563.0,-11.138,-6.421,6.689,4.008,-1.151,-1.502
567.0,-11.138,-6.421,6.689,4.008,-1.151,-1.502
571.0,-11.073,-6.651,7.091,4.082,-1.307,-1.6
575.0,-11.073,-6.651,7.091,4.082,-1.307,-1.6
579.0,-11.123,-6.891,7.298,4.189,-1.48,-1.692
583.0,-11.123,-6.891,7.298,4.189,-1.48,-1.692
587.0,-11.123,-6.891,7.477,4.189,-1.48,-1.692
591.0,-11.132,-7.255,7.477,4.328,-1.659,-1.779
595.0,-11.132,-7.255,7.477,4.328,-1.659,-1.779
599.0,-11.082,-7.594,7.757,4.484,-1.844,-1.868
603.0,-11.082,-7.594,7.757,4.484,-1.844,-1.868
607.0,-11.082,-7.565,7.978,4.484,-1.844,-1.868
611.0,-10.906,-7.565,7.978,4.643,-2.02,-1.952
615.0,-10.906,-7.565,7.978,4.643,-2.02,-1.952
619.0,-10.622,-7.429,8.205,4.794,-2.181,-2.017
623.0,-10.622,-7.429,8.205,4.794,-2.181,-2.017
627.0,-10.348,-7.094,8.615,4.794,-2.181,-2.017
631.0,-10.348,-7.094,8.615,4.926,-2.327,-2.067
635.0,-10.348,-7.094,8.615,4.926,-2.327,-2.067
638.0,-10.053,-6.5,8.66,4.991,-2.467,-2.102
642.0,-10.053,-6.5,8.66,4.991,-2.467,-2.102
646.0,-9.443,-5.87,8.522,4.991,-2.467,-2.119
650.0,-9.443,-5.87,8.522,4.995,-2.601,-2.119
654.0,-9.443,-5.87,8.522,4.995,-2.601,-2.119
658.0,-8.778,-5.444,8.73,4.995,-2.727,-2.123
662.0,-8.778,-5.444,8.73,4.995,-2.727,-2.123
666.0,-8.575,-5.166,9.028,4.995,-2.727,-2.123
670.0,-8.575,-5.166,9.028,4.995,-2.853,-2.131
674.0,-8.575,-5.166,9.028,4.995,-2.853,-2.131
678.0,-8.426,-4.728,9.168,4.995,-2.979,-2.145
682.0,-8.426,-4.728,9.168,4.995,-2.979,-2.145
686.0,-8.426,-4.211,9.508,4.995,-2.979,-2.145
689.0,-8.021,-4.211,9.508,4.995,-3.097,-2.151
693.0,-8.021,-4.211,9.508,4.995,-3.097,-2.151
697.0,-7.604,-3.691,9.695,4.995,-3.209,-2.152
701.0,-7.604,-3.691,9.695,4.995,-3.209,-2.152
705.0,-7.604,-3.691,9.726,4.995,-3.209,-2.152
709.0,-7.228,-2.938,9.726,4.995,-3.318,-2.133
713.0,-7.228,-2.938,9.726,4.995,-3.318,-2.133
717.0,-6.93,-2.431,9.568,4.995,-3.433,-2.066
721.0,-6.93,-2.431,9.568,4.995,-3.433,-2.066
725.0,-6.93,-2.431,9.568,4.995,-3.433,-2.066
729.0,-6.606,-2.152,9.35,4.995,-3.541,-1.955
732.0,-6.606,-2.152,9.35,4.995,-3.541,-1.955
736.0,-6.189,-1.882,8.92,4.995,-3.63,-1.83
740.0,-6.189,-1.882,8.92,4.995,-3.63,-1.83
744.0,-6.189,-1.882,8.92,4.995,-3.63,-1.83
748.0,-5.608,-1.668,8.427,4.995,-3.694,-1.699
752.0,-5.608,-1.668,8.427,4.995,-3.694,-1.699
756.0,-4.951,-1.147,7.722,4.995,-3.721,-1.558
760.0,-4.951,-1.147,7.722,4.995,-3.721,-1.558
764.0,-4.951,-1.147,7.722,4.995,-3.721,-1.558
768.0,-4.195,-0.573,6.971,4.995,-3.696,-1.393
771.0,-4.195,-0.573,6.971,4.995,-3.696,-1.393
775.0,-3.503,-0.179,6.446,4.995,-3.626,-1.236
779.0,-3.503,-0.179,6.446,4.995,-3.626,-1.236
783.0,-3.503,-0.179,6.446,4.995,-3.626,-1.236
787.0,-3.178,0.078,6.176,4.995,-3.533,-1.128
791.0,-3.178,0.078,6.176,4.995,-3.533,-1.128
795.0,-3.081,0.458,5.846,4.995,-3.445,-1.071
799.0,-3.081,0.458,5.846,4.995,-3.445,-1.071
802.0,-3.081,0.458,5.846,4.995,-3.445,-1.071
806.0,-2.727,0.912,5.315,4.995,-3.349,-1.023
810.0,-2.727,0.912,5.315,4.995,-3.349,-1.023
814.0,-2.727,1.208,4.828,4.995,-3.349,-1.023
818.0,-2.25,1.208,4.828,4.995,-3.218,-0.975
821.0,-2.25,1.208,4.828,4.995,-3.218,-0.975
825.0,-2.032,1.292,4.306,4.933,-3.064,-0.948
829.0,-2.032,1.292,4.306,4.933,-3.064,-0.948
833.0,-2.032,1.292,4.306,4.933,-3.064,-0.948
837.0,-1.793,1.108,3.781,4.587,-2.899,-0.953
841.0,-1.793,1.108,3.781,4.587,-2.899,-0.953
844.0,-1.544,0.728,3.391,4.16,-2.712,-0.987
848.0,-1.544,0.728,3.391,4.16,-2.712,-0.987
852.0,-1.544,0.728,3.391,4.16,-2.712,-0.987
856.0,-1.44,0.148,3.096,3.773,-2.504,-1.034
860.0,-1.44,0.148,3.096,3.773,-2.504,-1.034
863.0,-1.445,-0.327,2.874,3.773,-2.504,-1.034
867.0,-1.445,-0.327,2.874,3.456,-2.284,-1.055
871.0,-1.445,-0.327,2.874,3.456,-2.284,-1.055
875.0,-1.561,-0.621,2.677,3.216,-2.06,-1.029
879.0,-1.561,-0.621,2.677,3.216,-2.06,-1.029
883.0,-1.781,-0.542,2.423,3.216,-2.06,-1.029
887.0,-1.781,-0.542,2.423,3.051,-1.85,-0.97
891.0,-1.781,-0.542,2.423,3.051,-1.85,-0.97
895.0,-2.148,0.135,2.14,2.947,-1.667,-0.889
899.0,-2.148,0.135,2.14,2.947,-1.667,-0.889
902.0,-2.148,0.135,2.14,2.947,-1.667,-0.889
906.0,-2.541,1.256,1.862,2.876,-1.518,-0.771
910.0,-2.541,1.256,1.862,2.876,-1.518,-0.771
914.0,-2.867,2.527,1.461,2.818,-1.391,-0.6
918.0,-2.867,2.527,1.461,2.818,-1.391,-0.6
921.0,-2.867,2.527,1.461,2.818,-1.391,-0.6
925.0,-3.068,3.849,1.124,2.756,-1.257,-0.371
929.0,-3.068,3.849,1.124,2.756,-1.257,-0.371
933.0,-3.264,5.161,0.905,2.756,-1.101,-0.095
937.0,-3.264,5.161,0.905,2.679,-1.101,-0.095
941.0,-3.264,5.161,0.905,2.679,-1.101,-0.095
944.0,-3.503,6.23,0.82,2.565,-0.924,0.213
948.0,-3.503,6.23,0.82,2.565,-0.924,0.213
952.0,-3.503,6.23,0.992,2.565,-0.924,0.213
956.0,-3.619,7.015,0.992,2.399,-0.731,0.51
959.0,-3.619,7.015,0.992,2.399,-0.731,0.51
963.0,-3.712,7.89,1.295,2.2,-0.528,0.751
967.0,-3.712,7.89,1.295,2.2,-0.528,0.751
971.0,-3.712,7.89,1.295,2.2,-0.528,0.751
974.0,-3.921,8.998,1.626,1.993,-0.312,0.959
978.0,-3.921,8.998,1.626,1.993,-0.312,0.959
982.0,-4.292,10.401,1.947,1.993,-0.312,0.959
986.0,-4.292,10.401,1.947,1.8,-0.071,1.174
989.0,-4.292,10.401,1.947,1.8,-0.071,1.174
993.0,-4.714,11.844,1.997,1.635,0.184,1.439
997.0,-4.714,11.844,1.997,1.635,0.184,1.439
1001.0,-4.714,11.844,1.997,1.635,0.184,1.439
1004.0,-5.024,13.101,2.118,1.487,0.441,1.763
1008.0,-5.024,13.101,2.118,1.487,0.441,1.763
1012.0,-5.407,14.2,2.215,1.37,0.682,2.103
1016.0,-5.407,14.2,2.215,1.37,0.682,2.103
1020.0,-5.407,14.2,2.215,1.37,0.682,2.103
1024.0,-5.642,15.299,2.244,1.277,0.913,2.455
1027.0,-5.642,15.299,2.244,1.277,0.913,2.455
1031.0,-5.649,16.186,2.547,1.277,0.913,2.455
1035.0,-5.649,16.186,2.547,1.187,1.149,2.872
1039.0,-5.649,16.186,2.547,1.187,1.149,2.872
1043.0,-5.689,16.662,3.232,1.08,1.37,3.385
1046.0,-5.689,16.662,3.232,1.08,1.37,3.385
1050.0,-5.689,16.662,3.232,1.08,1.37,3.385
1054.0,-5.919,17.006,4.294,0.96,1.543,3.961
1058.0,-5.919,17.006,4.294,0.96,1.543,3.961
1062.0,-6.314,17.014,5.52,0.836,1.629,4.559
1066.0,-6.314,17.014,5.52,0.836,1.629,4.559
1069.0,-6.314,17.014,5.52,0.836,1.629,4.559
1073.0,-6.633,16.615,6.43,0.705,1.627,4.969
1077.0,-6.633,16.615,6.43,0.705,1.627,4.969
1081.0,-6.796,15.871,7.091,0.705,1.627,5.013
1085.0,-6.796,15.871,7.091,0.569,1.569,5.013
1088.0,-6.796,15.871,7.091,0.569,1.569,5.013
1092.0,-6.967,14.807,7.476,0.436,1.471,5.013
1096.0,-6.967,14.807,7.476,0.436,1.471,5.013
1100.0,-6.967,14.807,7.598,0.436,1.471,5.013
1104.0,-7.009,13.509,7.598,0.304,1.35,5.013
1108.0,-7.009,13.509,7.598,0.304,1.35,5.013
1111.0,-6.712,12.198,7.388,0.179,1.227,5.013
1115.0,-6.712,12.198,7.388,0.179,1.227,5.013
1119.0,-6.712,12.198,7.388,0.179,1.227,5.013
1123.0,-6.301,11.014,7.046,0.074,1.117,5.013
1127.0,-6.301,11.014,7.046,0.074,1.117,5.013
1131.0,-5.439,9.767,6.87,-0.013,1.014,5.013
1134.0,-5.439,9.767,6.87,-0.013,1.014,5.013
1138.0,-5.439,9.767,6.87,-0.013,1.014,5.013
1142.0,-4.282,8.529,6.726,-0.063,0.902,5.013
1146.0,-4.282,8.529,6.726,-0.063,0.902,5.013
1150.0,-3.1,7.418,6.31,-0.063,0.902,5.013
1153.0,-3.1,7.418,6.31,-0.08,0.776,5.013
1157.0,-3.1,7.418,6.31,-0.08,0.776,5.013
1161.0,-2.065,6.355,5.83,-0.088,0.669,5.013
1165.0,-2.065,6.355,5.83,-0.088,0.669,5.013
1169.0,-2.065,6.355,5.83,-0.088,0.669,5.013
1173.0,-1.369,5.265,5.41,-0.091,0.604,5.013
1176.0,-1.369,5.265,5.41,-0.091,0.604,5.013
1180.0,-1.111,4.017,5.297,-0.108,0.572,5.013
1184.0,-1.111,4.017,5.297,-0.108,0.572,5.013
1188.0,-1.111,4.017,5.297,-0.108,0.572,5.013
1192.0,-0.957,2.417,5.358,-0.188,0.545,5.013
1195.0,-0.957,2.417,5.358,-0.188,0.545,5.013
1199.0,-0.705,0.735,5.507,-0.188,0.545,5.013
1203.0,-0.705,0.735,5.507,-0.33,0.523,5.013
1207.0,-0.705,0.735,5.507,-0.33,0.523,5.013
1211.0,-0.378,-1.219,5.621,-0.48,0.512,5.013
1215.0,-0.378,-1.219,5.621,-0.48,0.512,5.013
1219.0,-0.378,-3.543,6.112,-0.48,0.512,5.013
1222.0,-0.213,-3.543,6.112,-0.593,0.499,5.013
1226.0,-0.213,-3.543,6.112,-0.593,0.499,5.013
1230.0,-0.094,-5.498,6.343,-0.658,0.457,5.013
1234.0,-0.094,-5.498,6.343,-0.658,0.457,5.013
1238.0,-0.094,-5.498,5.849,-0.658,0.457,5.013
1242.0,-0.068,-7.106,5.849,-0.684,0.439,5.013
1246.0,-0.068,-7.106,5.849,-0.684,0.439,5.013
1250.0,-0.13,-8.556,5.258,-0.69,0.494,5.013
1254.0,-0.13,-8.556,5.258,-0.69,0.494,5.013
1258.0,-0.13,-8.556,5.258,-0.69,0.494,5.013
1261.0,-0.178,-9.759,5.055,-0.675,0.604,5.013
1265.0,-0.178,-9.759,5.055,-0.675,0.604,5.013
1269.0,-0.185,-10.945,5.24,-0.613,0.722,4.967
1273.0,-0.185,-10.945,5.24,-0.613,0.722,4.967
1277.0,-0.185,-10.945,5.24,-0.613,0.722,4.967
1281.0,-0.41,-12.078,5.865,-0.49,0.786,4.606
1285.0,-0.41,-12.078,5.865,-0.49,0.786,4.606
1289.0,-0.735,-13.002,6.095,-0.363,0.764,4.079
1293.0,-0.735,-13.002,6.095,-0.363,0.764,4.079
1297.0,-0.735,-13.002,5.774,-0.363,0.764,4.079
1301.0,-0.703,-13.676,5.774,-0.283,0.695,3.55
1305.0,-0.703,-13.676,5.774,-0.283,0.695,3.55
1309.0,0.062,-13.99,5.341,-0.244,0.609,3.06
1313.0,0.062,-13.99,5.341,-0.244,0.609,3.06
1317.0,0.062,-13.99,5.027,-0.244,0.609,3.06
1321.0,1.259,-13.924,5.027,-0.192,0.527,2.643
1325.0,1.259,-13.924,5.027,-0.192,0.527,2.643
1329.0,2.349,-13.764,5.137,-0.068,0.468,2.308
1333.0,2.349,-13.764,5.137,-0.068,0.468,2.308
1337.0,2.349,-13.764,5.137,-0.068,0.468,2.308
1340.0,3.196,-13.735,5.725,0.115,0.399,2.016
1344.0,3.196,-13.735,5.725,0.115,0.399,2.016
1348.0,3.829,-13.211,5.854,0.321,0.299,1.733
1352.0,3.829,-13.211,5.854,0.321,0.299,1.733
1356.0,3.829,-13.211,5.854,0.321,0.299,1.733
1360.0,4.485,-12.218,5.802,0.506,0.211,1.485
1363.0,4.485,-12.218,5.802,0.506,0.211,1.485
1367.0,5.265,-11.03,5.928,0.506,0.14,1.281
1371.0,5.265,-11.03,5.928,0.616,0.14,1.281
1375.0,5.265,-11.03,5.928,0.616,0.14,1.281
1379.0,6.264,-10.083,5.934,0.649,0.072,1.108
1382.0,6.264,-10.083,5.934,0.649,0.072,1.108
1386.0,6.264,-9.24,5.932,0.649,0.072,1.108
1390.0,7.278,-9.24,5.932,0.662,0.036,0.943
1394.0,7.278,-9.24,5.932,0.662,0.036,0.943
1398.0,8.096,-8.268,6.03,0.676,0.02,0.78
1401.0,8.096,-8.268,6.03,0.676,0.02,0.78
1405.0,8.096,-8.268,6.03,0.676,0.02,0.78
1409.0,8.638,-7.348,5.976,0.673,0.007,0.62
1412.0,8.638,-7.348,5.976,0.673,0.007,0.62
1416.0,9.038,-6.646,5.811,0.673,0.007,0.62
1420.0,9.038,-6.646,5.811,0.634,0.023,0.46
1424.0,9.038,-6.646,5.811,0.634,0.023,0.46
1427.0,9.232,-6.071,5.602,0.575,0.064,0.316
1431.0,9.232,-6.071,5.602,0.575,0.064,0.316
1435.0,9.232,-6.071,5.602,0.575,0.064,0.316
1439.0,8.991,-5.516,5.31,0.511,0.12,0.19
1442.0,8.991,-5.516,5.31,0.511,0.12,0.19
1446.0,8.495,-4.974,5.192,0.511,0.12,0.085
1450.0,8.495,-4.974,5.192,0.443,0.198,0.085
1454.0,8.495,-4.974,5.192,0.443,0.198,0.085
1457.0,8.006,-4.539,5.436,0.378,0.272,0.036
1461.0,8.006,-4.539,5.436,0.378,0.272,0.036
1465.0,8.006,-4.539,5.436,0.378,0.272,0.036
1468.0,7.717,-4.455,5.837,0.324,0.301,0.072
1472.0,7.717,-4.455,5.837,0.324,0.301,0.072
1476.0,7.44,-4.787,6.138,0.295,0.304,0.175
1480.0,7.44,-4.787,6.138,0.295,0.304,0.175
1483.0,7.44,-4.787,6.138,0.295,0.304,0.175
1487.0,7.024,-5.247,6.324,0.302,0.307,0.296
1491.0,7.024,-5.247,6.324,0.302,0.307,0.296
1495.0,7.024,-5.247,6.324,0.302,0.307,0.296
1498.0,6.688,-5.669,6.628,0.339,0.311,0.391
1502.0,6.688,-5.669,6.628,0.339,0.311,0.391
1506.0,6.527,-5.831,6.773,0.387,0.307,0.432
1509.0,6.527,-5.831,6.773,0.387,0.307,0.432
1513.0,6.527,-5.831,6.773,0.387,0.307,0.432
1517.0,6.487,-5.758,6.96,0.425,0.298,0.418
1521.0,6.487,-5.758,6.96,0.425,0.298,0.418
1524.0,6.487,-5.758,7.153,0.425,0.298,0.418
1528.0,6.395,-5.49,7.153,0.432,0.288,0.36
1532.0,6.395,-5.49,7.153,0.432,0.288,0.36
1536.0,6.179,-5.094,7.072,0.396,0.283,0.28
1539.0,6.179,-5.094,7.072,0.396,0.283,0.28
1543.0,6.179,-5.094,7.072,0.396,0.283,0.28
1547.0,5.992,-4.717,6.931,0.316,0.285,0.2
1551.0,5.992,-4.717,6.931,0.316,0.285,0.2
1554.0,5.953,-4.451,6.821,0.316,0.285,0.2
1558.0,5.953,-4.451,6.821,0.213,0.289,0.125
1562.0,5.953,-4.451,6.821,0.213,0.289,0.125
1565.0,6.023,-4.338,6.729,0.107,0.302,0.059
1569.0,6.023,-4.338,6.729,0.107,0.302,0.059
1573.0,6.023,-4.338,6.729,0.107,0.302,0.059
1577.0,6.253,-4.326,6.781,0.014,0.319,0.002
1580.0,6.253,-4.326,6.781,0.014,0.319,0.002
1584.0,6.629,-4.453,6.901,0.014,0.319,-0.052
1588.0,6.629,-4.453,6.901,-0.046,0.322,-0.052
1592.0,6.629,-4.453,6.901,-0.046,0.322,-0.052
1596.0,6.828,-4.594,6.908,-0.068,0.328,-0.105
1600.0,6.828,-4.594,6.908,-0.068,0.328,-0.105
1604.0,6.828,-4.771,6.923,-0.068,0.328,-0.105
1607.0,6.915,-4.771,6.923,-0.066,0.353,-0.14
1611.0,6.915,-4.771,6.923,-0.066,0.353,-0.14
1615.0,6.869,-4.849,7.028,-0.044,0.378,-0.144
1619.0,6.869,-4.849,7.028,-0.044,0.378,-0.144
1623.0,6.869,-4.849,7.044,-0.044,0.378,-0.144
1627.0,6.686,-5.084,7.044,0.003,0.408,-0.122
1631.0,6.686,-5.084,7.044,0.003,0.408,-0.122
1635.0,5.758,-5.067,6.699,0.062,0.464,-0.079
1638.0,5.758,-5.067,6.699,0.062,0.464,-0.079
1642.0,5.758,-5.067,6.699,0.062,0.464,-0.079
1646.0,4.684,-4.749,6.651,0.098,0.559,0.004
1650.0,4.684,-4.749,6.651,0.098,0.559,0.004
1654.0,4.478,-4.579,7.073,0.115,0.66,0.109
1657.0,4.478,-4.579,7.073,0.115,0.66,0.109
1661.0,4.478,-4.579,7.073,0.115,0.66,0.109
1665.0,4.852,-4.271,7.29,0.15,0.704,0.163
1669.0,4.852,-4.271,7.29,0.15,0.704,0.163
1672.0,4.852,-4.271,7.29,0.15,0.704,0.163
1676.0,5.469,-3.725,7.178,0.208,0.702,0.132
1680.0,5.469,-3.725,7.178,0.208,0.702,0.132
1683.0,6.21,-3.318,6.979,0.266,0.698,0.036
1687.0,6.21,-3.318,6.979,0.266,0.698,0.036
1691.0,6.21,-3.318,6.979,0.266,0.698,0.036
1695.0,6.587,-2.937,6.601,0.272,0.694,-0.054
1698.0,6.587,-2.937,6.601,0.272,0.694,-0.054
1702.0,6.587,-2.698,6.455,0.272,0.694,-0.054
1706.0,6.517,-2.698,6.455,0.195,0.733,-0.077
1710.0,6.517,-2.698,6.455,0.195,0.733,-0.077
1714.0,6.154,-2.86,6.597,0.067,0.813,-0.021
1718.0,6.154,-2.86,6.597,0.067,0.813,-0.021
1721.0,6.154,-2.86,6.597,0.067,0.813,-0.021
1725.0,5.711,-3.445,6.714,-0.062,0.886,0.066
1729.0,5.711,-3.445,6.714,-0.062,0.886,0.066
1733.0,5.361,-4.241,6.892,-0.148,0.985,0.108
1737.0,5.361,-4.241,6.892,-0.148,0.985,0.108
1740.0,5.361,-4.241,6.892,-0.148,0.985,0.108
1744.0,5.228,-4.884,7.298,-0.161,1.098,0.096
1748.0,5.228,-4.884,7.298,-0.161,1.098,0.096
1752.0,5.255,-5.23,7.991,-0.161,1.098,0.062
1756.0,5.255,-5.23,7.991,-0.099,1.193,0.062
1760.0,5.255,-5.23,7.991,-0.099,1.193,0.062
1763.0,4.997,-5.372,8.606,0.012,1.26,0.038
1767.0,4.997,-5.372,8.606,0.012,1.26,0.038
1771.0,4.997,-5.372,8.606,0.012,1.26,0.038
1775.0,4.466,-5.441,8.882,0.125,1.313,0.041
1778.0,4.466,-5.441,8.882,0.125,1.313,0.041
1782.0,3.934,-5.469,9.138,0.202,1.367,0.045
1786.0,3.934,-5.469,9.138,0.202,1.367,0.045
1790.0,3.934,-5.469,9.138,0.202,1.367,0.045
1793.0,3.668,-5.455,9.531,0.235,1.412,0.032
1797.0,3.668,-5.455,9.531,0.235,1.412,0.032
1801.0,3.668,-5.455,9.954,0.235,1.412,0.032
1804.0,3.584,-5.413,9.954,0.243,1.417,0.005
1808.0,3.584,-5.413,9.954,0.243,1.417,0.005
1812.0,3.584,-5.386,10.262,0.247,1.369,-0.028
1816.0,3.584,-5.386,10.262,0.247,1.369,-0.028
1820.0,3.584,-5.386,10.262,0.247,1.369,-0.028
1824.0,3.471,-5.32,10.487,0.251,1.31,-0.054
1828.0,3.471,-5.32,10.487,0.251,1.31,-0.054
1831.0,3.306,-5.266,10.713,0.248,1.254,-0.065
1835.0,3.306,-5.266,10.713,0.248,1.254,-0.065
1839.0,3.306,-5.266,10.713,0.248,1.254,-0.065
1843.0,3.181,-5.216,10.96,0.242,1.196,-0.081
1847.0,3.181,-5.216,10.96,0.242,1.196,-0.081
1851.0,2.991,-5.231,11.183,0.242,1.138,-0.115
1855.0,2.991,-5.231,11.183,0.232,1.138,-0.115
1859.0,2.991,-5.231,11.183,0.232,1.138,-0.115
1863.0,2.662,-5.207,11.477,0.209,1.087,-0.173
1867.0,2.662,-5.207,11.477,0.209,1.087,-0.173
1871.0,2.335,-5.281,11.712,0.209,1.087,-0.249
1874.0,2.335,-5.281,11.712,0.178,1.036,-0.249
1878.0,2.335,-5.281,11.712,0.178,1.036,-0.249
1882.0,2.116,-5.162,11.774,0.139,0.953,-0.339
1886.0,2.116,-5.162,11.774,0.139,0.953,-0.339
1890.0,1.998,-5.045,11.825,0.139,0.953,-0.339
1894.0,1.998,-5.045,11.825,0.091,0.867,-0.434
1898.0,1.998,-5.045,11.825,0.091,0.867,-0.434
1902.0,1.933,-5.0,11.855,0.044,0.789,-0.53
1906.0,1.933,-5.0,11.855,0.044,0.789,-0.53
1910.0,1.933,-4.763,11.765,0.044,0.789,-0.53
1913.0,1.812,-4.763,11.765,-0.001,0.72,-0.631
1917.0,1.812,-4.763,11.765,-0.001,0.72,-0.631
1921.0,1.792,-4.357,11.703,-0.048,0.67,-0.732
1925.0,1.792,-4.357,11.703,-0.048,0.67,-0.732
1929.0,2.09,-4.038,11.581,-0.048,0.67,-0.732
1933.0,2.09,-4.038,11.581,-0.091,0.624,-0.823
1937.0,2.09,-4.038,11.581,-0.091,0.624,-0.823
1941.0,2.477,-3.688,11.286,-0.131,0.579,-0.906
1945.0,2.477,-3.688,11.286,-0.131,0.579,-0.906
1949.0,2.673,-3.415,10.873,-0.131,0.579,-0.971
1953.0,2.673,-3.415,10.873,-0.173,0.554,-0.971
1957.0,2.673,-3.415,10.873,-0.173,0.554,-0.971
1961.0,2.873,-3.26,10.604,-0.211,0.541,-1.005
1965.0,2.873,-3.26,10.604,-0.211,0.541,-1.005
1969.0,2.995,-3.169,10.573,-0.211,0.541,-1.007
1973.0,2.995,-3.169,10.573,-0.226,0.541,-1.007
1977.0,2.995,-3.169,10.573,-0.226,0.541,-1.007
1981.0,2.94,-3.153,10.548,-0.207,0.557,-0.976
1985.0,2.94,-3.153,10.548,-0.207,0.557,-0.976
1989.0,2.777,-3.086,10.746,-0.173,0.561,-0.91
1993.0,2.777,-3.086,10.746,-0.173,0.561,-0.91
1997.0,2.777,-3.086,10.746,-0.173,0.561,-0.91
2001.0,2.392,-3.084,10.924,-0.146,0.556,-0.83
2005.0,2.392,-3.084,10.924,-0.146,0.556,-0.83
2009.0,1.607,-3.0,10.839,-0.148,0.568,-0.762
2013.0,1.607,-3.0,10.839,-0.148,0.568,-0.762
2017.0,1.607,-3.0,10.839,-0.148,0.568,-0.762
2021.0,0.49,-2.682,11.182,-0.203,0.605,-0.713
2025.0,0.49,-2.682,11.182,-0.203,0.605,-0.713
2029.0,-0.43,-2.436,11.624,-0.296,0.624,-0.682
2033.0,-0.43,-2.436,11.624,-0.296,0.624,-0.682
2037.0,-0.43,-2.436,11.624,-0.296,0.624,-0.682
2042.0,-1.054,-2.076,11.56,-0.41,0.609,-0.679
2046.0,-1.054,-2.076,11.56,-0.41,0.609,-0.679
2050.0,-1.389,-1.793,12.011,-0.531,0.58,-0.702
2054.0,-1.389,-1.793,12.011,-0.531,0.58,-0.702
2058.0,-1.038,-1.957,11.966,-0.531,0.58,-0.702
2062.0,-1.038,-1.957,11.966,-0.622,0.476,-0.73
2066.0,-1.038,-1.957,11.966,-0.622,0.476,-0.73
2070.0,-0.433,-2.017,11.702,-0.673,0.323,-0.752
2074.0,-0.433,-2.017,11.702,-0.673,0.323,-0.752
2078.0,-0.203,-2.198,11.475,-0.697,0.215,-0.766
2082.0,-0.203,-2.198,11.475,-0.697,0.215,-0.766
2086.0,-0.203,-2.198,11.475,-0.697,0.215,-0.766
2090.0,-0.144,-2.538,11.204,-0.697,0.123,-0.76
2095.0,-0.144,-2.538,11.204,-0.697,0.123,-0.76
2099.0,-0.255,-2.652,10.864,-0.689,0.043,-0.753
2103.0,-0.255,-2.652,10.864,-0.689,0.043,-0.753
2107.0,-0.255,-2.652,10.61,-0.689,0.043,-0.753
2111.0,-0.543,-2.786,10.61,-0.702,0.018,-0.757
2115.0,-0.543,-2.786,10.61,-0.702,0.018,-0.757
2119.0,-0.614,-2.947,10.616,-0.73,0.042,-0.769
2123.0,-0.614,-2.947,10.616,-0.73,0.042,-0.769
2127.0,-0.343,-3.078,10.872,-0.73,0.042,-0.791
2131.0,-0.343,-3.078,10.872,-0.747,0.094,-0.791
2135.0,-0.343,-3.078,10.872,-0.747,0.094,-0.791
2139.0,0.053,-3.194,11.048,-0.736,0.149,-0.823
2143.0,0.053,-3.194,11.048,-0.736,0.149,-0.823
2147.0,0.368,-3.238,10.933,-0.708,0.196,-0.859
2151.0,0.368,-3.238,10.933,-0.708,0.196,-0.859
2155.0,0.368,-3.238,10.933,-0.708,0.196,-0.859
2159.0,0.433,-3.138,10.576,-0.684,0.249,-0.89
2163.0,0.433,-3.138,10.576,-0.684,0.249,-0.89
2167.0,0.364,-3.019,10.296,-0.673,0.314,-0.911
2171.0,0.364,-3.019,10.296,-0.673,0.314,-0.911
2175.0,0.364,-3.019,10.296,-0.673,0.314,-0.911
2179.0,0.305,-2.954,10.02,-0.676,0.372,-0.917
2183.0,0.305,-2.954,10.02,-0.676,0.372,-0.917
2187.0,0.064,-2.928,9.632,-0.696,0.428,-0.904
2191.0,0.064,-2.928,9.632,-0.696,0.428,-0.904
2195.0,0.064,-2.928,9.632,-0.696,0.428,-0.904
2199.0,-0.337,-2.983,9.23,-0.735,0.499,-0.873
2203.0,-0.337,-2.983,9.23,-0.735,0.499,-0.873
2207.0,-0.747,-3.092,9.002,-0.788,0.576,-0.825
2211.0,-0.747,-3.092,9.002,-0.788,0.576,-0.825
2215.0,-0.747,-3.092,9.002,-0.788,0.576,-0.825
2219.0,-1.149,-3.143,8.806,-0.845,0.654,-0.768
2223.0,-1.149,-3.143,8.806,-0.845,0.654,-0.768
2227.0,-1.445,-3.181,8.372,-0.899,0.738,-0.708
2231.0,-1.445,-3.181,8.372,-0.899,0.738,-0.708
2235.0,-1.445,-3.181,8.372,-0.899,0.738,-0.708
2239.0,-1.671,-3.176,7.973,-0.942,0.851,-0.655
2243.0,-1.671,-3.176,7.973,-0.942,0.851,-0.655
2247.0,-1.836,-3.093,7.747,-0.958,0.986,-0.602
2251.0,-1.836,-3.093,7.747,-0.958,0.986,-0.602
2255.0,-1.836,-2.986,7.578,-0.958,0.986,-0.602
2259.0,-1.822,-2.986,7.578,-0.947,1.126,-0.541
2263.0,-1.822,-2.986,7.578,-0.947,1.126,-0.541
2267.0,-1.695,-2.886,7.427,-0.918,1.278,-0.478
2271.0,-1.695,-2.886,7.427,-0.918,1.278,-0.478
2275.0,-1.67,-2.808,7.164,-0.918,1.278,-0.478
2279.0,-1.67,-2.808,7.164,-0.884,1.455,-0.42
2283.0,-1.67,-2.808,7.164,-0.884,1.455,-0.42
2287.0,-1.761,-2.764,6.854,-0.857,1.659,-0.365
2291.0,-1.761,-2.764,6.854,-0.857,1.659,-0.365
2295.0,-2.143,-2.648,6.736,-0.857,1.659,-0.319
2299.0,-2.143,-2.648,6.736,-0.847,1.882,-0.319
2303.0,-2.143,-2.648,6.736,-0.847,1.882,-0.319
2307.0,-2.853,-2.477,7.163,-0.844,2.085,-0.271
2311.0,-2.853,-2.477,7.163,-0.844,2.085,-0.271
2315.0,-3.408,-2.549,7.414,-0.844,2.219,-0.201
2319.0,-3.408,-2.549,7.414,-0.845,2.219,-0.201
2323.0,-3.408,-2.549,7.414,-0.845,2.219,-0.201
2327.0,-3.723,-2.85,7.573,-0.847,2.323,-0.115
2331.0,-3.723,-2.85,7.573,-0.847,2.323,-0.115
2335.0,-3.717,-3.288,7.354,-0.849,2.429,-0.027
2339.0,-3.717,-3.288,7.354,-0.849,2.429,-0.027
2343.0,-3.717,-3.288,7.354,-0.849,2.429,-0.027
2347.0,-3.555,-3.746,6.824,-0.859,2.586,0.047
2351.0,-3.555,-3.746,6.824,-0.859,2.586,0.047
2355.0,-3.403,-4.135,6.003,-0.887,2.831,0.09
2359.0,-3.403,-4.135,6.003,-0.887,2.831,0.09
2362.0,-3.403,-4.135,6.003,-0.887,2.831,0.09
2366.0,-3.514,-4.305,5.295,-0.932,3.172,0.091
2370.0,-3.514,-4.305,5.295,-0.932,3.172,0.091
2374.0,-4.14,-4.115,5.42,-0.932,3.553,0.072
2378.0,-4.14,-4.115,5.42,-0.974,3.553,0.072
2382.0,-4.14,-4.115,5.42,-0.974,3.553,0.072
2386.0,-4.858,-4.037,5.416,-0.988,3.876,0.065
2390.0,-4.858,-4.037,5.416,-0.988,3.876,0.065
2394.0,-5.751,-3.777,5.605,-0.988,3.876,0.078
2398.0,-5.751,-3.777,5.605,-0.976,4.136,0.078
2401.0,-5.751,-3.777,5.605,-0.976,4.136,0.078
2405.0,-6.885,-3.419,6.002,-0.936,4.321,0.131
2409.0,-6.885,-3.419,6.002,-0.936,4.321,0.131
2413.0,-7.962,-3.435,5.535,-0.936,4.321,0.131
2417.0,-7.962,-3.435,5.535,-0.871,4.434,0.236
2421.0,-7.962,-3.435,5.535,-0.871,4.434,0.236
2425.0,-8.941,-3.559,4.434,-0.794,4.57,0.369
2429.0,-8.941,-3.559,4.434,-0.794,4.57,0.369
2433.0,-8.941,-3.62,3.41,-0.794,4.57,0.369
2437.0,-9.833,-3.62,3.41,-0.712,4.773,0.515
2441.0,-9.833,-3.62,3.41,-0.712,4.773,0.515
2444.0,-10.516,-3.729,2.562,-0.616,4.971,0.667
2448.0,-10.516,-3.729,2.562,-0.616,4.971,0.667
2452.0,-10.516,-3.93,2.431,-0.616,4.971,0.667
2456.0,-11.24,-3.93,2.431,-0.5,5.015,0.814
2460.0,-11.24,-3.93,2.431,-0.5,5.015,0.814
2464.0,-12.104,-4.361,2.615,-0.33,5.015,0.937
2468.0,-12.104,-4.361,2.615,-0.33,5.015,0.937
2472.0,-13.356,-4.832,3.604,-0.33,5.015,0.937
2476.0,-13.356,-4.832,3.604,-0.069,5.015,1.022
2480.0,-13.356,-4.832,3.604,-0.069,5.015,1.022
2484.0,-14.86,-5.318,4.487,0.305,5.015,1.074
2488.0,-14.86,-5.318,4.487,0.305,5.015,1.074
2492.0,-15.961,-5.653,4.258,0.305,5.015,1.074
2496.0,-15.961,-5.653,4.258,0.772,5.015,1.107
2500.0,-15.961,-5.653,4.258,0.772,5.015,1.107
2504.0,-16.176,-5.656,3.527,1.282,4.982,1.13
2508.0,-16.176,-5.656,3.527,1.282,4.982,1.13
2512.0,-16.176,-5.469,2.892,1.282,4.982,1.13
2516.0,-15.535,-5.469,2.892,1.806,4.872,1.139
2520.0,-15.535,-5.469,2.892,1.806,4.872,1.139
2523.0,-14.716,-5.322,2.519,2.354,4.834,1.128
2527.0,-14.716,-5.322,2.519,2.354,4.834,1.128
2531.0,-14.716,-5.322,2.496,2.354,4.834,1.128
2535.0,-14.431,-4.936,2.496,2.955,4.875,1.089
2539.0,-14.431,-4.936,2.496,2.955,4.875,1.089
2543.0,-14.549,-4.347,2.522,3.618,4.922,1.047
2547.0,-14.549,-4.347,2.522,3.618,4.922,1.047
2551.0,-14.549,-4.347,2.522,3.618,4.922,1.047
2555.0,-14.747,-3.867,2.533,4.301,4.916,1.009
2559.0,-14.747,-3.867,2.533,4.301,4.916,1.009
2563.0,-15.153,-3.606,2.592,4.874,4.858,0.951
2566.0,-15.153,-3.606,2.592,4.874,4.858,0.951
2570.0,-15.153,-3.606,2.592,4.874,4.858,0.951
2574.0,-15.745,-3.419,2.456,4.995,4.761,0.834
2578.0,-15.745,-3.419,2.456,4.995,4.761,0.834
2582.0,-16.325,-3.143,2.239,4.995,4.625,0.644
2586.0,-16.325,-3.143,2.239,4.995,4.625,0.644
2590.0,-16.325,-3.143,2.239,4.995,4.625,0.644
2594.0,-16.692,-2.785,1.817,4.995,4.427,0.385
2598.0,-16.692,-2.785,1.817,4.995,4.427,0.385
2602.0,-16.85,-2.04,1.22,4.995,4.167,0.075
2605.0,-16.85,-2.04,1.22,4.995,4.167,0.075
2609.0,-16.85,-2.04,1.22,4.995,4.167,0.075
2613.0,-16.893,-0.815,0.48,4.995,3.873,-0.239
2617.0,-16.893,-0.815,0.48,4.995,3.873,-0.239
2621.0,-16.756,0.589,-0.377,4.995,3.577,-0.51
2625.0,-16.756,0.589,-0.377,4.995,3.577,-0.51
2629.0,-16.756,0.589,-0.377,4.995,3.577,-0.51
2633.0,-16.513,1.905,-1.118,4.995,3.309,-0.732
2637.0,-16.513,1.905,-1.118,4.995,3.309,-0.732
2641.0,-16.247,2.786,-1.574,4.995,3.07,-0.928
2645.0,-16.247,2.786,-1.574,4.995,3.07,-0.928
2649.0,-16.247,2.786,-1.574,4.995,3.07,-0.928
2653.0,-16.14,3.436,-1.621,4.995,2.836,-1.129
2657.0,-16.14,3.436,-1.621,4.995,2.836,-1.129
2661.0,-16.239,3.971,-1.457,4.995,2.58,-1.326
2665.0,-16.239,3.971,-1.457,4.995,2.58,-1.326
2669.0,-16.239,3.971,-1.457,4.995,2.58,-1.326
2673.0,-16.37,4.315,-1.362,4.995,2.299,-1.516
2677.0,-16.37,4.315,-1.362,4.995,2.299,-1.516
2681.0,-16.586,4.552,-1.232,4.995,2.012,-1.713
2685.0,-16.586,4.552,-1.232,4.995,2.012,-1.713
2689.0,-16.586,4.552,-1.175,4.995,2.012,-1.713
2693.0,-16.615,4.729,-1.175,4.995,1.732,-1.912
2697.0,-16.615,4.729,-1.175,4.995,1.732,-1.912
2701.0,-16.431,5.188,-1.108,4.864,1.458,-2.099
2705.0,-16.431,5.188,-1.108,4.864,1.458,-2.099
2709.0,-16.431,5.766,-1.187,4.864,1.458,-2.099
2713.0,-16.207,5.766,-1.187,4.407,1.193,-2.232
2717.0,-16.207,5.766,-1.187,4.407,1.193,-2.232
2721.0,-15.896,6.278,-1.241,3.907,0.953,-2.276
2725.0,-15.896,6.278,-1.241,3.907,0.953,-2.276
2729.0,-15.321,6.175,-1.231,3.907,0.953,-2.276
2733.0,-15.321,6.175,-1.231,3.394,0.746,-2.245
2737.0,-15.321,6.175,-1.231,3.394,0.746,-2.245
2741.0,-15.027,6.007,-1.231,2.868,0.579,-2.196
2745.0,-15.027,6.007,-1.231,2.868,0.579,-2.196
2749.0,-14.579,5.592,-1.155,2.868,0.579,-2.132
2753.0,-14.579,5.592,-1.155,2.332,0.447,-2.132
2757.0,-14.579,5.592,-1.155,2.332,0.447,-2.132
2761.0,-14.024,4.969,-0.946,1.794,0.335,-2.077
2765.0,-14.024,4.969,-0.946,1.794,0.335,-2.077
2769.0,-13.537,4.277,-0.619,1.268,0.236,-2.053
2773.0,-13.537,4.277,-0.619,1.268,0.236,-2.053
2777.0,-13.537,4.277,-0.619,1.268,0.236,-2.053
2781.0,-13.115,3.736,-0.23,0.777,0.141,-2.06
2785.0,-13.115,3.736,-0.23,0.777,0.141,-2.06
2789.0,-12.668,3.504,0.008,0.338,0.041,-2.08
2793.0,-12.668,3.504,0.008,0.338,0.041,-2.08
2797.0,-12.668,3.504,0.008,0.338,0.041,-2.08
2801.0,-12.212,3.38,0.053,-0.044,-0.059,-2.078
2805.0,-12.212,3.38,0.053,-0.044,-0.059,-2.078
2809.0,-11.64,3.173,0.035,-0.376,-0.153,-2.042
2813.0,-11.64,3.173,0.035,-0.376,-0.153,-2.042
2817.0,-11.64,3.173,0.035,-0.376,-0.153,-2.042
2821.0,-11.032,2.822,-0.038,-0.667,-0.239,-1.98
2825.0,-11.032,2.822,-0.038,-0.667,-0.239,-1.98
2829.0,-10.592,2.364,-0.181,-0.917,-0.313,-1.908
2834.0,-10.592,2.364,-0.181,-0.917,-0.313,-1.908
2838.0,-10.286,1.873,-0.331,-0.917,-0.313,-1.831
2842.0,-10.286,1.873,-0.331,-1.113,-0.365,-1.831
2846.0,-10.286,1.873,-0.331,-1.113,-0.365,-1.831
2850.0,-9.944,1.25,-0.411,-1.241,-0.401,-1.742
2854.0,-9.944,1.25,-0.411,-1.241,-0.401,-1.742
2858.0,-9.607,0.705,-0.474,-1.304,-0.429,-1.642
2863.0,-9.607,0.705,-0.474,-1.304,-0.429,-1.642
2867.0,-9.607,0.705,-0.474,-1.304,-0.429,-1.642
2871.0,-9.428,0.28,-0.578,-1.314,-0.446,-1.528
2875.0,-9.428,0.28,-0.578,-1.314,-0.446,-1.528
2879.0,-9.528,-0.022,-0.632,-1.288,-0.444,-1.408
2883.0,-9.528,-0.022,-0.632,-1.288,-0.444,-1.408
2887.0,-9.615,-0.266,-0.591,-1.288,-0.444,-1.292
2891.0,-9.615,-0.266,-0.591,-1.236,-0.432,-1.292
2896.0,-9.615,-0.266,-0.591,-1.236,-0.432,-1.292
2900.0,-9.53,-0.508,-0.462,-1.169,-0.433,-1.192
2904.0,-9.53,-0.508,-0.462,-1.169,-0.433,-1.192
2908.0,-9.388,-0.667,-0.34,-1.093,-0.451,-1.125
2912.0,-9.388,-0.667,-0.34,-1.093,-0.451,-1.125
2916.0,-9.388,-0.714,-0.38,-1.093,-0.451,-1.125
2921.0,-9.243,-0.714,-0.38,-1.019,-0.476,-1.095
2925.0,-9.243,-0.714,-0.38,-1.019,-0.476,-1.095
2929.0,-9.104,-0.474,-0.49,-0.952,-0.481,-1.082
2933.0,-9.104,-0.474,-0.49,-0.952,-0.481,-1.082
2937.0,-8.801,-0.273,-0.559,-0.897,-0.461,-1.051
2941.0,-8.801,-0.273,-0.559,-0.897,-0.461,-1.051
2946.0,-8.801,-0.273,-0.559,-0.897,-0.461,-1.051
2950.0,-8.579,-0.188,-0.622,-0.863,-0.426,-1.001
2954.0,-8.579,-0.188,-0.622,-0.863,-0.426,-1.001
2958.0,-8.749,-0.09,-0.747,-0.86,-0.377,-0.939
2962.0,-8.749,-0.09,-0.747,-0.86,-0.377,-0.939
2966.0,-9.192,-0.071,-0.899,-0.86,-0.307,-0.862
2971.0,-9.192,-0.071,-0.899,-0.893,-0.307,-0.862
2975.0,-9.192,-0.071,-0.899,-0.893,-0.307,-0.862
2979.0,-9.474,-0.176,-1.03,-0.959,-0.227,-0.767
2983.0,-9.474,-0.176,-1.03,-0.959,-0.227,-0.767
2987.0,-9.482,-0.42,-1.137,-1.055,-0.152,-0.664
2991.0,-9.482,-0.42,-1.137,-1.055,-0.152,-0.664
2996.0,-9.4,-0.695,-1.21,-1.055,-0.152,-0.664
3000.0,-9.4,-0.695,-1.21,-1.168,-0.078,-0.57
