deltaTime,Acc_X,Acc_Y,Acc_Z,Gyro_X,Gyro_Y,Gyro_Z
0.0,-8.49,-1.109,4.758,0.048,0.257,0.061
3.0,-8.924,-1.094,4.909,-0.049,0.324,0.011
6.0,-8.924,-1.094,4.909,-0.049,0.324,0.011
9.0,-8.924,-1.094,4.909,-0.049,0.324,0.011
12.0,-8.924,-1.094,5.42,-0.049,0.324,0.011
15.0,-9.135,-1.169,5.42,-0.126,0.392,-0.023
18.0,-9.135,-1.169,5.42,-0.126,0.392,-0.023
21.0,-9.135,-1.169,5.42,-0.126,0.392,-0.023
24.0,-9.461,-1.3,6.023,-0.138,0.421,-0.043
27.0,-9.461,-1.3,6.023,-0.138,0.421,-0.043
30.0,-9.461,-1.3,6.023,-0.138,0.421,-0.043
33.0,-9.242,-1.322,6.208,-0.085,0.381,-0.071
36.0,-9.242,-1.322,6.208,-0.085,0.381,-0.071
40.0,-9.242,-1.322,6.208,-0.085,0.381,-0.071
44.0,-8.868,-1.387,6.069,0.009,0.315,-0.109
48.0,-8.868,-1.387,6.069,0.009,0.315,-0.109
51.0,-8.868,-1.336,5.777,0.009,0.315,-0.109
55.0,-8.773,-1.336,5.777,0.107,0.271,-0.134
59.0,-8.773,-1.336,5.777,0.107,0.271,-0.134
62.0,-8.776,-1.242,5.421,0.183,0.244,-0.128
66.0,-8.776,-1.242,5.421,0.183,0.244,-0.128
70.0,-8.776,-1.242,5.421,0.183,0.244,-0.128
74.0,-8.48,-1.193,5.26,0.226,0.231,-0.103
77.0,-8.48,-1.193,5.26,0.226,0.231,-0.103
81.0,-8.176,-1.18,5.168,0.226,0.231,-0.103
85.0,-8.176,-1.18,5.168,0.258,0.211,-0.084
89.0,-8.176,-1.18,5.168,0.258,0.211,-0.084
92.0,-7.935,-0.859,5.219,0.278,0.183,-0.086
96.0,-7.935,-0.859,5.219,0.278,0.183,-0.086
100.0,-7.935,-0.859,5.219,0.278,0.183,-0.086
104.0,-8.045,-0.832,5.146,0.255,0.15,-0.085
107.0,-8.045,-0.832,5.146,0.255,0.15,-0.085
111.0,-8.385,-0.667,5.114,0.209,0.124,-0.052
115.0,-8.385,-0.667,5.114,0.209,0.124,-0.052
119.0,-8.385,-0.667,5.114,0.209,0.124,-0.052
123.0,-8.149,-0.475,4.948,0.147,0.097,-0.008
127.0,-8.149,-0.475,4.948,0.147,0.097,-0.008
130.0,-8.28,-0.567,4.995,0.147,0.097,-0.008
134.0,-8.28,-0.567,4.995,0.054,0.094,0.032
138.0,-8.28,-0.567,4.995,0.054,0.094,0.032
142.0,-8.413,-0.523,4.834,-0.042,0.094,0.056
145.0,-8.413,-0.523,4.834,-0.042,0.094,0.056
149.0,-8.413,-0.523,4.834,-0.042,0.094,0.056
153.0,-8.288,-0.673,4.971,-0.135,0.095,0.06
157.0,-8.288,-0.673,4.971,-0.135,0.095,0.06
161.0,-8.52,-0.81,5.174,-0.219,0.105,0.064
165.0,-8.52,-0.81,5.174,-0.219,0.105,0.064
168.0,-8.52,-0.81,5.174,-0.219,0.105,0.064
172.0,-8.631,-0.944,5.186,-0.296,0.118,0.064
176.0,-8.631,-0.944,5.186,-0.296,0.118,0.064
180.0,-8.71,-1.289,5.435,-0.296,0.118,0.064
184.0,-8.71,-1.289,5.435,-0.356,0.145,0.068
187.0,-8.71,-1.289,5.435,-0.356,0.145,0.068
191.0,-8.82,-1.403,5.381,-0.381,0.169,0.066
195.0,-8.82,-1.403,5.381,-0.381,0.169,0.066
199.0,-8.82,-1.403,5.381,-0.381,0.169,0.066
203.0,-9.035,-1.48,5.76,-0.4,0.21,0.055
207.0,-9.035,-1.48,5.76,-0.4,0.21,0.055
210.0,-9.141,-1.382,6.135,-0.411,0.229,0.04
214.0,-9.141,-1.382,6.135,-0.411,0.229,0.04
218.0,-9.141,-1.382,6.135,-0.411,0.229,0.04
222.0,-9.019,-1.418,6.492,-0.414,0.209,0.008
226.0,-9.019,-1.418,6.492,-0.414,0.209,0.008
229.0,-9.08,-1.914,6.799,-0.414,0.163,-0.026
233.0,-9.08,-1.914,6.799,-0.382,0.163,-0.026
237.0,-9.08,-1.914,6.799,-0.382,0.163,-0.026
241.0,-9.159,-2.335,6.606,-0.236,0.085,-0.051
245.0,-9.159,-2.335,6.606,-0.236,0.085,-0.051
249.0,-9.254,-2.034,6.124,-0.236,0.085,-0.057
253.0,-9.254,-2.034,6.124,-0.034,0.005,-0.057
257.0,-9.254,-2.034,6.124,-0.034,0.005,-0.057
261.0,-9.437,-2.946,6.154,0.148,-0.06,-0.034
265.0,-9.437,-2.946,6.154,0.148,-0.06,-0.034
269.0,-8.825,-2.505,5.653,0.148,-0.06,-0.034
272.0,-8.825,-2.505,5.653,0.451,-0.163,-0.004
276.0,-8.825,-2.505,5.653,0.451,-0.163,-0.004
280.0,-7.766,-1.601,5.025,0.687,-0.248,-0.003
284.0,-7.766,-1.601,5.025,0.687,-0.248,-0.003
288.0,-7.766,-1.601,4.559,0.687,-0.248,-0.003
292.0,-7.448,-1.088,4.559,0.742,-0.247,-0.024
296.0,-7.448,-1.088,4.559,0.742,-0.247,-0.024
300.0,-7.664,-1.198,4.357,0.679,-0.205,-0.088
304.0,-7.664,-1.198,4.357,0.679,-0.205,-0.088
308.0,-7.664,-1.198,4.357,0.679,-0.205,-0.088
312.0,-7.408,-1.103,4.076,0.581,-0.144,-0.146
315.0,-7.408,-1.103,4.076,0.581,-0.144,-0.146
319.0,-7.579,-1.28,4.069,0.476,-0.084,-0.191
323.0,-7.579,-1.28,4.069,0.476,-0.084,-0.191
327.0,-7.579,-1.28,4.069,0.476,-0.084,-0.191
331.0,-7.565,-0.862,4.144,0.395,-0.045,-0.199
335.0,-7.565,-0.862,4.144,0.395,-0.045,-0.199
339.0,-7.58,-0.69,4.252,0.282,0.016,-0.194
343.0,-7.58,-0.69,4.252,0.282,0.016,-0.194
346.0,-7.58,-0.69,4.252,0.282,0.016,-0.194
350.0,-7.895,-0.559,4.471,0.144,0.103,-0.189
354.0,-7.895,-0.559,4.471,0.144,0.103,-0.189
358.0,-8.343,-0.568,4.535,-0.021,0.188,-0.185
362.0,-8.343,-0.568,4.535,-0.021,0.188,-0.185
366.0,-8.343,-0.568,4.535,-0.021,0.188,-0.185
370.0,-8.654,-0.729,4.391,-0.19,0.251,-0.169
374.0,-8.654,-0.729,4.391,-0.19,0.251,-0.169
377.0,-8.904,-0.955,4.123,-0.19,0.251,-0.131
381.0,-8.904,-0.955,4.123,-0.336,0.301,-0.131
385.0,-8.904,-0.955,4.123,-0.336,0.301,-0.131
389.0,-9.127,-1.32,3.894,-0.447,0.343,-0.074
393.0,-9.127,-1.32,3.894,-0.447,0.343,-0.074
397.0,-9.459,-1.761,3.862,-0.447,0.343,-0.074
401.0,-9.459,-1.761,3.862,-0.515,0.373,-0.011
405.0,-9.459,-1.761,3.862,-0.515,0.373,-0.011
409.0,-9.821,-2.214,4.145,-0.527,0.373,0.046
413.0,-9.821,-2.214,4.145,-0.527,0.373,0.046
416.0,-9.821,-2.214,4.354,-0.527,0.373,0.046
420.0,-10.136,-2.643,4.354,-0.471,0.34,0.082
424.0,-10.136,-2.643,4.354,-0.471,0.34,0.082
428.0,-10.388,-3.018,4.655,-0.354,0.293,0.092
432.0,-10.388,-3.018,4.655,-0.354,0.293,0.092
436.0,-10.388,-3.018,4.655,-0.354,0.293,0.092
440.0,-10.502,-3.176,5.078,-0.186,0.237,0.074
444.0,-10.502,-3.176,5.078,-0.186,0.237,0.074
448.0,-10.487,-3.142,5.43,0.023,0.186,0.037
451.0,-10.487,-3.142,5.43,0.023,0.186,0.037
455.0,-10.487,-3.142,5.43,0.023,0.186,0.037
459.0,-10.635,-3.194,6.003,0.252,0.153,-0.012
463.0,-10.635,-3.194,6.003,0.252,0.153,-0.012
467.0,-10.923,-3.413,6.937,0.49,0.117,-0.085
471.0,-10.923,-3.413,6.937,0.49,0.117,-0.085
475.0,-10.923,-3.413,6.937,0.49,0.117,-0.085
479.0,-10.946,-3.606,7.834,0.732,0.05,-0.187
482.0,-10.946,-3.606,7.834,0.732,0.05,-0.187
486.0,-10.801,-3.767,8.559,0.981,-0.054,-0.306
490.0,-10.801,-3.767,8.559,0.981,-0.054,-0.306
494.0,-10.801,-3.767,8.559,0.981,-0.054,-0.306
498.0,-10.686,-3.705,9.352,1.241,-0.204,-0.451
502.0,-10.686,-3.705,9.352,1.241,-0.204,-0.451
506.0,-10.569,-3.476,10.034,1.496,-0.405,-0.615
510.0,-10.569,-3.476,10.034,1.496,-0.405,-0.615
514.0,-10.569,-3.476,10.034,1.496,-0.405,-0.615
519.0,-10.497,-3.178,10.301,1.717,-0.645,-0.778
523.0,-10.497,-3.178,10.301,1.717,-0.645,-0.778
527.0,-10.46,-2.876,10.494,1.903,-0.913,-0.932
531.0,-10.46,-2.876,10.494,1.903,-0.913,-0.932
535.0,-10.46,-2.876,10.746,1.903,-0.913,-0.932
539.0,-10.662,-2.988,10.746,2.066,-1.192,-1.059
543.0,-10.662,-2.988,10.746,2.066,-1.192,-1.059
547.0,-11.1,-3.538,11.091,2.251,-1.459,-1.14
551.0,-11.1,-3.538,11.091,2.251,-1.459,-1.14
555.0,-11.5,-4.388,11.535,2.251,-1.707,-1.162
559.0,-11.5,-4.388,11.535,2.536,-1.707,-1.162
563.0,-11.5,-4.388,11.535,2.536,-1.707,-1.162
567.0,-11.699,-5.007,12.367,2.957,-1.959,-1.132
572.0,-11.699,-5.007,12.367,2.957,-1.959,-1.132
576.0,-11.885,-5.453,13.065,3.532,-2.262,-1.074
580.0,-11.885,-5.453,13.065,3.532,-2.262,-1.074
584.0,-11.885,-5.453,13.065,3.532,-2.262,-1.074
588.0,-11.994,-5.526,13.122,4.271,-2.617,-1.017
592.0,-11.994,-5.526,13.122,4.271,-2.617,-1.017
596.0,-11.869,-5.206,12.662,4.9,-2.959,-0.936
600.0,-11.869,-5.206,12.662,4.9,-2.959,-0.936
604.0,-11.562,-4.4,11.886,4.9,-2.959,-0.936
608.0,-11.562,-4.4,11.886,4.995,-3.24,-0.788
612.0,-11.562,-4.4,11.886,4.995,-3.24,-0.788
616.0,-11.182,-3.134,11.144,4.995,-3.439,-0.557
621.0,-11.182,-3.134,11.144,4.995,-3.439,-0.557
625.0,-10.863,-1.764,10.644,4.995,-3.582,-0.282
629.0,-10.863,-1.764,10.644,4.995,-3.582,-0.282
633.0,-10.863,-1.764,10.644,4.995,-3.582,-0.282
637.0,-10.635,-0.254,10.563,4.995,-3.706,-0.039
641.0,-10.635,-0.254,10.563,4.995,-3.706,-0.039
645.0,-10.633,1.247,10.658,4.995,-3.832,0.107
649.0,-10.633,1.247,10.658,4.995,-3.832,0.107
653.0,-10.633,1.247,10.658,4.995,-3.832,0.107
657.0,-10.638,2.493,10.571,4.995,-3.981,0.143
661.0,-10.638,2.493,10.571,4.995,-3.981,0.143
665.0,-10.31,3.623,10.53,4.995,-4.15,0.102
668.0,-10.31,3.623,10.53,4.995,-4.15,0.102
672.0,-10.31,3.623,10.53,4.995,-4.15,0.102
676.0,-9.777,4.559,10.449,4.91,-4.312,0.034
680.0,-9.777,4.559,10.449,4.91,-4.312,0.034
684.0,-9.163,4.874,10.719,4.34,-4.434,-0.027
688.0,-9.163,4.874,10.719,4.34,-4.434,-0.027
692.0,-9.163,4.874,10.719,4.34,-4.434,-0.027
696.0,-8.826,4.518,10.994,3.624,-4.52,-0.074
700.0,-8.826,4.518,10.994,3.624,-4.52,-0.074
703.0,-8.384,3.782,11.0,3.004,-4.59,-0.116
707.0,-8.384,3.782,11.0,3.004,-4.59,-0.116
711.0,-8.384,3.782,11.0,3.004,-4.59,-0.116
715.0,-7.753,2.698,10.997,2.548,-4.655,-0.172
719.0,-7.753,2.698,10.997,2.548,-4.655,-0.172
723.0,-7.392,1.668,10.847,2.548,-4.655,-0.248
727.0,-7.392,1.668,10.847,2.287,-4.707,-0.248
731.0,-7.392,1.668,10.847,2.287,-4.707,-0.248
735.0,-7.095,0.882,10.497,2.24,-4.756,-0.339
739.0,-7.095,0.882,10.497,2.24,-4.756,-0.339
742.0,-6.546,0.297,9.845,2.24,-4.756,-0.339
746.0,-6.546,0.297,9.845,2.403,-4.818,-0.438
750.0,-6.546,0.297,9.845,2.403,-4.818,-0.438
754.0,-5.836,0.211,9.075,2.727,-4.849,-0.518
758.0,-5.836,0.211,9.075,2.727,-4.849,-0.518
762.0,-5.836,0.211,9.075,2.727,-4.849,-0.518
765.0,-5.267,0.532,8.349,3.123,-4.81,-0.519
769.0,-5.267,0.532,8.349,3.123,-4.81,-0.519
773.0,-4.984,1.056,7.621,3.495,-4.704,-0.411
777.0,-4.984,1.056,7.621,3.495,-4.704,-0.411
781.0,-4.984,1.056,7.621,3.495,-4.704,-0.411
785.0,-4.984,1.482,6.916,3.775,-4.568,-0.255
788.0,-4.984,1.482,6.916,3.775,-4.568,-0.255
792.0,-4.518,1.554,6.092,3.775,-4.471,-0.151
796.0,-4.518,1.554,6.092,3.942,-4.471,-0.151
800.0,-4.518,1.554,6.092,3.942,-4.471,-0.151
804.0,-3.781,1.701,5.348,3.995,-4.384,-0.136
807.0,-3.781,1.701,5.348,3.995,-4.384,-0.136
811.0,-3.781,1.701,4.667,3.995,-4.384,-0.136
815.0,-3.236,1.899,4.667,3.929,-4.25,-0.153
819.0,-3.236,1.899,4.667,3.929,-4.25,-0.153
823.0,-3.025,2.074,4.251,3.756,-4.066,-0.177
827.0,-3.025,2.074,4.251,3.756,-4.066,-0.177
830.0,-3.025,2.074,4.251,3.756,-4.066,-0.177
834.0,-3.083,2.286,3.795,3.504,-3.884,-0.218
838.0,-3.083,2.286,3.795,3.504,-3.884,-0.218
842.0,-3.047,2.426,3.342,3.197,-3.728,-0.262
846.0,-3.047,2.426,3.342,3.197,-3.728,-0.262
849.0,-3.047,2.426,3.342,3.197,-3.728,-0.262
853.0,-2.867,2.445,2.803,2.862,-3.576,-0.291
857.0,-2.867,2.445,2.803,2.862,-3.576,-0.291
861.0,-2.577,2.21,2.306,2.862,-3.576,-0.291
865.0,-2.577,2.21,2.306,2.528,-3.402,-0.299
869.0,-2.577,2.21,2.306,2.528,-3.402,-0.299
872.0,-2.408,1.948,1.726,2.229,-3.199,-0.317
876.0,-2.408,1.948,1.726,2.229,-3.199,-0.317
880.0,-2.408,1.948,1.726,2.229,-3.199,-0.317
884.0,-2.238,1.884,1.015,1.983,-2.981,-0.356
888.0,-2.238,1.884,1.015,1.983,-2.981,-0.356
891.0,-1.819,1.883,0.476,1.786,-2.749,-0.388
895.0,-1.819,1.883,0.476,1.786,-2.749,-0.388
899.0,-1.819,1.883,0.476,1.786,-2.749,-0.388
903.0,-1.56,2.079,0.189,1.637,-2.497,-0.408
907.0,-1.56,2.079,0.189,1.637,-2.497,-0.408
911.0,-1.557,2.584,-0.073,1.637,-2.25,-0.4
914.0,-1.557,2.584,-0.073,1.532,-2.25,-0.4
918.0,-1.557,2.584,-0.073,1.532,-2.25,-0.4
922.0,-1.525,3.06,-0.287,1.427,-2.027,-0.33
926.0,-1.525,3.06,-0.287,1.427,-2.027,-0.33
930.0,-1.31,3.324,-0.336,1.427,-2.027,-0.33
934.0,-1.31,3.324,-0.336,1.298,-1.825,-0.233
938.0,-1.31,3.324,-0.336,1.298,-1.825,-0.233
942.0,-1.118,3.697,-0.188,1.157,-1.637,-0.183
946.0,-1.118,3.697,-0.188,1.157,-1.637,-0.183
950.0,-1.182,4.432,-0.059,1.157,-1.637,-0.183
954.0,-1.182,4.432,-0.059,1.016,-1.473,-0.186
957.0,-1.182,4.432,-0.059,1.016,-1.473,-0.186
961.0,-1.274,5.34,0.013,0.864,-1.337,-0.17
965.0,-1.274,5.34,0.013,0.864,-1.337,-0.17
969.0,-1.274,5.34,0.013,0.864,-1.337,-0.17
973.0,-1.234,6.153,0.183,0.704,-1.202,-0.082
977.0,-1.234,6.153,0.183,0.704,-1.202,-0.082
980.0,-1.038,6.666,0.489,0.554,-1.056,0.062
984.0,-1.038,6.666,0.489,0.554,-1.056,0.062
988.0,-1.038,6.666,0.489,0.554,-1.056,0.062
992.0,-0.822,7.318,0.938,0.417,-0.91,0.206
995.0,-0.822,7.318,0.938,0.417,-0.91,0.206
999.0,-0.715,7.911,1.384,0.417,-0.91,0.206
1003.0,-0.715,7.911,1.384,0.3,-0.767,0.347
1007.0,-0.715,7.911,1.384,0.3,-0.767,0.347
1010.0,-0.776,8.613,1.909,0.205,-0.618,0.487
1014.0,-0.776,8.613,1.909,0.205,-0.618,0.487
1018.0,-0.776,8.613,1.909,0.205,-0.618,0.487
1022.0,-0.966,9.282,2.225,0.134,-0.478,0.646
1026.0,-0.966,9.282,2.225,0.134,-0.478,0.646
1030.0,-1.08,9.994,2.404,0.077,-0.34,0.825
1033.0,-1.08,9.994,2.404,0.077,-0.34,0.825
1037.0,-1.08,9.994,2.404,0.077,-0.34,0.825
1041.0,-1.196,10.988,2.191,0.023,-0.201,1.019
1045.0,-1.196,10.988,2.191,0.023,-0.201,1.019
1049.0,-1.375,12.31,1.656,0.023,-0.045,1.253
1053.0,-1.375,12.31,1.656,-0.041,-0.045,1.253
1057.0,-1.375,12.31,1.656,-0.041,-0.045,1.253
1061.0,-1.563,13.484,0.981,-0.131,0.141,1.537
1065.0,-1.563,13.484,0.981,-0.131,0.141,1.537
1069.0,-1.718,14.506,0.73,-0.131,0.359,1.81
1072.0,-1.718,14.506,0.73,-0.247,0.359,1.81
1076.0,-1.718,14.506,0.73,-0.247,0.359,1.81
1080.0,-1.643,15.305,0.829,-0.369,0.569,2.032
1084.0,-1.643,15.305,0.829,-0.369,0.569,2.032
1088.0,-0.98,15.51,1.638,-0.369,0.569,2.257
1092.0,-0.98,15.51,1.638,-0.482,0.758,2.257
1096.0,-0.98,15.51,1.638,-0.482,0.758,2.257
1100.0,-0.522,15.22,3.518,-0.562,0.933,2.505
1104.0,-0.522,15.22,3.518,-0.562,0.933,2.505
1108.0,-0.998,14.853,6.069,-0.562,0.933,2.505
1112.0,-0.998,14.853,6.069,-0.586,1.054,2.743
1115.0,-0.998,14.853,6.069,-0.586,1.054,2.743
1119.0,-2.121,14.408,8.233,-0.548,1.1,2.992
1123.0,-2.121,14.408,8.233,-0.548,1.1,2.992
1127.0,-2.121,14.408,9.876,-0.548,1.1,2.992
1131.0,-3.007,13.772,9.876,-0.433,1.077,3.262
1135.0,-3.007,13.772,9.876,-0.433,1.077,3.262
1139.0,-3.114,13.127,10.528,-0.24,0.97,3.562
1143.0,-3.114,13.127,10.528,-0.24,0.97,3.562
1147.0,-3.114,13.127,10.783,-0.24,0.97,3.562
1151.0,-2.32,12.66,10.783,-0.017,0.845,3.86
1155.0,-2.32,12.66,10.783,-0.017,0.845,3.86
1159.0,-1.324,12.296,10.657,0.204,0.729,4.118
1163.0,-1.324,12.296,10.657,0.204,0.729,4.118
1167.0,-1.324,11.895,10.394,0.204,0.729,4.118
1171.0,-0.412,11.895,10.394,0.387,0.619,4.336
1174.0,-0.412,11.895,10.394,0.387,0.619,4.336
1178.0,0.205,11.52,10.065,0.507,0.522,4.51
1182.0,0.205,11.52,10.065,0.507,0.522,4.51
1186.0,0.205,11.52,10.065,0.507,0.522,4.51
1190.0,0.578,11.093,9.766,0.552,0.444,4.641
1194.0,0.578,11.093,9.766,0.552,0.444,4.641
1197.0,0.61,10.879,9.495,0.532,0.375,4.74
1201.0,0.61,10.879,9.495,0.532,0.375,4.74
1205.0,0.61,10.879,9.495,0.532,0.375,4.74
1208.0,0.636,10.514,9.13,0.463,0.303,4.873
1212.0,0.636,10.514,9.13,0.463,0.303,4.873
1216.0,0.636,10.514,8.766,0.463,0.303,4.873
1220.0,1.053,9.821,8.766,0.343,0.237,4.996
1223.0,1.053,9.821,8.766,0.343,0.237,4.996
1227.0,1.761,8.823,8.291,0.189,0.192,5.013
1231.0,1.761,8.823,8.291,0.189,0.192,5.013
1234.0,1.761,8.823,8.291,0.189,0.192,5.013
1238.0,2.429,8.149,7.935,0.033,0.178,5.01
1242.0,2.429,8.149,7.935,0.033,0.178,5.01
1245.0,2.429,8.149,7.935,0.033,0.178,5.01
1249.0,2.775,7.769,7.725,-0.122,0.171,4.949
1253.0,2.775,7.769,7.725,-0.122,0.171,4.949
1256.0,2.688,7.543,7.452,-0.286,0.163,4.848
1260.0,2.688,7.543,7.452,-0.286,0.163,4.848
1264.0,2.688,7.543,7.452,-0.286,0.163,4.848
1267.0,2.265,7.312,6.98,-0.463,0.159,4.839
1271.0,2.265,7.312,6.98,-0.463,0.159,4.839
1275.0,2.265,7.312,6.98,-0.463,0.159,4.839
1279.0,1.689,6.761,6.584,-0.651,0.169,4.927
1282.0,1.689,6.761,6.584,-0.651,0.169,4.927
1286.0,1.29,6.059,6.426,-0.835,0.176,5.006
1290.0,1.29,6.059,6.426,-0.835,0.176,5.006
1294.0,1.29,6.059,6.426,-0.835,0.176,5.006
1297.0,1.05,5.055,6.239,-0.986,0.172,5.013
1301.0,1.05,5.055,6.239,-0.986,0.172,5.013
1305.0,1.05,3.613,5.764,-0.986,0.172,5.013
1309.0,1.231,3.613,5.764,-1.108,0.158,5.013
1312.0,1.231,3.613,5.764,-1.108,0.158,5.013
1316.0,1.86,1.993,5.104,-1.209,0.149,5.013
1320.0,1.86,1.993,5.104,-1.209,0.149,5.013
1323.0,1.86,1.993,5.104,-1.209,0.149,5.013
1327.0,2.606,0.596,4.63,-1.299,0.178,5.013
1331.0,2.606,0.596,4.63,-1.299,0.178,5.013
1335.0,2.894,-0.57,4.318,-1.299,0.178,5.013
1338.0,2.894,-0.57,4.318,-1.375,0.244,5.013
1342.0,2.894,-0.57,4.318,-1.375,0.244,5.013
1346.0,2.458,-1.426,4.35,-1.454,0.316,5.013
1350.0,2.458,-1.426,4.35,-1.454,0.316,5.013
1354.0,2.458,-1.426,4.35,-1.454,0.316,5.013
1358.0,1.269,-2.621,4.732,-1.528,0.374,5.013
1361.0,1.269,-2.621,4.732,-1.528,0.374,5.013
1365.0,-0.391,-4.452,5.082,-1.582,0.404,5.013
1369.0,-0.391,-4.452,5.082,-1.582,0.404,5.013
1373.0,-0.391,-4.452,5.082,-1.582,0.404,5.013
1377.0,-1.834,-6.791,5.459,-1.586,0.415,5.013
1381.0,-1.834,-6.791,5.459,-1.586,0.415,5.013
1385.0,-2.968,-8.62,4.913,-1.527,0.42,5.01
1389.0,-2.968,-8.62,4.913,-1.527,0.42,5.01
1393.0,-2.968,-8.62,4.913,-1.527,0.42,5.01
1396.0,-3.636,-9.684,3.911,-1.438,0.444,4.859
1400.0,-3.636,-9.684,3.911,-1.438,0.444,4.859
1404.0,-3.733,-10.164,3.303,-1.361,0.467,4.497
1408.0,-3.733,-10.164,3.303,-1.361,0.467,4.497
1412.0,-3.733,-10.164,3.303,-1.361,0.467,4.497
1416.0,-3.545,-10.736,3.314,-1.281,0.439,4.128
1420.0,-3.545,-10.736,3.314,-1.281,0.439,4.128
1424.0,-3.263,-11.573,3.309,-1.184,0.331,3.756
1428.0,-3.263,-11.573,3.309,-1.184,0.331,3.756
1432.0,-3.263,-11.573,3.309,-1.184,0.331,3.756
1436.0,-2.959,-12.702,3.246,-1.07,0.164,3.354
1440.0,-2.959,-12.702,3.246,-1.07,0.164,3.354
1444.0,-2.438,-13.855,3.101,-0.933,-0.044,2.934
1448.0,-2.438,-13.855,3.101,-0.933,-0.044,2.934
1452.0,-2.438,-13.855,3.101,-0.933,-0.044,2.934
1456.0,-1.497,-14.509,3.067,-0.756,-0.25,2.529
1461.0,-1.497,-14.509,3.067,-0.756,-0.25,2.529
1465.0,-0.151,-14.7,3.265,-0.547,-0.42,2.17
1469.0,-0.151,-14.7,3.265,-0.547,-0.42,2.17
1473.0,1.392,-14.407,3.534,-0.547,-0.42,2.17
1477.0,1.392,-14.407,3.534,-0.331,-0.562,1.855
1481.0,1.392,-14.407,3.534,-0.331,-0.562,1.855
1485.0,2.889,-13.654,3.615,-0.139,-0.682,1.569
1489.0,2.889,-13.654,3.615,-0.139,-0.682,1.569
1493.0,4.302,-12.455,3.572,-0.139,-0.682,1.569
1497.0,4.302,-12.455,3.572,-0.012,-0.77,1.303
1501.0,4.302,-12.455,3.572,-0.012,-0.77,1.303
1505.0,5.645,-11.069,3.507,0.029,-0.798,1.059
1509.0,5.645,-11.069,3.507,0.029,-0.798,1.059
1513.0,6.884,-9.817,3.541,0.029,-0.798,0.841
1516.0,6.884,-9.817,3.541,-0.01,-0.758,0.841
1520.0,6.884,-9.817,3.541,-0.01,-0.758,0.841
1524.0,7.876,-8.711,3.801,-0.107,-0.669,0.651
1528.0,7.876,-8.711,3.801,-0.107,-0.669,0.651
1532.0,8.657,-7.906,4.27,-0.107,-0.669,0.651
1536.0,8.657,-7.906,4.27,-0.228,-0.566,0.503
1540.0,8.657,-7.906,4.27,-0.228,-0.566,0.503
1544.0,9.189,-7.275,4.76,-0.343,-0.475,0.401
1548.0,9.189,-7.275,4.76,-0.343,-0.475,0.401
1552.0,9.189,-7.275,4.96,-0.343,-0.475,0.401
1555.0,9.255,-6.87,4.96,-0.428,-0.414,0.343
1559.0,9.255,-6.87,4.96,-0.428,-0.414,0.343
1563.0,9.127,-6.656,4.641,-0.477,-0.383,0.327
1567.0,9.127,-6.656,4.641,-0.477,-0.383,0.327
1571.0,9.127,-6.656,4.641,-0.477,-0.383,0.327
1575.0,9.252,-6.58,4.556,-0.493,-0.346,0.352
1579.0,9.252,-6.58,4.556,-0.493,-0.346,0.352
1583.0,9.573,-6.64,4.734,-0.46,-0.323,0.4
1587.0,9.573,-6.64,4.734,-0.46,-0.323,0.4
1591.0,9.573,-6.64,4.734,-0.46,-0.323,0.4
1594.0,9.738,-6.656,4.628,-0.361,-0.311,0.449
1598.0,9.738,-6.656,4.628,-0.361,-0.311,0.449
1602.0,9.829,-6.701,4.644,-0.208,-0.279,0.505
1606.0,9.829,-6.701,4.644,-0.208,-0.279,0.505
1610.0,9.829,-6.701,4.644,-0.208,-0.279,0.505
1614.0,9.64,-6.641,4.688,-0.029,-0.25,0.571
1618.0,9.64,-6.641,4.688,-0.029,-0.25,0.571
1622.0,9.095,-6.622,4.648,0.155,-0.22,0.638
1626.0,9.095,-6.622,4.648,0.155,-0.22,0.638
1629.0,9.095,-6.622,4.648,0.155,-0.22,0.638
1633.0,8.503,-6.704,4.823,0.324,-0.18,0.696
1637.0,8.503,-6.704,4.823,0.324,-0.18,0.696
1641.0,7.624,-6.79,4.631,0.324,-0.18,0.731
1645.0,7.624,-6.79,4.631,0.47,-0.156,0.731
1649.0,7.624,-6.79,4.631,0.47,-0.156,0.731
1652.0,6.779,-6.914,4.58,0.598,-0.139,0.733
1656.0,6.779,-6.914,4.58,0.598,-0.139,0.733
1660.0,6.779,-6.914,4.424,0.598,-0.139,0.733
1664.0,6.15,-6.979,4.424,0.713,-0.129,0.709
1668.0,6.15,-6.979,4.424,0.713,-0.129,0.709
1671.0,5.582,-6.872,4.312,0.81,-0.12,0.669
1675.0,5.582,-6.872,4.312,0.81,-0.12,0.669
1679.0,5.582,-6.872,4.312,0.81,-0.12,0.669
1683.0,5.381,-6.748,4.356,0.868,-0.107,0.615
1687.0,5.381,-6.748,4.356,0.868,-0.107,0.615
1691.0,5.426,-6.552,4.629,0.894,-0.103,0.531
1694.0,5.426,-6.552,4.629,0.894,-0.103,0.531
1698.0,5.426,-6.552,4.629,0.894,-0.103,0.531
1702.0,5.542,-6.23,4.642,0.894,-0.148,0.417
1706.0,5.542,-6.23,4.642,0.894,-0.148,0.417
1710.0,5.522,-5.859,4.415,0.894,-0.148,0.417
1713.0,5.522,-5.859,4.415,0.86,-0.179,0.287
1717.0,5.522,-5.859,4.415,0.86,-0.179,0.287
1721.0,5.469,-5.488,4.29,0.796,-0.199,0.16
1725.0,5.469,-5.488,4.29,0.796,-0.199,0.16
1729.0,5.469,-5.488,4.29,0.796,-0.199,0.16
1733.0,5.531,-5.242,4.11,0.709,-0.225,0.045
1736.0,5.531,-5.242,4.11,0.709,-0.225,0.045
1740.0,5.678,-5.003,3.793,0.615,-0.209,-0.051
1744.0,5.678,-5.003,3.793,0.615,-0.209,-0.051
1748.0,5.678,-5.003,3.793,0.615,-0.209,-0.051
1752.0,6.147,-4.876,3.863,0.524,-0.155,-0.106
1756.0,6.147,-4.876,3.863,0.524,-0.155,-0.106
1760.0,6.711,-4.852,4.121,0.455,-0.095,-0.122
1764.0,6.711,-4.852,4.121,0.455,-0.095,-0.122
1768.0,6.711,-4.852,4.121,0.455,-0.095,-0.122
1771.0,6.986,-4.905,4.4,0.426,-0.039,-0.111
1775.0,6.986,-4.905,4.4,0.426,-0.039,-0.111
1779.0,6.758,-4.949,4.448,0.426,0.003,-0.075
1783.0,6.758,-4.949,4.448,0.435,0.003,-0.075
1787.0,6.758,-4.949,4.448,0.435,0.003,-0.075
1791.0,6.096,-4.904,4.198,0.462,0.039,-0.012
1795.0,6.096,-4.904,4.198,0.462,0.039,-0.012
1798.0,6.096,-4.764,3.958,0.462,0.039,-0.012
1802.0,5.456,-4.764,3.958,0.487,0.085,0.08
1806.0,5.456,-4.764,3.958,0.487,0.085,0.08
1810.0,5.342,-4.487,4.006,0.492,0.137,0.188
1813.0,5.342,-4.487,4.006,0.492,0.137,0.188
1817.0,5.342,-4.487,4.006,0.492,0.137,0.188
1821.0,5.797,-4.245,4.219,0.477,0.169,0.291
1825.0,5.797,-4.245,4.219,0.477,0.169,0.291
1828.0,6.536,-4.006,4.523,0.477,0.169,0.291
1832.0,6.536,-4.006,4.523,0.455,0.19,0.365
1836.0,6.536,-4.006,4.523,0.455,0.19,0.365
1840.0,7.268,-3.745,4.816,0.448,0.207,0.405
1843.0,7.268,-3.745,4.816,0.448,0.207,0.405
1847.0,7.268,-3.745,4.816,0.448,0.207,0.405
1851.0,7.666,-3.403,4.758,0.45,0.224,0.431
1854.0,7.666,-3.403,4.758,0.45,0.224,0.431
1858.0,7.627,-3.085,4.506,0.45,0.267,0.48
1862.0,7.627,-3.085,4.506,0.443,0.267,0.48
1866.0,7.627,-3.085,4.506,0.443,0.267,0.48
1869.0,7.268,-2.74,4.215,0.424,0.343,0.567
1873.0,7.268,-2.74,4.215,0.424,0.343,0.567
1877.0,7.268,-2.74,4.215,0.424,0.343,0.567
1881.0,6.69,-2.314,4.022,0.392,0.441,0.691
1884.0,6.69,-2.314,4.022,0.392,0.441,0.691
1888.0,6.169,-1.678,3.885,0.356,0.55,0.857
1892.0,6.169,-1.678,3.885,0.356,0.55,0.857
1896.0,6.169,-1.678,3.885,0.356,0.55,0.857
1899.0,5.887,-1.034,3.805,0.331,0.665,1.086
1903.0,5.887,-1.034,3.805,0.331,0.665,1.086
1907.0,5.887,-1.034,3.805,0.331,0.665,1.086
1910.0,5.849,-0.64,3.741,0.326,0.772,1.379
1914.0,5.849,-0.64,3.741,0.326,0.772,1.379
1918.0,6.001,-0.441,3.73,0.336,0.891,1.703
1922.0,6.001,-0.441,3.73,0.336,0.891,1.703
1925.0,6.001,-0.441,3.73,0.336,0.891,1.703
1929.0,6.15,-0.425,3.788,0.357,1.036,2.035
1933.0,6.15,-0.425,3.788,0.357,1.036,2.035
1937.0,6.15,-0.343,3.692,0.357,1.036,2.035
1940.0,6.193,-0.343,3.692,0.382,1.207,2.357
1944.0,6.193,-0.343,3.692,0.382,1.207,2.357
1948.0,6.172,-0.415,3.557,0.401,1.414,2.673
1952.0,6.172,-0.415,3.557,0.401,1.414,2.673
1955.0,6.172,-0.415,3.557,0.401,1.414,2.673
1959.0,5.985,-0.762,3.445,0.405,1.656,2.967
1963.0,5.985,-0.762,3.445,0.405,1.656,2.967
1966.0,5.426,-1.175,3.12,0.405,1.656,2.967
1970.0,5.426,-1.175,3.12,0.387,1.928,3.22
1974.0,5.426,-1.175,3.12,0.387,1.928,3.22
1978.0,4.41,-1.61,2.816,0.354,2.247,3.435
1981.0,4.41,-1.61,2.816,0.354,2.247,3.435
1985.0,4.41,-1.61,2.816,0.354,2.247,3.435
1989.0,3.064,-2.008,2.54,0.311,2.597,3.619
1993.0,3.064,-2.008,2.54,0.311,2.597,3.619
1996.0,1.47,-2.174,2.45,0.311,2.597,3.786
2000.0,1.47,-2.174,2.45,0.278,2.956,3.786
2004.0,1.47,-2.174,2.45,0.278,2.956,3.786
2008.0,-0.139,-2.429,2.527,0.282,3.286,3.96
2011.0,-0.139,-2.429,2.527,0.282,3.286,3.96
2015.0,-0.139,-2.429,2.527,0.282,3.286,3.96
2019.0,-1.804,-2.719,2.803,0.35,3.559,4.126
2023.0,-1.804,-2.719,2.803,0.35,3.559,4.126
2027.0,-3.689,-2.74,3.09,0.499,3.761,4.287
2030.0,-3.689,-2.74,3.09,0.499,3.761,4.287
2034.0,-3.689,-2.74,3.09,0.499,3.761,4.287
2038.0,-5.721,-3.001,3.538,0.743,3.884,4.469
2042.0,-5.721,-3.001,3.538,0.743,3.884,4.469
2046.0,-7.278,-4.198,4.19,0.743,3.884,4.659
2050.0,-7.278,-4.198,4.19,1.106,3.902,4.659
2053.0,-7.278,-4.198,4.19,1.106,3.902,4.659
2057.0,-7.97,-6.707,4.868,1.667,3.789,4.738
2061.0,-7.97,-6.707,4.868,1.667,3.789,4.738
2065.0,-7.97,-6.707,4.924,1.667,3.789,4.738
2069.0,-8.017,-9.664,4.924,2.556,3.58,4.591
2072.0,-8.017,-9.664,4.924,2.556,3.58,4.591
2076.0,-7.935,-11.882,4.391,3.819,3.384,4.236
2080.0,-7.935,-11.882,4.391,3.819,3.384,4.236
2084.0,-7.935,-11.882,4.391,3.819,3.384,4.236
2088.0,-7.663,-12.702,3.28,4.87,3.283,3.756
2092.0,-7.663,-12.702,3.28,4.87,3.283,3.756
2096.0,-6.978,-11.689,1.693,4.995,3.316,3.173
2100.0,-6.978,-11.689,1.693,4.995,3.316,3.173
2104.0,-6.978,-11.689,1.693,4.995,3.316,3.173
2108.0,-5.785,-9.395,0.133,4.995,3.464,2.54
2111.0,-5.785,-9.395,0.133,4.995,3.464,2.54
2115.0,-4.667,-6.942,-0.869,4.995,3.716,1.902
2119.0,-4.667,-6.942,-0.869,4.995,3.716,1.902
2123.0,-4.667,-6.942,-0.869,4.995,3.716,1.902
2127.0,-4.272,-4.813,-1.641,4.995,4.043,1.275
2131.0,-4.272,-4.813,-1.641,4.995,4.043,1.275
2135.0,-4.727,-2.934,-2.365,4.995,4.414,0.675
2139.0,-4.727,-2.934,-2.365,4.995,4.414,0.675
2142.0,-4.727,-2.934,-2.365,4.995,4.414,0.675
2146.0,-5.934,-0.931,-2.889,4.995,4.785,0.12
2150.0,-5.934,-0.931,-2.889,4.995,4.785,0.12
2154.0,-7.555,0.948,-2.88,4.995,4.785,-0.361
2158.0,-7.555,0.948,-2.88,4.995,5.0,-0.361
2162.0,-7.555,0.948,-2.88,4.995,5.0,-0.361
2166.0,-9.295,2.112,-2.029,4.995,5.015,-0.803
2170.0,-9.295,2.112,-2.029,4.995,5.015,-0.803
2174.0,-10.648,2.555,-0.951,4.995,5.015,-0.803
2178.0,-10.648,2.555,-0.951,4.995,5.015,-1.269
2182.0,-10.648,2.555,-0.951,4.995,5.015,-1.269
2186.0,-11.48,2.475,-0.429,4.995,5.015,-1.727
2190.0,-11.48,2.475,-0.429,4.995,5.015,-1.727
2194.0,-12.339,2.036,-0.191,4.995,5.015,-2.13
2198.0,-12.339,2.036,-0.191,4.995,5.015,-2.13
2202.0,-12.339,2.036,-0.191,4.995,5.015,-2.13
2206.0,-13.314,1.221,-0.159,4.995,5.015,-2.477
2210.0,-13.314,1.221,-0.159,4.995,5.015,-2.477
2214.0,-14.426,0.403,-0.032,4.995,5.015,-2.793
2218.0,-14.426,0.403,-0.032,4.96,5.015,-2.793
2222.0,-14.426,0.403,-0.032,4.96,5.015,-2.793
2226.0,-15.416,-0.224,0.095,4.579,5.015,-3.079
2230.0,-15.416,-0.224,0.095,4.579,5.015,-3.079
2234.0,-16.174,-0.481,0.52,4.078,5.015,-3.311
2238.0,-16.174,-0.481,0.52,4.078,5.015,-3.311
2242.0,-16.174,-0.481,0.52,4.078,5.015,-3.311
2246.0,-16.446,-0.307,0.482,3.689,5.015,-3.468
2250.0,-16.446,-0.307,0.482,3.689,5.015,-3.468
2254.0,-16.239,0.234,0.27,3.36,5.015,-3.544
2258.0,-16.239,0.234,0.27,3.36,5.015,-3.544
2261.0,-16.239,0.234,0.27,3.36,5.015,-3.544
2265.0,-15.984,0.816,0.362,3.055,5.01,-3.549
2269.0,-15.984,0.816,0.362,3.055,5.01,-3.549
2273.0,-15.991,1.239,0.447,2.759,4.928,-3.506
2277.0,-15.991,1.239,0.447,2.759,4.928,-3.506
2281.0,-15.991,1.239,0.447,2.759,4.928,-3.506
2285.0,-16.223,1.462,0.651,2.458,4.768,-3.445
2289.0,-16.223,1.462,0.651,2.458,4.768,-3.445
2293.0,-16.646,1.59,1.005,2.458,4.594,-3.395
2297.0,-16.646,1.59,1.005,2.16,4.594,-3.395
2300.0,-16.646,1.59,1.005,2.16,4.594,-3.395
2304.0,-17.058,1.703,1.621,1.879,4.404,-3.365
2308.0,-17.058,1.703,1.621,1.879,4.404,-3.365
2312.0,-17.618,1.819,2.219,1.879,4.404,-3.355
2316.0,-17.618,1.819,2.219,1.629,4.182,-3.355
2320.0,-17.618,1.819,2.219,1.629,4.182,-3.355
2324.0,-18.139,2.128,2.752,1.423,3.935,-3.343
2328.0,-18.139,2.128,2.752,1.423,3.935,-3.343
2332.0,-18.284,2.48,3.156,1.423,3.935,-3.343
2336.0,-18.284,2.48,3.156,1.258,3.667,-3.302
2340.0,-18.284,2.48,3.156,1.258,3.667,-3.302
2343.0,-18.168,2.852,3.393,1.13,3.381,-3.235
2347.0,-18.168,2.852,3.393,1.13,3.381,-3.235
2351.0,-18.168,3.071,3.353,1.13,3.381,-3.235
2355.0,-17.936,3.071,3.353,1.027,3.091,-3.143
2359.0,-17.936,3.071,3.353,1.027,3.091,-3.143
2363.0,-17.872,3.106,3.107,0.926,2.809,-3.04
2367.0,-17.872,3.106,3.107,0.926,2.809,-3.04
2371.0,-17.872,3.106,2.943,0.926,2.809,-3.04
2375.0,-18.008,3.15,2.943,0.81,2.551,-2.925
2379.0,-18.008,3.15,2.943,0.81,2.551,-2.925
2382.0,-18.15,3.004,2.868,0.68,2.311,-2.791
2386.0,-18.15,3.004,2.868,0.68,2.311,-2.791
2390.0,-18.15,3.004,2.868,0.68,2.311,-2.791
2394.0,-18.436,2.779,2.876,0.551,2.079,-2.648
2398.0,-18.436,2.779,2.876,0.551,2.079,-2.648
2402.0,-18.523,2.597,3.031,0.441,1.838,-2.499
2406.0,-18.523,2.597,3.031,0.441,1.838,-2.499
2410.0,-18.523,2.597,3.031,0.441,1.838,-2.499
2414.0,-18.571,2.442,3.167,0.353,1.572,-2.35
2418.0,-18.571,2.442,3.167,0.353,1.572,-2.35
2422.0,-18.51,2.308,3.069,0.285,1.279,-2.203
2425.0,-18.51,2.308,3.069,0.285,1.279,-2.203
2429.0,-18.51,2.308,3.069,0.285,1.279,-2.203
2433.0,-18.154,2.227,2.707,0.23,0.983,-2.061
2437.0,-18.154,2.227,2.707,0.23,0.983,-2.061
2441.0,-17.614,2.218,2.367,0.172,0.716,-1.922
2445.0,-17.614,2.218,2.367,0.172,0.716,-1.922
2449.0,-17.614,2.218,2.367,0.172,0.716,-1.922
2453.0,-16.967,2.207,2.135,0.101,0.49,-1.779
2457.0,-16.967,2.207,2.135,0.101,0.49,-1.779
2461.0,-16.225,2.174,1.9,0.016,0.301,-1.625
2465.0,-16.225,2.174,1.9,0.016,0.301,-1.625
2468.0,-16.225,2.174,1.9,0.016,0.301,-1.625
2472.0,-15.357,2.113,1.795,-0.084,0.145,-1.463
2476.0,-15.357,2.113,1.795,-0.084,0.145,-1.463
2480.0,-14.658,1.964,1.642,-0.196,0.011,-1.298
2484.0,-14.658,1.964,1.642,-0.196,0.011,-1.298
2488.0,-14.658,1.964,1.642,-0.196,0.011,-1.298
2492.0,-14.011,1.846,1.557,-0.322,-0.107,-1.143
2496.0,-14.011,1.846,1.557,-0.322,-0.107,-1.143
2500.0,-13.312,1.7,1.411,-0.465,-0.218,-0.997
2505.0,-13.312,1.7,1.411,-0.465,-0.218,-0.997
2509.0,-13.312,1.7,1.411,-0.465,-0.218,-0.997
2513.0,-12.712,1.557,1.219,-0.626,-0.316,-0.861
2517.0,-12.712,1.557,1.219,-0.626,-0.316,-0.861
2521.0,-12.011,1.376,0.948,-0.806,-0.385,-0.74
2525.0,-12.011,1.376,0.948,-0.806,-0.385,-0.74
2529.0,-11.278,1.168,0.76,-0.806,-0.385,-0.74
2533.0,-11.278,1.168,0.76,-1.002,-0.416,-0.644
2537.0,-11.278,1.168,0.76,-1.002,-0.416,-0.644
2541.0,-10.729,0.958,0.689,-1.205,-0.417,-0.575
2545.0,-10.729,0.958,0.689,-1.205,-0.417,-0.575
2549.0,-10.263,0.755,0.662,-1.398,-0.41,-0.527
2554.0,-10.263,0.755,0.662,-1.398,-0.41,-0.527
2558.0,-10.263,0.755,0.662,-1.398,-0.41,-0.527
2562.0,-9.951,0.555,0.662,-1.58,-0.41,-0.49
2566.0,-9.951,0.555,0.662,-1.58,-0.41,-0.49
2570.0,-9.851,0.307,0.61,-1.751,-0.422,-0.453
2574.0,-9.851,0.307,0.61,-1.751,-0.422,-0.453
2578.0,-9.851,0.307,0.61,-1.751,-0.422,-0.453
2582.0,-9.912,0.033,0.464,-1.911,-0.439,-0.41
2586.0,-9.912,0.033,0.464,-1.911,-0.439,-0.41
2590.0,-10.006,-0.29,0.323,-2.064,-0.458,-0.353
2594.0,-10.006,-0.29,0.323,-2.064,-0.458,-0.353
2598.0,-10.006,-0.687,0.302,-2.064,-0.458,-0.353
2602.0,-10.002,-0.687,0.302,-2.212,-0.48,-0.287
2606.0,-10.002,-0.687,0.302,-2.212,-0.48,-0.287
2610.0,-9.92,-1.085,0.299,-2.345,-0.514,-0.219
2615.0,-9.92,-1.085,0.299,-2.345,-0.514,-0.219
2619.0,-9.826,-1.472,0.224,-2.452,-0.563,-0.156
2623.0,-9.826,-1.472,0.224,-2.452,-0.563,-0.156
2627.0,-9.826,-1.472,0.224,-2.452,-0.563,-0.156
2631.0,-9.732,-1.909,0.041,-2.531,-0.619,-0.103
2635.0,-9.732,-1.909,0.041,-2.531,-0.619,-0.103
2639.0,-9.735,-2.326,-0.158,-2.574,-0.674,-0.071
2643.0,-9.735,-2.326,-0.158,-2.574,-0.674,-0.071
2647.0,-9.735,-2.707,-0.406,-2.574,-0.674,-0.071
2652.0,-9.789,-2.707,-0.406,-2.574,-0.723,-0.063
2656.0,-9.789,-2.707,-0.406,-2.574,-0.723,-0.063
2660.0,-9.918,-3.072,-0.631,-2.53,-0.762,-0.071
2664.0,-9.918,-3.072,-0.631,-2.53,-0.762,-0.071
2668.0,-10.084,-3.363,-0.849,-2.444,-0.783,-0.089
2672.0,-10.084,-3.363,-0.849,-2.444,-0.783,-0.089
2677.0,-10.084,-3.363,-0.849,-2.444,-0.783,-0.089
2681.0,-10.146,-3.587,-1.11,-2.324,-0.784,-0.098
2685.0,-10.146,-3.587,-1.11,-2.324,-0.784,-0.098
2689.0,-10.195,-3.833,-1.312,-2.181,-0.76,-0.091
2694.0,-10.195,-3.833,-1.312,-2.181,-0.76,-0.091
2698.0,-10.275,-4.008,-1.447,-2.022,-0.706,-0.079
2702.0,-10.275,-4.008,-1.447,-2.022,-0.706,-0.079
2706.0,-10.275,-4.008,-1.676,-2.022,-0.706,-0.079
2711.0,-10.338,-4.123,-1.676,-1.849,-0.625,-0.067
2715.0,-10.338,-4.123,-1.676,-1.849,-0.625,-0.067
2719.0,-10.408,-4.221,-1.738,-1.662,-0.518,-0.069
2723.0,-10.408,-4.221,-1.738,-1.662,-0.518,-0.069
2728.0,-10.48,-4.362,-1.637,-1.457,-0.399,-0.093
2732.0,-10.48,-4.362,-1.637,-1.457,-0.399,-0.093
2736.0,-10.48,-4.524,-1.349,-1.457,-0.399,-0.093
2740.0,-10.387,-4.524,-1.349,-1.219,-0.289,-0.136
2745.0,-10.387,-4.524,-1.349,-1.219,-0.289,-0.136
2749.0,-10.101,-4.655,-0.931,-0.933,-0.209,-0.18
2753.0,-10.101,-4.655,-0.931,-0.933,-0.209,-0.18
2757.0,-9.905,-4.661,-0.532,-0.608,-0.175,-0.215
2762.0,-9.905,-4.661,-0.532,-0.608,-0.175,-0.215
2766.0,-9.905,-4.602,-0.371,-0.608,-0.175,-0.215
2770.0,-9.853,-4.602,-0.371,-0.267,-0.183,-0.223
2774.0,-9.853,-4.602,-0.371,-0.267,-0.183,-0.223
2778.0,-9.96,-4.537,-0.517,0.066,-0.217,-0.2
2782.0,-9.96,-4.537,-0.517,0.066,-0.217,-0.2
2786.0,-10.031,-4.452,-0.67,0.363,-0.258,-0.149
2791.0,-10.031,-4.452,-0.67,0.363,-0.258,-0.149
2795.0,-10.031,-4.452,-0.67,0.363,-0.258,-0.149
2799.0,-9.921,-4.371,-0.715,0.61,-0.305,-0.08
2803.0,-9.921,-4.371,-0.715,0.61,-0.305,-0.08
2807.0,-9.568,-4.317,-0.73,0.807,-0.357,-0.005
2811.0,-9.568,-4.317,-0.73,0.807,-0.357,-0.005
2815.0,-9.062,-4.236,-0.703,0.807,-0.357,-0.005
2819.0,-9.062,-4.236,-0.703,0.963,-0.413,0.06
2823.0,-9.062,-4.236,-0.703,0.963,-0.413,0.06
2827.0,-8.536,-4.107,-0.529,1.09,-0.473,0.106
2831.0,-8.536,-4.107,-0.529,1.09,-0.473,0.106
2835.0,-8.183,-3.981,-0.313,1.09,-0.473,0.136
2839.0,-8.183,-3.981,-0.313,1.196,-0.548,0.136
2843.0,-8.183,-3.981,-0.313,1.196,-0.548,0.136
2847.0,-8.017,-3.821,-0.141,1.282,-0.64,0.161
2851.0,-8.017,-3.821,-0.141,1.282,-0.64,0.161
2855.0,-7.932,-3.645,-0.06,1.282,-0.75,0.197
2859.0,-7.932,-3.645,-0.06,1.344,-0.75,0.197
2863.0,-7.932,-3.645,-0.06,1.344,-0.75,0.197
2867.0,-7.82,-3.519,-0.06,1.376,-0.873,0.254
2871.0,-7.82,-3.519,-0.06,1.376,-0.873,0.254
2875.0,-7.822,-3.438,-0.133,1.372,-0.991,0.334
2879.0,-7.822,-3.438,-0.133,1.372,-0.991,0.334
2883.0,-7.822,-3.438,-0.133,1.372,-0.991,0.334
2887.0,-8.036,-3.386,-0.371,1.328,-1.09,0.434
2891.0,-8.036,-3.386,-0.371,1.328,-1.09,0.434
2895.0,-8.288,-3.356,-0.759,1.24,-1.148,0.55
2899.0,-8.288,-3.356,-0.759,1.24,-1.148,0.55
2903.0,-8.288,-3.356,-0.759,1.24,-1.148,0.55
2907.0,-8.399,-3.346,-1.083,1.103,-1.152,0.669
2911.0,-8.399,-3.346,-1.083,1.103,-1.152,0.669
2915.0,-8.28,-3.366,-1.239,0.925,-1.104,0.767
2919.0,-8.28,-3.366,-1.239,0.925,-1.104,0.767
2923.0,-8.28,-3.366,-1.239,0.925,-1.104,0.767
2927.0,-8.052,-3.345,-1.127,0.723,-1.011,0.82
2931.0,-8.052,-3.345,-1.127,0.723,-1.011,0.82
2935.0,-7.805,-3.257,-0.837,0.523,-0.893,0.816
2939.0,-7.805,-3.257,-0.837,0.523,-0.893,0.816
2943.0,-7.805,-3.257,-0.837,0.523,-0.893,0.816
2947.0,-7.68,-3.147,-0.538,0.343,-0.771,0.756
2951.0,-7.68,-3.147,-0.538,0.343,-0.771,0.756
2955.0,-7.679,-2.959,-0.3,0.192,-0.654,0.648
2959.0,-7.679,-2.959,-0.3,0.192,-0.654,0.648
2963.0,-7.679,-2.959,-0.048,0.192,-0.654,0.648
2967.0,-7.68,-2.771,-0.048,0.071,-0.548,0.517
2971.0,-7.68,-2.771,-0.048,0.071,-0.548,0.517
2975.0,-7.691,-2.648,0.023,-0.024,-0.456,0.382
2979.0,-7.691,-2.648,0.023,-0.024,-0.456,0.382
2983.0,-7.784,-2.545,-0.036,-0.024,-0.456,0.382
2987.0,-7.784,-2.545,-0.036,-0.105,-0.36,0.264
2991.0,-7.784,-2.545,-0.036,-0.105,-0.36,0.264
2995.0,-7.966,-2.48,-0.193,-0.183,-0.249,0.178
2999.0,-7.966,-2.48,-0.193,-0.183,-0.249,0.178
