deltaTime,Acc_X,Acc_Y,Acc_Z,Gyro_X,Gyro_Y,Gyro_Z
0.0,-9.363,-3.648,3.136,0.219,-0.113,-0.343
3.0,-9.363,-3.648,3.136,0.219,-0.113,-0.343
6.0,-9.732,-3.352,2.968,0.48,-0.051,-0.379
9.0,-9.732,-3.352,2.968,0.48,-0.051,-0.379
12.0,-9.732,-3.352,2.968,0.48,-0.051,-0.379
15.0,-9.934,-2.908,2.892,0.719,0.015,-0.386
18.0,-9.934,-2.908,2.892,0.719,0.015,-0.386
21.0,-9.934,-2.908,2.892,0.719,0.015,-0.386
24.0,-9.934,-2.908,2.846,0.719,0.015,-0.386
27.0,-10.061,-2.466,2.846,0.885,0.054,-0.363
30.0,-10.061,-2.466,2.846,0.885,0.054,-0.363
33.0,-10.061,-2.466,2.846,0.885,0.054,-0.363
36.0,-10.135,-2.004,2.763,0.949,0.056,-0.323
40.0,-10.135,-2.004,2.763,0.949,0.056,-0.323
44.0,-10.02,-1.785,2.873,0.949,0.056,-0.278
48.0,-10.02,-1.785,2.873,0.907,0.02,-0.278
52.0,-10.02,-1.785,2.873,0.907,0.02,-0.278
55.0,-9.456,-1.784,2.949,0.802,-0.064,-0.244
59.0,-9.456,-1.784,2.949,0.802,-0.064,-0.244
63.0,-9.456,-1.784,2.773,0.802,-0.064,-0.244
67.0,-9.034,-1.861,2.773,0.678,-0.172,-0.233
71.0,-9.034,-1.861,2.773,0.678,-0.172,-0.233
75.0,-8.979,-1.889,2.399,0.554,-0.253,-0.231
78.0,-8.979,-1.889,2.399,0.554,-0.253,-0.231
82.0,-8.979,-1.889,2.399,0.554,-0.253,-0.231
86.0,-9.061,-1.906,2.145,0.434,-0.293,-0.211
90.0,-9.061,-1.906,2.145,0.434,-0.293,-0.211
94.0,-9.017,-2.022,1.967,0.323,-0.31,-0.179
97.0,-9.017,-2.022,1.967,0.323,-0.31,-0.179
101.0,-9.017,-2.022,1.967,0.323,-0.31,-0.179
105.0,-9.202,-2.196,1.889,0.24,-0.307,-0.135
109.0,-9.202,-2.196,1.889,0.24,-0.307,-0.135
113.0,-9.706,-2.364,1.886,0.24,-0.307,-0.07
117.0,-9.706,-2.364,1.886,0.19,-0.278,-0.07
121.0,-9.706,-2.364,1.886,0.19,-0.278,-0.07
125.0,-9.966,-2.557,2.315,0.171,-0.233,0.006
129.0,-9.966,-2.557,2.315,0.171,-0.233,0.006
132.0,-9.966,-2.783,2.764,0.171,-0.233,0.006
136.0,-9.74,-2.783,2.764,0.188,-0.207,0.065
140.0,-9.74,-2.783,2.764,0.188,-0.207,0.065
144.0,-9.808,-2.973,3.036,0.228,-0.192,0.106
148.0,-9.808,-2.973,3.036,0.228,-0.192,0.106
151.0,-9.808,-2.973,3.036,0.228,-0.192,0.106
155.0,-10.187,-3.038,3.371,0.278,-0.162,0.15
159.0,-10.187,-3.038,3.371,0.278,-0.162,0.15
163.0,-10.161,-2.969,4.087,0.326,-0.128,0.183
167.0,-10.161,-2.969,4.087,0.326,-0.128,0.183
171.0,-10.161,-2.969,4.087,0.326,-0.128,0.183
175.0,-9.701,-2.814,4.605,0.373,-0.137,0.174
179.0,-9.701,-2.814,4.605,0.373,-0.137,0.174
182.0,-9.648,-2.565,4.704,0.409,-0.172,0.139
186.0,-9.648,-2.565,4.704,0.409,-0.172,0.139
190.0,-9.648,-2.565,4.704,0.409,-0.172,0.139
194.0,-9.937,-2.325,4.535,0.422,-0.205,0.124
198.0,-9.937,-2.325,4.535,0.422,-0.205,0.124
202.0,-10.262,-2.233,4.436,0.422,-0.205,0.124
205.0,-10.262,-2.233,4.436,0.422,-0.224,0.14
209.0,-10.262,-2.233,4.436,0.422,-0.224,0.14
213.0,-10.309,-2.271,4.292,0.426,-0.24,0.178
217.0,-10.309,-2.271,4.292,0.426,-0.24,0.178
221.0,-10.309,-2.271,4.22,0.426,-0.24,0.178
225.0,-10.067,-2.333,4.22,0.448,-0.253,0.215
229.0,-10.067,-2.333,4.22,0.448,-0.253,0.215
233.0,-9.641,-2.325,4.028,0.486,-0.248,0.23
237.0,-9.641,-2.325,4.028,0.486,-0.248,0.23
240.0,-9.641,-2.325,4.028,0.486,-0.248,0.23
244.0,-9.33,-2.6,4.008,0.527,-0.213,0.211
248.0,-9.33,-2.6,4.008,0.527,-0.213,0.211
252.0,-9.251,-2.971,3.702,0.601,-0.148,0.193
256.0,-9.251,-2.971,3.702,0.601,-0.148,0.193
260.0,-9.251,-2.971,3.702,0.601,-0.148,0.193
263.0,-9.176,-2.856,3.295,0.71,-0.095,0.174
267.0,-9.176,-2.856,3.295,0.71,-0.095,0.174
271.0,-9.074,-2.89,2.971,0.71,-0.095,0.126
275.0,-9.074,-2.89,2.971,0.793,-0.096,0.126
279.0,-9.074,-2.89,2.971,0.793,-0.096,0.126
282.0,-9.012,-3.111,2.717,0.886,-0.153,0.088
286.0,-9.012,-3.111,2.717,0.886,-0.153,0.088
290.0,-9.012,-3.111,2.54,0.886,-0.153,0.088
294.0,-9.278,-3.132,2.54,1.028,-0.225,0.069
298.0,-9.278,-3.132,2.54,1.028,-0.225,0.069
302.0,-9.365,-2.964,2.488,1.193,-0.281,0.057
305.0,-9.365,-2.964,2.488,1.193,-0.281,0.057
309.0,-9.365,-2.964,2.488,1.193,-0.281,0.057
313.0,-9.151,-2.654,2.594,1.328,-0.309,0.055
317.0,-9.151,-2.654,2.594,1.328,-0.309,0.055
321.0,-8.774,-2.509,2.495,1.399,-0.318,0.053
324.0,-8.774,-2.509,2.495,1.399,-0.318,0.053
328.0,-8.774,-2.509,2.495,1.399,-0.318,0.053
332.0,-8.661,-2.568,2.305,1.412,-0.307,0.042
336.0,-8.661,-2.568,2.305,1.412,-0.307,0.042
340.0,-8.726,-2.652,2.124,1.412,-0.307,0.042
344.0,-8.726,-2.652,2.124,1.384,-0.28,0.008
347.0,-8.726,-2.652,2.124,1.384,-0.28,0.008
351.0,-8.921,-2.641,1.867,1.324,-0.245,-0.052
355.0,-8.921,-2.641,1.867,1.324,-0.245,-0.052
359.0,-8.921,-2.641,1.867,1.324,-0.245,-0.052
363.0,-9.208,-2.596,1.727,1.233,-0.204,-0.122
367.0,-9.208,-2.596,1.727,1.233,-0.204,-0.122
371.0,-9.429,-2.768,1.743,1.125,-0.176,-0.188
375.0,-9.429,-2.768,1.743,1.125,-0.176,-0.188
379.0,-9.429,-2.768,1.743,1.125,-0.176,-0.188
382.0,-9.459,-3.13,1.761,1.026,-0.17,-0.246
386.0,-9.459,-3.13,1.761,1.026,-0.17,-0.246
390.0,-9.627,-3.562,2.21,0.956,-0.165,-0.309
394.0,-9.627,-3.562,2.21,0.956,-0.165,-0.309
398.0,-9.627,-3.562,2.21,0.956,-0.165,-0.309
402.0,-9.769,-3.832,3.039,0.932,-0.165,-0.393
406.0,-9.769,-3.832,3.039,0.932,-0.165,-0.393
410.0,-9.612,-3.863,3.815,0.953,-0.176,-0.485
414.0,-9.612,-3.863,3.815,0.953,-0.176,-0.485
418.0,-9.612,-3.863,3.815,0.953,-0.176,-0.485
422.0,-9.34,-3.857,4.674,1.003,-0.209,-0.567
425.0,-9.34,-3.857,4.674,1.003,-0.209,-0.567
429.0,-9.505,-3.753,5.427,1.075,-0.281,-0.639
433.0,-9.505,-3.753,5.427,1.075,-0.281,-0.639
437.0,-9.505,-3.753,5.427,1.075,-0.281,-0.639
441.0,-9.706,-3.696,5.953,1.154,-0.388,-0.693
445.0,-9.706,-3.696,5.953,1.154,-0.388,-0.693
449.0,-9.539,-3.845,6.392,1.154,-0.535,-0.742
453.0,-9.539,-3.845,6.392,1.221,-0.535,-0.742
457.0,-9.539,-3.845,6.392,1.221,-0.535,-0.742
461.0,-9.4,-4.091,7.036,1.277,-0.734,-0.825
465.0,-9.4,-4.091,7.036,1.277,-0.734,-0.825
468.0,-9.66,-4.327,7.609,1.277,-0.734,-0.937
472.0,-9.66,-4.327,7.609,1.328,-0.96,-0.937
476.0,-9.66,-4.327,7.609,1.328,-0.96,-0.937
480.0,-10.129,-4.496,8.132,1.376,-1.17,-1.045
484.0,-10.129,-4.496,8.132,1.376,-1.17,-1.045
488.0,-10.381,-4.787,8.716,1.376,-1.17,-1.128
492.0,-10.381,-4.787,8.716,1.416,-1.373,-1.128
496.0,-10.381,-4.787,8.716,1.416,-1.373,-1.128
500.0,-10.451,-5.173,9.139,1.451,-1.587,-1.195
504.0,-10.451,-5.173,9.139,1.451,-1.587,-1.195
508.0,-10.528,-5.46,9.419,1.451,-1.799,-1.26
512.0,-10.528,-5.46,9.419,1.487,-1.799,-1.26
516.0,-10.528,-5.46,9.419,1.487,-1.799,-1.26
520.0,-10.643,-5.568,9.709,1.519,-2.001,-1.327
524.0,-10.643,-5.568,9.709,1.519,-2.001,-1.327
528.0,-10.716,-5.618,10.046,1.533,-2.2,-1.396
532.0,-10.716,-5.618,10.046,1.533,-2.2,-1.396
536.0,-10.716,-5.618,10.046,1.533,-2.2,-1.396
540.0,-10.726,-5.695,10.449,1.516,-2.392,-1.472
544.0,-10.726,-5.695,10.449,1.516,-2.392,-1.472
548.0,-10.449,-5.681,10.688,1.483,-2.568,-1.562
553.0,-10.449,-5.681,10.688,1.483,-2.568,-1.562
557.0,-10.449,-5.681,10.801,1.483,-2.568,-1.562
561.0,-10.095,-5.63,10.801,1.445,-2.72,-1.665
565.0,-10.095,-5.63,10.801,1.445,-2.72,-1.665
569.0,-9.931,-5.673,10.805,1.402,-2.846,-1.777
573.0,-9.931,-5.673,10.805,1.402,-2.846,-1.777
577.0,-9.904,-5.57,10.813,1.402,-2.846,-1.777
581.0,-9.904,-5.57,10.813,1.353,-2.963,-1.893
585.0,-9.904,-5.57,10.813,1.353,-2.963,-1.893
589.0,-9.896,-5.344,10.82,1.299,-3.101,-2.001
593.0,-9.896,-5.344,10.82,1.299,-3.101,-2.001
597.0,-9.82,-5.293,10.859,1.299,-3.101,-2.095
601.0,-9.82,-5.293,10.859,1.229,-3.268,-2.095
605.0,-9.82,-5.293,10.859,1.229,-3.268,-2.095
609.0,-9.812,-5.518,10.984,1.135,-3.441,-2.174
613.0,-9.812,-5.518,10.984,1.135,-3.441,-2.174
617.0,-9.614,-5.761,11.213,1.032,-3.605,-2.242
621.0,-9.614,-5.761,11.213,1.032,-3.605,-2.242
625.0,-9.614,-5.761,11.213,1.032,-3.605,-2.242
629.0,-9.237,-6.042,11.328,0.943,-3.776,-2.308
633.0,-9.237,-6.042,11.328,0.943,-3.776,-2.308
637.0,-8.879,-6.588,11.275,0.884,-3.937,-2.372
641.0,-8.879,-6.588,11.275,0.884,-3.937,-2.372
645.0,-8.879,-6.588,11.275,0.884,-3.937,-2.372
649.0,-8.607,-7.098,11.168,0.866,-4.058,-2.429
653.0,-8.607,-7.098,11.168,0.866,-4.058,-2.429
657.0,-8.218,-7.429,10.93,0.901,-4.149,-2.479
661.0,-8.218,-7.429,10.93,0.901,-4.149,-2.479
665.0,-8.218,-7.429,10.93,0.901,-4.149,-2.479
669.0,-7.664,-7.705,10.745,0.995,-4.227,-2.539
673.0,-7.664,-7.705,10.745,0.995,-4.227,-2.539
677.0,-7.182,-7.891,10.644,1.143,-4.285,-2.612
681.0,-7.182,-7.891,10.644,1.143,-4.285,-2.612
685.0,-7.182,-7.891,10.644,1.143,-4.285,-2.612
689.0,-6.994,-8.137,10.555,1.338,-4.311,-2.68
693.0,-6.994,-8.137,10.555,1.338,-4.311,-2.68
697.0,-6.826,-8.248,10.411,1.582,-4.322,-2.737
701.0,-6.826,-8.248,10.411,1.582,-4.322,-2.737
705.0,-6.826,-8.248,10.411,1.582,-4.322,-2.737
709.0,-6.58,-8.232,10.405,1.884,-4.343,-2.794
713.0,-6.58,-8.232,10.405,1.884,-4.343,-2.794
717.0,-6.355,-8.142,10.213,2.247,-4.387,-2.854
721.0,-6.355,-8.142,10.213,2.247,-4.387,-2.854
725.0,-6.355,-8.142,9.794,2.247,-4.387,-2.854
728.0,-6.059,-8.12,9.794,2.662,-4.423,-2.895
732.0,-6.059,-8.12,9.794,2.662,-4.423,-2.895
736.0,-5.753,-8.26,9.306,3.09,-4.439,-2.894
740.0,-5.753,-8.26,9.306,3.09,-4.439,-2.894
744.0,-5.753,-8.26,9.306,3.09,-4.439,-2.894
748.0,-5.389,-8.15,8.752,3.494,-4.442,-2.857
752.0,-5.389,-8.15,8.752,3.494,-4.442,-2.857
756.0,-4.841,-7.886,8.328,3.857,-4.431,-2.804
760.0,-4.841,-7.886,8.328,3.857,-4.431,-2.804
764.0,-4.841,-7.886,8.328,3.857,-4.431,-2.804
768.0,-4.266,-7.489,7.912,4.173,-4.408,-2.757
771.0,-4.266,-7.489,7.912,4.173,-4.408,-2.757
775.0,-3.738,-7.076,7.633,4.425,-4.364,-2.714
779.0,-3.738,-7.076,7.633,4.425,-4.364,-2.714
783.0,-3.738,-7.076,7.633,4.425,-4.364,-2.714
787.0,-3.419,-6.766,7.38,4.605,-4.301,-2.676
791.0,-3.419,-6.766,7.38,4.605,-4.301,-2.676
795.0,-3.187,-6.121,7.009,4.724,-4.224,-2.664
799.0,-3.187,-6.121,7.009,4.724,-4.224,-2.664
803.0,-3.187,-6.121,7.009,4.724,-4.224,-2.664
807.0,-2.789,-5.317,6.483,4.804,-4.143,-2.697
811.0,-2.789,-5.317,6.483,4.804,-4.143,-2.697
814.0,-2.332,-4.497,5.709,4.841,-4.057,-2.775
818.0,-2.332,-4.497,5.709,4.841,-4.057,-2.775
822.0,-2.332,-4.497,5.709,4.841,-4.057,-2.775
826.0,-1.89,-3.74,4.814,4.806,-3.951,-2.875
830.0,-1.89,-3.74,4.814,4.806,-3.951,-2.875
834.0,-1.414,-3.229,4.057,4.691,-3.805,-2.986
838.0,-1.414,-3.229,4.057,4.691,-3.805,-2.986
842.0,-1.414,-3.229,4.057,4.691,-3.805,-2.986
846.0,-0.99,-2.88,3.618,4.503,-3.611,-3.115
850.0,-0.99,-2.88,3.618,4.503,-3.611,-3.115
853.0,-0.769,-2.607,3.394,4.503,-3.611,-3.268
857.0,-0.769,-2.607,3.394,4.265,-3.397,-3.268
861.0,-0.769,-2.607,3.394,4.265,-3.397,-3.268
865.0,-0.854,-2.352,3.159,4.005,-3.19,-3.438
869.0,-0.854,-2.352,3.159,4.005,-3.19,-3.438
873.0,-1.027,-2.122,2.82,4.005,-3.19,-3.438
877.0,-1.027,-2.122,2.82,3.744,-3.0,-3.599
881.0,-1.027,-2.122,2.82,3.744,-3.0,-3.599
885.0,-1.058,-1.89,2.49,3.498,-2.823,-3.728
889.0,-1.058,-1.89,2.49,3.498,-2.823,-3.728
893.0,-1.082,-1.63,2.093,3.498,-2.823,-3.728
896.0,-1.082,-1.63,2.093,3.275,-2.655,-3.82
900.0,-1.082,-1.63,2.093,3.275,-2.655,-3.82
904.0,-1.091,-1.344,1.658,3.068,-2.488,-3.866
908.0,-1.091,-1.344,1.658,3.068,-2.488,-3.866
912.0,-1.091,-1.344,1.402,3.068,-2.488,-3.866
916.0,-1.091,-0.918,1.402,2.859,-2.321,-3.87
920.0,-1.091,-0.918,1.402,2.859,-2.321,-3.87
924.0,-1.316,-0.035,1.263,2.667,-2.165,-3.84
928.0,-1.316,-0.035,1.263,2.667,-2.165,-3.84
932.0,-1.316,-0.035,1.263,2.667,-2.165,-3.84
936.0,-1.719,1.149,1.029,2.505,-2.037,-3.751
939.0,-1.719,1.149,1.029,2.505,-2.037,-3.751
943.0,-1.887,2.593,0.895,2.371,-1.94,-3.586
947.0,-1.887,2.593,0.895,2.371,-1.94,-3.586
951.0,-1.887,2.593,0.895,2.371,-1.94,-3.586
955.0,-1.911,4.043,0.751,2.266,-1.864,-3.348
958.0,-1.911,4.043,0.751,2.266,-1.864,-3.348
962.0,-1.704,5.597,0.702,2.266,-1.8,-3.051
966.0,-1.704,5.597,0.702,2.185,-1.8,-3.051
970.0,-1.704,5.597,0.702,2.185,-1.8,-3.051
974.0,-1.41,7.03,0.756,2.111,-1.742,-2.688
978.0,-1.41,7.03,0.756,2.111,-1.742,-2.688
981.0,-1.41,8.185,0.949,2.111,-1.742,-2.688
985.0,-1.095,8.185,0.949,2.023,-1.691,-2.281
989.0,-1.095,8.185,0.949,2.023,-1.691,-2.281
993.0,-0.811,9.268,1.274,1.923,-1.646,-1.883
997.0,-0.811,9.268,1.274,1.923,-1.646,-1.883
1000.0,-0.811,9.268,1.274,1.923,-1.646,-1.883
1004.0,-0.56,10.436,1.577,1.817,-1.614,-1.516
1008.0,-0.56,10.436,1.577,1.817,-1.614,-1.516
1012.0,-0.215,11.774,1.816,1.691,-1.588,-1.151
1016.0,-0.215,11.774,1.816,1.691,-1.588,-1.151
1020.0,-0.215,11.774,1.816,1.691,-1.588,-1.151
1024.0,0.245,13.055,2.049,1.521,-1.55,-0.748
1028.0,0.245,13.055,2.049,1.521,-1.55,-0.748
1032.0,0.721,14.158,2.411,1.297,-1.484,-0.345
1036.0,0.721,14.158,2.411,1.297,-1.484,-0.345
1040.0,0.721,14.158,2.411,1.297,-1.484,-0.345
1044.0,1.027,15.168,2.728,1.032,-1.413,-0.004
1048.0,1.027,15.168,2.728,1.032,-1.413,-0.004
1052.0,1.34,15.896,2.937,0.746,-1.351,0.277
1055.0,1.34,15.896,2.937,0.746,-1.351,0.277
1059.0,1.34,15.896,2.937,0.746,-1.351,0.277
1063.0,1.811,16.151,3.044,0.471,-1.29,0.525
1067.0,1.811,16.151,3.044,0.471,-1.29,0.525
1071.0,2.336,16.012,3.237,0.471,-1.206,0.763
1075.0,2.336,16.012,3.237,0.247,-1.206,0.763
1078.0,2.336,16.012,3.237,0.247,-1.206,0.763
1082.0,2.73,15.617,3.451,0.106,-1.092,1.0
1086.0,2.73,15.617,3.451,0.106,-1.092,1.0
1090.0,2.73,14.965,3.748,0.106,-1.092,1.0
1094.0,2.922,14.965,3.748,0.065,-0.953,1.243
1097.0,2.922,14.965,3.748,0.065,-0.953,1.243
1101.0,2.978,14.317,4.07,0.113,-0.812,1.469
1105.0,2.978,14.317,4.07,0.113,-0.812,1.469
1109.0,2.978,14.317,4.07,0.113,-0.812,1.469
1113.0,3.016,13.879,4.371,0.239,-0.689,1.665
1117.0,3.016,13.879,4.371,0.239,-0.689,1.665
1120.0,3.036,13.827,4.449,0.425,-0.574,1.846
1124.0,3.036,13.827,4.449,0.425,-0.574,1.846
1128.0,3.036,13.827,4.449,0.425,-0.574,1.846
1132.0,3.028,13.909,4.591,0.638,-0.453,2.068
1136.0,3.028,13.909,4.591,0.638,-0.453,2.068
1139.0,2.953,14.079,4.805,0.638,-0.453,2.068
1143.0,2.953,14.079,4.805,0.863,-0.338,2.322
1147.0,2.953,14.079,4.805,0.863,-0.338,2.322
1151.0,2.933,14.249,4.941,1.078,-0.256,2.571
1155.0,2.933,14.249,4.941,1.078,-0.256,2.571
1159.0,2.933,14.249,4.941,1.078,-0.256,2.571
1162.0,2.83,14.408,4.92,1.254,-0.199,2.814
1166.0,2.83,14.408,4.92,1.254,-0.199,2.814
1170.0,2.609,14.404,4.706,1.361,-0.147,3.093
1174.0,2.609,14.404,4.706,1.361,-0.147,3.093
1178.0,2.609,14.404,4.706,1.361,-0.147,3.093
1182.0,2.243,14.176,4.295,1.39,-0.086,3.401
1185.0,2.243,14.176,4.295,1.39,-0.086,3.401
1189.0,1.817,14.103,3.811,1.39,-0.01,3.724
1193.0,1.817,14.103,3.811,1.344,-0.01,3.724
1197.0,1.817,14.103,3.811,1.344,-0.01,3.724
1201.0,1.531,13.901,3.413,1.229,0.08,4.11
1204.0,1.531,13.901,3.413,1.229,0.08,4.11
1208.0,1.531,13.901,3.132,1.229,0.08,4.11
1212.0,1.384,13.466,3.132,1.085,0.179,4.539
1216.0,1.384,13.466,3.132,1.085,0.179,4.539
1219.0,1.339,12.706,2.946,0.948,0.281,4.917
1223.0,1.339,12.706,2.946,0.948,0.281,4.917
1227.0,1.339,12.706,2.946,0.948,0.281,4.917
1230.0,1.349,11.754,3.028,0.828,0.378,5.013
1234.0,1.349,11.754,3.028,0.828,0.378,5.013
1238.0,1.349,10.879,3.082,0.828,0.378,5.013
1242.0,1.054,10.879,3.082,0.736,0.459,5.013
1245.0,1.054,10.879,3.082,0.736,0.459,5.013
1249.0,0.417,10.185,3.007,0.662,0.519,5.013
1253.0,0.417,10.185,3.007,0.662,0.519,5.013
1257.0,0.417,10.185,3.007,0.662,0.519,5.013
1260.0,-0.184,9.455,2.784,0.573,0.577,5.013
1264.0,-0.184,9.455,2.784,0.573,0.577,5.013
1268.0,-0.423,8.524,2.574,0.573,0.577,5.013
1272.0,-0.423,8.524,2.574,0.443,0.657,5.013
1275.0,-0.423,8.524,2.574,0.443,0.657,5.013
1279.0,-0.257,7.317,2.474,0.264,0.769,5.013
1283.0,-0.257,7.317,2.474,0.264,0.769,5.013
1286.0,-0.257,7.317,2.474,0.264,0.769,5.013
1290.0,0.209,6.163,2.442,0.027,0.895,5.013
1294.0,0.209,6.163,2.442,0.027,0.895,5.013
1297.0,0.526,5.06,2.599,0.027,0.895,5.013
1301.0,0.526,5.06,2.599,-0.283,1.021,5.013
1305.0,0.526,5.06,2.599,-0.283,1.021,5.013
1309.0,0.191,3.876,2.819,-0.662,1.131,5.013
1312.0,0.191,3.876,2.819,-0.662,1.131,5.013
1316.0,0.191,3.876,2.819,-0.662,1.131,5.013
1320.0,-0.289,2.243,2.813,-1.08,1.213,5.013
1324.0,-0.289,2.243,2.813,-1.08,1.213,5.013
1327.0,-0.389,0.103,3.427,-1.08,1.293,5.013
1331.0,-0.389,0.103,3.427,-1.489,1.293,5.013
1335.0,-0.389,0.103,3.427,-1.489,1.293,5.013
1339.0,-0.858,-2.597,5.057,-1.838,1.356,5.013
1343.0,-0.858,-2.597,5.057,-1.838,1.356,5.013
1347.0,-2.176,-5.158,6.182,-1.838,1.356,5.013
1351.0,-2.176,-5.158,6.182,-2.115,1.355,5.012
1355.0,-2.176,-5.158,6.182,-2.115,1.355,5.012
1358.0,-3.832,-7.132,6.553,-2.325,1.292,4.847
1362.0,-3.832,-7.132,6.553,-2.325,1.292,4.847
1366.0,-3.832,-8.392,5.982,-2.325,1.292,4.847
1370.0,-4.63,-8.392,5.982,-2.48,1.142,4.275
1374.0,-4.63,-8.392,5.982,-2.48,1.142,4.275
1378.0,-3.86,-9.071,5.019,-2.586,0.962,3.684
1382.0,-3.86,-9.071,5.019,-2.586,0.962,3.684
1386.0,-3.86,-9.071,4.345,-2.586,0.962,3.684
1390.0,-2.164,-9.843,4.345,-2.65,0.821,3.2
1394.0,-2.164,-9.843,4.345,-2.65,0.821,3.2
1397.0,-0.425,-11.067,4.128,-2.643,0.704,2.814
1401.0,-0.425,-11.067,4.128,-2.643,0.704,2.814
1405.0,-0.425,-11.067,4.128,-2.643,0.704,2.814
1409.0,0.811,-12.51,4.222,-2.526,0.571,2.492
1413.0,0.811,-12.51,4.222,-2.526,0.571,2.492
1417.0,1.558,-14.216,4.469,-2.298,0.393,2.187
1421.0,1.558,-14.216,4.469,-2.298,0.393,2.187
1425.0,1.558,-14.216,4.469,-2.298,0.393,2.187
1429.0,1.953,-15.798,3.998,-1.929,0.204,1.888
1433.0,1.953,-15.798,3.998,-1.929,0.204,1.888
1437.0,2.67,-16.723,3.656,-1.403,0.096,1.616
1441.0,2.67,-16.723,3.656,-1.403,0.096,1.616
1445.0,2.67,-16.723,3.656,-1.403,0.096,1.616
1449.0,3.93,-16.771,3.717,-0.752,0.063,1.379
1452.0,3.93,-16.771,3.717,-0.752,0.063,1.379
1456.0,5.247,-15.925,3.992,-0.057,0.063,1.189
1460.0,5.247,-15.925,3.992,-0.057,0.063,1.189
1464.0,5.247,-15.925,3.992,-0.057,0.063,1.189
1468.0,6.535,-14.746,4.037,0.618,0.065,1.047
1472.0,6.535,-14.746,4.037,0.618,0.065,1.047
1476.0,7.503,-13.524,4.225,1.232,0.054,0.953
1480.0,7.503,-13.524,4.225,1.232,0.054,0.953
1483.0,7.503,-13.524,4.225,1.232,0.054,0.953
1487.0,8.192,-12.379,4.323,1.743,0.02,0.887
1491.0,8.192,-12.379,4.323,1.743,0.02,0.887
1495.0,8.487,-11.249,4.301,1.743,0.02,0.887
1499.0,8.487,-11.249,4.301,2.137,-0.007,0.836
1503.0,8.487,-11.249,4.301,2.137,-0.007,0.836
1506.0,8.509,-10.205,4.491,2.398,-0.002,0.783
1510.0,8.509,-10.205,4.491,2.398,-0.002,0.783
1514.0,8.509,-10.205,4.53,2.398,-0.002,0.783
1518.0,8.21,-9.132,4.53,2.522,0.025,0.711
1522.0,8.21,-9.132,4.53,2.522,0.025,0.711
1526.0,8.166,-8.133,4.727,2.519,0.052,0.623
1529.0,8.166,-8.133,4.727,2.519,0.052,0.623
1533.0,8.166,-8.133,4.727,2.519,0.052,0.623
1537.0,8.307,-7.323,5.126,2.413,0.042,0.533
1541.0,8.307,-7.323,5.126,2.413,0.042,0.533
1544.0,8.164,-6.629,4.993,2.413,0.042,0.533
1548.0,8.164,-6.629,4.993,2.23,0.019,0.436
1552.0,8.164,-6.629,4.993,2.23,0.019,0.436
1555.0,7.988,-6.047,4.588,1.983,0.014,0.331
1559.0,7.988,-6.047,4.588,1.983,0.014,0.331
1563.0,7.988,-6.047,4.588,1.983,0.014,0.331
1567.0,8.104,-5.515,4.631,1.698,-0.001,0.223
1570.0,8.104,-5.515,4.631,1.698,-0.001,0.223
1574.0,8.087,-4.953,4.73,1.413,-0.045,0.116
1578.0,8.087,-4.953,4.73,1.413,-0.045,0.116
1582.0,8.087,-4.953,4.73,1.413,-0.045,0.116
1586.0,7.901,-4.471,4.62,1.139,-0.094,0.021
1590.0,7.901,-4.471,4.62,1.139,-0.094,0.021
1593.0,7.901,-4.076,4.469,1.139,-0.094,0.021
1597.0,7.771,-4.076,4.469,0.872,-0.15,-0.052
1601.0,7.771,-4.076,4.469,0.872,-0.15,-0.052
1605.0,7.857,-3.827,4.31,0.622,-0.21,-0.098
1609.0,7.857,-3.827,4.31,0.622,-0.21,-0.098
1613.0,7.857,-3.827,4.357,0.622,-0.21,-0.098
1617.0,8.054,-3.723,4.357,0.408,-0.249,-0.125
1621.0,8.054,-3.723,4.357,0.408,-0.249,-0.125
1625.0,8.051,-3.777,4.416,0.243,-0.252,-0.137
1628.0,8.051,-3.777,4.416,0.243,-0.252,-0.137
1632.0,8.051,-3.777,4.416,0.243,-0.252,-0.137
1636.0,7.803,-3.753,4.555,0.138,-0.218,-0.132
1640.0,7.803,-3.753,4.555,0.138,-0.218,-0.132
1644.0,7.435,-3.813,4.968,0.093,-0.173,-0.099
1648.0,7.435,-3.813,4.968,0.093,-0.173,-0.099
1652.0,7.435,-3.813,4.968,0.093,-0.173,-0.099
1656.0,7.01,-3.922,5.262,0.099,-0.14,-0.047
1660.0,7.01,-3.922,5.262,0.099,-0.14,-0.047
1664.0,6.668,-4.014,5.222,0.147,-0.105,0.011
1667.0,6.668,-4.014,5.222,0.147,-0.105,0.011
1671.0,6.668,-4.014,5.222,0.147,-0.105,0.011
1675.0,6.625,-4.021,5.171,0.224,-0.074,0.067
1679.0,6.625,-4.021,5.171,0.224,-0.074,0.067
1683.0,6.963,-4.009,4.994,0.224,-0.055,0.107
1687.0,6.963,-4.009,4.994,0.32,-0.055,0.107
1690.0,6.963,-4.009,4.994,0.32,-0.055,0.107
1694.0,7.449,-3.922,4.896,0.42,-0.035,0.118
1698.0,7.449,-3.922,4.896,0.42,-0.035,0.118
1702.0,7.449,-3.922,4.842,0.42,-0.035,0.118
1706.0,7.893,-3.723,4.842,0.514,-0.029,0.108
1709.0,7.893,-3.723,4.842,0.514,-0.029,0.108
1713.0,8.289,-3.428,4.709,0.594,-0.04,0.089
1717.0,8.289,-3.428,4.709,0.594,-0.04,0.089
1721.0,8.289,-3.428,4.709,0.594,-0.04,0.089
1725.0,8.658,-3.127,4.628,0.653,-0.053,0.072
1729.0,8.658,-3.127,4.628,0.653,-0.053,0.072
1732.0,8.765,-2.834,4.406,0.683,-0.061,0.063
1736.0,8.765,-2.834,4.406,0.683,-0.061,0.063
1740.0,8.765,-2.834,4.406,0.683,-0.061,0.063
1744.0,8.651,-2.587,4.077,0.67,-0.049,0.071
1748.0,8.651,-2.587,4.077,0.67,-0.049,0.071
1751.0,8.495,-2.504,3.845,0.67,-0.049,0.071
1755.0,8.495,-2.504,3.845,0.614,-0.012,0.089
1759.0,8.495,-2.504,3.845,0.614,-0.012,0.089
1763.0,8.163,-2.459,3.596,0.522,0.046,0.11
1767.0,8.163,-2.459,3.596,0.522,0.046,0.11
1770.0,8.163,-2.459,3.596,0.522,0.046,0.11
1774.0,7.722,-2.389,3.277,0.408,0.134,0.139
1778.0,7.722,-2.389,3.277,0.408,0.134,0.139
1782.0,7.656,-2.318,3.244,0.286,0.247,0.181
1785.0,7.656,-2.318,3.244,0.286,0.247,0.181
1789.0,7.656,-2.318,3.244,0.286,0.247,0.181
1793.0,7.853,-2.291,3.436,0.178,0.356,0.238
1797.0,7.853,-2.291,3.436,0.178,0.356,0.238
1800.0,7.853,-2.291,3.436,0.178,0.356,0.238
1804.0,7.797,-2.128,3.4,0.092,0.451,0.3
1808.0,7.797,-2.128,3.4,0.092,0.451,0.3
1811.0,7.726,-1.828,3.044,0.026,0.563,0.373
1815.0,7.726,-1.828,3.044,0.026,0.563,0.373
1819.0,7.726,-1.828,3.044,0.026,0.563,0.373
1823.0,7.897,-1.305,2.668,-0.026,0.709,0.474
1826.0,7.897,-1.305,2.668,-0.026,0.709,0.474
1830.0,7.897,-0.676,2.194,-0.026,0.709,0.474
1834.0,8.249,-0.676,2.194,-0.069,0.887,0.609
1838.0,8.249,-0.676,2.194,-0.069,0.887,0.609
1842.0,8.689,0.009,1.652,-0.109,1.109,0.781
1845.0,8.689,0.009,1.652,-0.109,1.109,0.781
1849.0,8.689,0.009,1.652,-0.109,1.109,0.781
1853.0,9.122,0.334,1.178,-0.135,1.399,0.992
1857.0,9.122,0.334,1.178,-0.135,1.399,0.992
1860.0,9.373,0.337,0.889,-0.135,1.747,1.221
1864.0,9.373,0.337,0.889,-0.139,1.747,1.221
1868.0,9.373,0.337,0.889,-0.139,1.747,1.221
1872.0,9.083,0.036,0.94,-0.123,2.122,1.444
1875.0,9.083,0.036,0.94,-0.123,2.122,1.444
1879.0,9.083,0.036,0.94,-0.123,2.122,1.444
1883.0,8.113,-0.572,1.197,-0.09,2.488,1.631
1887.0,8.113,-0.572,1.197,-0.09,2.488,1.631
1890.0,6.578,-1.244,1.39,-0.048,2.831,1.752
1894.0,6.578,-1.244,1.39,-0.048,2.831,1.752
1898.0,6.578,-1.244,1.39,-0.048,2.831,1.752
1902.0,4.889,-1.844,1.502,-0.008,3.145,1.807
1906.0,4.889,-1.844,1.502,-0.008,3.145,1.807
1910.0,3.337,-2.137,1.699,-0.008,3.145,1.808
1913.0,3.337,-2.137,1.699,0.014,3.424,1.808
1917.0,3.337,-2.137,1.699,0.014,3.424,1.808
1921.0,2.032,-2.31,1.668,0.012,3.66,1.776
1925.0,2.032,-2.31,1.668,0.012,3.66,1.776
1928.0,2.032,-2.31,1.668,0.012,3.66,1.776
1932.0,0.876,-2.188,1.587,-0.017,3.869,1.727
1936.0,0.876,-2.188,1.587,-0.017,3.869,1.727
1940.0,-0.19,-1.931,1.333,-0.067,4.058,1.692
1944.0,-0.19,-1.931,1.333,-0.067,4.058,1.692
1947.0,-0.19,-1.931,1.333,-0.067,4.058,1.692
1951.0,-1.108,-1.651,1.006,-0.131,4.242,1.688
1955.0,-1.108,-1.651,1.006,-0.131,4.242,1.688
1959.0,-1.857,-1.473,0.845,-0.131,4.43,1.719
1963.0,-1.857,-1.473,0.845,-0.199,4.43,1.719
1967.0,-1.857,-1.473,0.845,-0.199,4.43,1.719
1971.0,-2.297,-1.549,0.865,-0.25,4.605,1.786
1975.0,-2.297,-1.549,0.865,-0.25,4.605,1.786
1979.0,-2.437,-1.886,1.066,-0.25,4.605,1.877
1983.0,-2.437,-1.886,1.066,-0.25,4.756,1.877
1987.0,-2.437,-1.886,1.066,-0.25,4.756,1.877
1990.0,-2.382,-2.5,1.443,-0.161,4.886,1.967
1994.0,-2.382,-2.5,1.443,-0.161,4.886,1.967
1998.0,-2.445,-3.169,1.682,-0.161,4.886,1.967
2002.0,-2.445,-3.169,1.682,0.047,4.982,2.04
2006.0,-2.445,-3.169,1.682,0.047,4.982,2.04
2010.0,-2.858,-3.678,1.563,0.369,5.014,2.097
2014.0,-2.858,-3.678,1.563,0.369,5.014,2.097
2017.0,-2.858,-3.678,1.563,0.369,5.014,2.097
2021.0,-3.461,-4.271,1.132,0.779,5.015,2.134
2025.0,-3.461,-4.271,1.132,0.779,5.015,2.134
2029.0,-4.282,-4.78,0.511,1.265,5.015,2.129
2033.0,-4.282,-4.78,0.511,1.265,5.015,2.129
2037.0,-4.282,-4.78,0.511,1.265,5.015,2.129
2040.0,-5.375,-5.268,0.039,1.799,5.015,2.071
2044.0,-5.375,-5.268,0.039,1.799,5.015,2.071
2048.0,-6.725,-5.601,-0.049,1.799,5.015,1.947
2052.0,-6.725,-5.601,-0.049,2.354,5.015,1.947
2056.0,-6.725,-5.601,-0.049,2.354,5.015,1.947
2060.0,-8.021,-5.847,0.03,2.921,5.015,1.769
2064.0,-8.021,-5.847,0.03,2.921,5.015,1.769
2067.0,-9.108,-5.791,-0.001,2.921,5.015,1.769
2071.0,-9.108,-5.791,-0.001,3.477,5.015,1.55
2075.0,-9.108,-5.791,-0.001,3.477,5.015,1.55
2079.0,-9.875,-5.263,-0.167,3.971,5.015,1.296
2083.0,-9.875,-5.263,-0.167,3.971,5.015,1.296
2087.0,-9.875,-4.559,-0.239,3.971,5.015,1.296
2091.0,-10.437,-4.559,-0.239,4.354,5.015,1.019
2095.0,-10.437,-4.559,-0.239,4.354,5.015,1.019
2099.0,-10.838,-3.659,-0.135,4.599,5.015,0.721
2103.0,-10.838,-3.659,-0.135,4.599,5.015,0.721
2107.0,-11.151,-2.798,-0.062,4.599,5.015,0.721
2111.0,-11.151,-2.798,-0.062,4.698,5.015,0.423
2115.0,-11.151,-2.798,-0.062,4.698,5.015,0.423
2119.0,-11.566,-1.967,0.144,4.651,5.015,0.147
2123.0,-11.566,-1.967,0.144,4.651,5.015,0.147
2127.0,-12.121,-1.312,0.339,4.651,5.015,0.147
2130.0,-12.121,-1.312,0.339,4.477,5.015,-0.087
2134.0,-12.121,-1.312,0.339,4.477,5.015,-0.087
2138.0,-12.765,-1.004,0.533,4.21,5.015,-0.278
2142.0,-12.765,-1.004,0.533,4.21,5.015,-0.278
2146.0,-13.39,-1.054,0.855,4.21,5.015,-0.278
2150.0,-13.39,-1.054,0.855,3.899,5.015,-0.445
2154.0,-13.39,-1.054,0.855,3.899,5.015,-0.445
2158.0,-14.029,-1.404,1.402,3.606,5.015,-0.614
2162.0,-14.029,-1.404,1.402,3.606,5.015,-0.614
2166.0,-15.006,-1.97,2.085,3.606,5.015,-0.8
2170.0,-15.006,-1.97,2.085,3.38,5.015,-0.8
2174.0,-15.006,-1.97,2.085,3.38,5.015,-0.8
2178.0,-16.457,-2.62,2.743,3.252,5.015,-1.01
2182.0,-16.457,-2.62,2.743,3.252,5.015,-1.01
2186.0,-18.081,-2.859,3.259,3.204,5.015,-1.25
2190.0,-18.081,-2.859,3.259,3.204,5.015,-1.25
2194.0,-18.081,-2.859,3.259,3.204,5.015,-1.25
2198.0,-19.191,-2.637,3.655,3.169,5.015,-1.501
2202.0,-19.191,-2.637,3.655,3.169,5.015,-1.501
2206.0,-19.599,-1.807,3.617,3.074,5.015,-1.726
2210.0,-19.599,-1.807,3.617,3.074,5.015,-1.726
2214.0,-19.599,-1.807,3.617,3.074,5.015,-1.726
2218.0,-19.6,-1.104,3.234,2.868,5.015,-1.901
2222.0,-19.6,-1.104,3.234,2.868,5.015,-1.901
2226.0,-19.6,-0.624,2.832,2.537,5.015,-2.048
2230.0,-19.6,-0.624,2.832,2.537,5.015,-2.048
2234.0,-19.6,-0.624,2.832,2.537,5.015,-2.048
2238.0,-19.6,-0.266,2.835,2.11,5.015,-2.172
2242.0,-19.6,-0.266,2.835,2.11,5.015,-2.172
2246.0,-19.6,-0.19,3.152,1.648,5.015,-2.26
2250.0,-19.6,-0.19,3.152,1.648,5.015,-2.26
2254.0,-19.6,-0.19,3.152,1.648,5.015,-2.26
2258.0,-19.6,-0.358,3.433,1.23,4.996,-2.303
2262.0,-19.6,-0.358,3.433,1.23,4.996,-2.303
2266.0,-19.6,-0.617,3.744,0.916,4.836,-2.294
2270.0,-19.6,-0.617,3.744,0.916,4.836,-2.294
2274.0,-19.6,-0.617,3.854,0.916,4.836,-2.294
2278.0,-19.6,-0.729,3.854,0.709,4.579,-2.244
2282.0,-19.6,-0.729,3.854,0.709,4.579,-2.244
2286.0,-19.6,-0.669,4.129,0.562,4.294,-2.177
2290.0,-19.6,-0.669,4.129,0.562,4.294,-2.177
2294.0,-19.6,-0.48,4.53,0.562,4.294,-2.177
2298.0,-19.6,-0.48,4.53,0.453,3.977,-2.11
2302.0,-19.6,-0.48,4.53,0.453,3.977,-2.11
2306.0,-19.6,0.034,4.625,0.34,3.62,-2.063
2310.0,-19.6,0.034,4.625,0.34,3.62,-2.063
2314.0,-19.6,0.569,4.455,0.34,3.62,-2.063
2318.0,-19.468,0.569,4.455,0.173,3.247,-2.037
2322.0,-19.468,0.569,4.455,0.173,3.247,-2.037
2326.0,-18.861,1.012,4.376,-0.059,2.886,-2.017
2330.0,-18.861,1.012,4.376,-0.059,2.886,-2.017
2334.0,-18.861,1.338,4.57,-0.059,2.886,-2.017
2338.0,-18.063,1.338,4.57,-0.337,2.537,-1.994
2342.0,-18.063,1.338,4.57,-0.337,2.537,-1.994
2346.0,-17.061,1.455,4.563,-0.625,2.195,-1.96
2350.0,-17.061,1.455,4.563,-0.625,2.195,-1.96
2354.0,-16.428,1.136,4.473,-0.625,2.195,-1.96
2358.0,-16.428,1.136,4.473,-0.891,1.885,-1.918
2362.0,-16.428,1.136,4.473,-0.891,1.885,-1.918
2366.0,-15.75,1.204,4.38,-1.109,1.609,-1.863
2370.0,-15.75,1.204,4.38,-1.109,1.609,-1.863
2374.0,-14.861,1.158,4.314,-1.109,1.609,-1.743
2378.0,-14.861,1.158,4.314,-1.288,1.356,-1.743
2382.0,-14.861,1.158,4.314,-1.288,1.356,-1.743
2386.0,-14.363,1.097,4.288,-1.441,1.132,-1.57
2390.0,-14.363,1.097,4.288,-1.441,1.132,-1.57
2394.0,-14.43,0.9,4.248,-1.441,0.94,-1.345
2398.0,-14.43,0.9,4.248,-1.595,0.94,-1.345
2402.0,-14.43,0.9,4.248,-1.595,0.94,-1.345
2406.0,-14.365,0.633,4.289,-1.756,0.78,-1.064
2410.0,-14.365,0.633,4.289,-1.756,0.78,-1.064
2414.0,-14.193,0.349,4.356,-1.925,0.64,-0.749
2418.0,-14.193,0.349,4.356,-1.925,0.64,-0.749
2422.0,-14.193,0.349,4.356,-1.925,0.64,-0.749
2426.0,-14.035,0.064,4.348,-2.107,0.522,-0.433
2430.0,-14.035,0.064,4.348,-2.107,0.522,-0.433
2433.0,-13.773,-0.246,4.355,-2.302,0.433,-0.146
2438.0,-13.773,-0.246,4.355,-2.302,0.433,-0.146
2442.0,-13.773,-0.246,4.355,-2.302,0.433,-0.146
2446.0,-13.03,-0.553,4.39,-2.51,0.35,0.073
2450.0,-13.03,-0.553,4.39,-2.51,0.35,0.073
2454.0,-11.948,-0.772,4.308,-2.72,0.251,0.201
2458.0,-11.948,-0.772,4.308,-2.72,0.251,0.201
2462.0,-11.948,-0.772,4.308,-2.72,0.251,0.201
2466.0,-10.906,-0.851,4.125,-2.918,0.147,0.245
2470.0,-10.906,-0.851,4.125,-2.918,0.147,0.245
2474.0,-10.05,-0.866,3.846,-3.091,0.053,0.236
2478.0,-10.05,-0.866,3.846,-3.091,0.053,0.236
2482.0,-10.05,-0.866,3.503,-3.091,0.053,0.236
2486.0,-9.42,-0.706,3.503,-3.23,-0.017,0.204
2490.0,-9.42,-0.706,3.503,-3.23,-0.017,0.204
2494.0,-9.102,-0.624,3.345,-3.337,-0.072,0.196
2498.0,-9.102,-0.624,3.345,-3.337,-0.072,0.196
2502.0,-9.126,-0.726,3.252,-3.337,-0.072,0.196
2506.0,-9.126,-0.726,3.252,-3.415,-0.134,0.222
2510.0,-9.126,-0.726,3.252,-3.415,-0.134,0.222
2514.0,-9.173,-0.863,3.246,-3.457,-0.208,0.283
2518.0,-9.173,-0.863,3.246,-3.457,-0.208,0.283
2522.0,-9.09,-1.055,3.06,-3.457,-0.208,0.369
2526.0,-9.09,-1.055,3.06,-3.465,-0.309,0.369
2530.0,-9.09,-1.055,3.06,-3.465,-0.309,0.369
2534.0,-9.075,-1.292,2.804,-3.449,-0.423,0.464
2538.0,-9.075,-1.292,2.804,-3.449,-0.423,0.464
2542.0,-9.237,-1.546,2.422,-3.449,-0.529,0.544
2546.0,-9.237,-1.546,2.422,-3.418,-0.529,0.544
2550.0,-9.237,-1.546,2.422,-3.418,-0.529,0.544
2554.0,-9.659,-1.791,2.047,-3.381,-0.613,0.607
2558.0,-9.659,-1.791,2.047,-3.381,-0.613,0.607
2562.0,-10.4,-2.054,1.784,-3.351,-0.679,0.658
2566.0,-10.4,-2.054,1.784,-3.351,-0.679,0.658
2570.0,-10.4,-2.054,1.784,-3.351,-0.679,0.658
2574.0,-11.265,-2.299,1.59,-3.335,-0.741,0.706
2578.0,-11.265,-2.299,1.59,-3.335,-0.741,0.706
2582.0,-12.229,-2.547,1.481,-3.328,-0.814,0.754
2586.0,-12.229,-2.547,1.481,-3.328,-0.814,0.754
2590.0,-12.229,-2.547,1.397,-3.328,-0.814,0.754
2594.0,-12.995,-2.789,1.397,-3.325,-0.908,0.794
2598.0,-12.995,-2.789,1.397,-3.325,-0.908,0.794
2602.0,-13.064,-2.938,1.248,-3.325,-1.024,0.806
2606.0,-13.064,-2.938,1.248,-3.325,-1.024,0.806
2610.0,-12.61,-3.013,1.129,-3.325,-1.024,0.767
2615.0,-12.61,-3.013,1.129,-3.324,-1.14,0.767
2619.0,-12.61,-3.013,1.129,-3.324,-1.14,0.767
2623.0,-12.136,-2.987,0.99,-3.312,-1.224,0.663
2627.0,-12.136,-2.987,0.99,-3.312,-1.224,0.663
2631.0,-11.709,-2.876,0.909,-3.28,-1.258,0.508
2635.0,-11.709,-2.876,0.909,-3.28,-1.258,0.508
2639.0,-11.709,-2.876,0.909,-3.28,-1.258,0.508
2643.0,-11.282,-2.814,0.924,-3.221,-1.259,0.32
2647.0,-11.282,-2.814,0.924,-3.221,-1.259,0.32
2651.0,-10.915,-2.748,0.909,-3.133,-1.242,0.105
2655.0,-10.915,-2.748,0.909,-3.133,-1.242,0.105
2659.0,-10.915,-2.65,0.963,-3.133,-1.242,0.105
2664.0,-10.687,-2.65,0.963,-3.017,-1.215,-0.118
2668.0,-10.687,-2.65,0.963,-3.017,-1.215,-0.118
2672.0,-10.534,-2.57,1.03,-2.868,-1.199,-0.332
2676.0,-10.534,-2.57,1.03,-2.868,-1.199,-0.332
2680.0,-10.31,-2.517,0.982,-2.689,-1.202,-0.522
2684.0,-10.31,-2.517,0.982,-2.689,-1.202,-0.522
2689.0,-10.31,-2.517,0.982,-2.689,-1.202,-0.522
2693.0,-10.173,-2.459,0.861,-2.487,-1.217,-0.686
2697.0,-10.173,-2.459,0.861,-2.487,-1.217,-0.686
2701.0,-10.114,-2.383,0.53,-2.273,-1.224,-0.823
2705.0,-10.114,-2.383,0.53,-2.273,-1.224,-0.823
2709.0,-10.074,-2.322,0.032,-2.273,-1.199,-0.934
2714.0,-10.074,-2.322,0.032,-2.064,-1.199,-0.934
2718.0,-10.074,-2.322,0.032,-2.064,-1.199,-0.934
2722.0,-10.026,-2.28,-0.359,-1.873,-1.127,-1.025
2726.0,-10.026,-2.28,-0.359,-1.873,-1.127,-1.025
2730.0,-10.018,-2.307,-0.552,-1.703,-1.023,-1.104
2735.0,-10.018,-2.307,-0.552,-1.703,-1.023,-1.104
2739.0,-10.148,-2.396,-0.493,-1.703,-1.023,-1.178
2743.0,-10.148,-2.396,-0.493,-1.545,-0.911,-1.178
2747.0,-10.148,-2.396,-0.493,-1.545,-0.911,-1.178
2752.0,-10.317,-2.517,-0.379,-1.388,-0.82,-1.249
2756.0,-10.317,-2.517,-0.379,-1.388,-0.82,-1.249
2760.0,-10.405,-2.611,-0.321,-1.23,-0.764,-1.318
2764.0,-10.405,-2.611,-0.321,-1.23,-0.764,-1.318
2769.0,-10.308,-2.654,-0.312,-1.23,-0.738,-1.379
2773.0,-10.308,-2.654,-0.312,-1.073,-0.738,-1.379
2777.0,-10.308,-2.654,-0.312,-1.073,-0.738,-1.379
2781.0,-10.041,-2.627,-0.412,-0.92,-0.732,-1.434
2786.0,-10.041,-2.627,-0.412,-0.92,-0.732,-1.434
2790.0,-9.726,-2.563,-0.619,-0.771,-0.72,-1.479
2794.0,-9.726,-2.563,-0.619,-0.771,-0.72,-1.479
2798.0,-9.494,-2.463,-0.78,-0.771,-0.683,-1.508
2802.0,-9.494,-2.463,-0.78,-0.625,-0.683,-1.508
2807.0,-9.494,-2.463,-0.78,-0.625,-0.683,-1.508
2811.0,-9.512,-2.395,-0.903,-0.479,-0.628,-1.508
2815.0,-9.512,-2.395,-0.903,-0.479,-0.628,-1.508
2819.0,-9.841,-2.355,-1.003,-0.331,-0.567,-1.473
2823.0,-9.841,-2.355,-1.003,-0.331,-0.567,-1.473
2827.0,-10.255,-2.309,-1.032,-0.331,-0.567,-1.473
2832.0,-10.255,-2.309,-1.032,-0.177,-0.515,-1.397
2836.0,-10.255,-2.309,-1.032,-0.177,-0.515,-1.397
2840.0,-10.534,-2.292,-1.07,-0.024,-0.485,-1.28
2844.0,-10.534,-2.292,-1.07,-0.024,-0.485,-1.28
2849.0,-10.594,-2.284,-1.167,0.126,-0.478,-1.131
2853.0,-10.594,-2.284,-1.167,0.126,-0.478,-1.131
2857.0,-10.463,-2.243,-1.278,0.126,-0.478,-1.131
2861.0,-10.463,-2.243,-1.278,0.264,-0.477,-0.968
2865.0,-10.463,-2.243,-1.278,0.264,-0.477,-0.968
2870.0,-10.13,-2.243,-1.28,0.385,-0.459,-0.795
2874.0,-10.13,-2.243,-1.28,0.385,-0.459,-0.795
2878.0,-9.812,-2.306,-1.147,0.488,-0.425,-0.627
2882.0,-9.812,-2.306,-1.147,0.488,-0.425,-0.627
2886.0,-9.812,-2.306,-1.147,0.488,-0.425,-0.627
2890.0,-9.666,-2.366,-1.024,0.576,-0.38,-0.484
2894.0,-9.666,-2.366,-1.024,0.576,-0.38,-0.484
2898.0,-9.587,-2.355,-0.89,0.652,-0.33,-0.378
2902.0,-9.587,-2.355,-0.89,0.652,-0.33,-0.378
2906.0,-9.225,-2.256,-0.654,0.652,-0.33,-0.378
2910.0,-9.225,-2.256,-0.654,0.716,-0.289,-0.308
2915.0,-9.225,-2.256,-0.654,0.716,-0.289,-0.308
2919.0,-8.623,-2.104,-0.457,0.775,-0.266,-0.265
2923.0,-8.623,-2.104,-0.457,0.775,-0.266,-0.265
2927.0,-7.99,-1.928,-0.446,0.835,-0.245,-0.24
2931.0,-7.99,-1.928,-0.446,0.835,-0.245,-0.24
2935.0,-7.99,-1.928,-0.446,0.835,-0.245,-0.24
2939.0,-7.384,-1.705,-0.515,0.897,-0.2,-0.224
2943.0,-7.384,-1.705,-0.515,0.897,-0.2,-0.224
2947.0,-6.849,-1.52,-0.655,0.962,-0.123,-0.203
2951.0,-6.849,-1.52,-0.655,0.962,-0.123,-0.203
2955.0,-6.849,-1.52,-0.765,0.962,-0.123,-0.203
2959.0,-6.502,-1.377,-0.765,1.025,-0.023,-0.169
2964.0,-6.502,-1.377,-0.765,1.025,-0.023,-0.169
2968.0,-6.501,-1.325,-0.815,1.082,0.088,-0.11
2972.0,-6.501,-1.325,-0.815,1.082,0.088,-0.11
2976.0,-6.864,-1.324,-0.844,1.082,0.088,-0.11
2980.0,-6.864,-1.324,-0.844,1.132,0.196,-0.025
2984.0,-6.864,-1.324,-0.844,1.132,0.196,-0.025
2988.0,-7.361,-1.394,-0.835,1.168,0.291,0.084
2991.0,-7.361,-1.394,-0.835,1.168,0.291,0.084
2995.0,-7.691,-1.479,-0.706,1.168,0.291,0.084
2999.0,-7.691,-1.479,-0.706,1.186,0.362,0.206
