deltaTime,Acc_X,Acc_Y,Acc_Z,Gyro_X,Gyro_Y,Gyro_Z
0.0,-7.943,-1.86,4.482,0.325,0.091,-0.11
3.0,-7.943,-1.86,4.482,0.325,0.091,-0.11
6.0,-7.943,-1.86,4.482,0.325,0.091,-0.11
9.0,-8.196,-1.927,4.461,0.325,0.091,-0.11
12.0,-8.196,-1.927,4.461,0.269,0.116,-0.098
15.0,-8.196,-1.927,4.461,0.269,0.116,-0.098
18.0,-8.196,-1.927,4.461,0.269,0.116,-0.098
21.0,-8.425,-2.198,4.486,0.216,0.128,-0.079
24.0,-8.425,-2.198,4.486,0.216,0.128,-0.079
27.0,-8.425,-2.198,4.486,0.216,0.128,-0.079
30.0,-8.587,-2.447,4.494,0.196,0.123,-0.06
33.0,-8.587,-2.447,4.494,0.196,0.123,-0.06
36.0,-8.587,-2.447,4.494,0.196,0.123,-0.06
40.0,-8.559,-2.512,4.481,0.203,0.12,-0.046
44.0,-8.559,-2.512,4.481,0.203,0.12,-0.046
48.0,-8.559,-2.512,4.481,0.203,0.12,-0.046
51.0,-8.564,-2.553,4.381,0.219,0.129,-0.032
55.0,-8.564,-2.553,4.381,0.219,0.129,-0.032
59.0,-8.703,-2.64,4.457,0.219,0.129,-0.032
62.0,-8.703,-2.64,4.457,0.239,0.155,-0.021
66.0,-8.703,-2.64,4.457,0.239,0.155,-0.021
70.0,-8.705,-2.687,4.55,0.282,0.184,-0.009
74.0,-8.705,-2.687,4.55,0.282,0.184,-0.009
77.0,-8.705,-2.687,4.55,0.282,0.184,-0.009
81.0,-8.62,-2.723,4.671,0.363,0.203,-0.0
85.0,-8.62,-2.723,4.671,0.363,0.203,-0.0
89.0,-8.562,-2.654,4.621,0.363,0.207,0.003
92.0,-8.562,-2.654,4.621,0.472,0.207,0.003
96.0,-8.562,-2.654,4.621,0.472,0.207,0.003
100.0,-8.66,-2.422,4.534,0.569,0.214,0.006
103.0,-8.66,-2.422,4.534,0.569,0.214,0.006
107.0,-8.66,-2.422,4.534,0.569,0.214,0.006
111.0,-8.715,-2.213,4.496,0.616,0.234,0.02
114.0,-8.715,-2.213,4.496,0.616,0.234,0.02
118.0,-8.677,-2.101,4.538,0.616,0.249,0.04
122.0,-8.677,-2.101,4.538,0.611,0.249,0.04
126.0,-8.677,-2.101,4.538,0.611,0.249,0.04
129.0,-8.573,-2.005,4.568,0.571,0.255,0.05
133.0,-8.573,-2.005,4.568,0.571,0.255,0.05
137.0,-8.573,-2.005,4.568,0.571,0.255,0.05
141.0,-8.57,-1.956,4.39,0.502,0.265,0.056
144.0,-8.57,-1.956,4.39,0.502,0.265,0.056
148.0,-8.795,-1.839,4.339,0.395,0.297,0.067
152.0,-8.795,-1.839,4.339,0.395,0.297,0.067
155.0,-8.795,-1.839,4.339,0.395,0.297,0.067
159.0,-9.003,-1.704,4.411,0.249,0.343,0.088
163.0,-9.003,-1.704,4.411,0.249,0.343,0.088
167.0,-9.003,-1.704,4.411,0.249,0.343,0.088
170.0,-9.062,-1.625,4.577,0.08,0.378,0.104
174.0,-9.062,-1.625,4.577,0.08,0.378,0.104
178.0,-9.019,-1.556,4.775,-0.091,0.394,0.109
182.0,-9.019,-1.556,4.775,-0.091,0.394,0.109
186.0,-9.019,-1.556,4.775,-0.091,0.394,0.109
189.0,-9.008,-1.54,5.024,-0.251,0.398,0.099
193.0,-9.008,-1.54,5.024,-0.251,0.398,0.099
197.0,-8.846,-1.749,5.413,-0.251,0.398,0.086
201.0,-8.846,-1.749,5.413,-0.379,0.377,0.086
205.0,-8.846,-1.749,5.413,-0.379,0.377,0.086
208.0,-8.423,-2.017,5.713,-0.423,0.312,0.068
212.0,-8.423,-2.017,5.713,-0.423,0.312,0.068
216.0,-8.423,-2.017,5.713,-0.423,0.312,0.068
220.0,-8.055,-2.269,5.663,-0.377,0.217,0.033
224.0,-8.055,-2.269,5.663,-0.377,0.217,0.033
228.0,-7.943,-2.438,5.42,-0.274,0.13,-0.004
231.0,-7.943,-2.438,5.42,-0.274,0.13,-0.004
235.0,-7.943,-2.438,5.42,-0.274,0.13,-0.004
239.0,-7.903,-2.369,5.074,-0.17,0.069,-0.03
243.0,-7.903,-2.369,5.074,-0.17,0.069,-0.03
247.0,-7.929,-2.268,4.659,-0.108,0.045,-0.042
251.0,-7.929,-2.268,4.659,-0.108,0.045,-0.042
255.0,-7.929,-2.268,4.659,-0.108,0.045,-0.042
259.0,-7.865,-1.744,4.424,-0.119,0.053,-0.049
263.0,-7.865,-1.744,4.424,-0.119,0.053,-0.049
267.0,-8.134,-2.32,4.506,-0.195,0.085,-0.044
271.0,-8.134,-2.32,4.506,-0.195,0.085,-0.044
274.0,-8.134,-2.32,4.506,-0.195,0.085,-0.044
278.0,-7.93,-2.383,4.47,-0.195,0.109,-0.018
282.0,-7.93,-2.383,4.47,-0.195,0.109,-0.018
286.0,-7.805,-2.173,4.556,-0.195,0.149,-0.021
290.0,-7.805,-2.173,4.556,-0.18,0.149,-0.021
294.0,-7.805,-2.173,4.556,-0.18,0.149,-0.021
298.0,-8.014,-2.202,4.619,-0.183,0.209,-0.038
302.0,-8.014,-2.202,4.619,-0.183,0.209,-0.038
306.0,-8.503,-2.118,4.691,-0.183,0.209,-0.051
310.0,-8.503,-2.118,4.691,-0.182,0.282,-0.051
313.0,-8.503,-2.118,4.691,-0.182,0.282,-0.051
317.0,-9.024,-1.88,4.802,-0.194,0.354,-0.06
321.0,-9.024,-1.88,4.802,-0.194,0.354,-0.06
325.0,-9.428,-1.692,4.874,-0.194,0.354,-0.06
329.0,-9.428,-1.692,4.874,-0.226,0.401,-0.068
333.0,-9.428,-1.692,4.874,-0.226,0.401,-0.068
337.0,-9.58,-1.618,4.805,-0.261,0.393,-0.075
341.0,-9.58,-1.618,4.805,-0.261,0.393,-0.075
345.0,-9.58,-1.771,4.562,-0.261,0.393,-0.075
349.0,-9.38,-1.771,4.562,-0.294,0.328,-0.085
353.0,-9.38,-1.771,4.562,-0.294,0.328,-0.085
356.0,-9.148,-1.857,4.233,-0.304,0.258,-0.091
360.0,-9.148,-1.857,4.233,-0.304,0.258,-0.091
364.0,-9.148,-1.857,3.907,-0.304,0.258,-0.091
368.0,-8.996,-1.831,3.907,-0.308,0.217,-0.105
372.0,-8.996,-1.831,3.907,-0.308,0.217,-0.105
376.0,-8.837,-1.792,3.677,-0.32,0.202,-0.123
380.0,-8.837,-1.792,3.677,-0.32,0.202,-0.123
384.0,-8.837,-1.792,3.677,-0.32,0.202,-0.123
388.0,-8.678,-1.78,3.583,-0.333,0.193,-0.135
392.0,-8.678,-1.78,3.583,-0.333,0.193,-0.135
396.0,-8.561,-1.789,3.581,-0.344,0.177,-0.146
399.0,-8.561,-1.789,3.581,-0.344,0.177,-0.146
403.0,-8.561,-1.789,3.581,-0.344,0.177,-0.146
407.0,-8.53,-1.792,3.695,-0.348,0.154,-0.162
411.0,-8.53,-1.792,3.695,-0.348,0.154,-0.162
415.0,-8.489,-1.799,3.882,-0.342,0.13,-0.181
419.0,-8.489,-1.799,3.882,-0.342,0.13,-0.181
423.0,-8.489,-1.799,3.882,-0.342,0.13,-0.181
427.0,-8.35,-1.784,4.015,-0.328,0.108,-0.195
431.0,-8.35,-1.784,4.015,-0.328,0.108,-0.195
435.0,-8.234,-1.838,4.098,-0.31,0.091,-0.198
438.0,-8.234,-1.838,4.098,-0.31,0.091,-0.198
442.0,-8.234,-1.838,4.098,-0.31,0.091,-0.198
446.0,-8.258,-1.941,4.083,-0.288,0.082,-0.191
450.0,-8.258,-1.941,4.083,-0.288,0.082,-0.191
454.0,-8.508,-2.067,4.128,-0.267,0.087,-0.173
458.0,-8.508,-2.067,4.128,-0.267,0.087,-0.173
462.0,-8.508,-2.067,4.128,-0.267,0.087,-0.173
466.0,-8.932,-2.197,4.189,-0.254,0.103,-0.142
470.0,-8.932,-2.197,4.189,-0.254,0.103,-0.142
474.0,-9.396,-2.343,4.182,-0.254,0.123,-0.093
478.0,-9.396,-2.343,4.182,-0.251,0.123,-0.093
481.0,-9.396,-2.343,4.182,-0.251,0.123,-0.093
485.0,-9.832,-2.52,4.239,-0.265,0.142,-0.028
489.0,-9.832,-2.52,4.239,-0.265,0.142,-0.028
493.0,-10.018,-2.692,4.476,-0.265,0.142,0.035
497.0,-10.018,-2.692,4.476,-0.285,0.148,0.035
501.0,-10.018,-2.692,4.476,-0.285,0.148,0.035
505.0,-9.804,-2.822,4.786,-0.294,0.131,0.078
509.0,-9.804,-2.822,4.786,-0.294,0.131,0.078
513.0,-9.804,-2.968,5.015,-0.294,0.131,0.078
516.0,-9.435,-2.968,5.015,-0.282,0.093,0.082
520.0,-9.435,-2.968,5.015,-0.282,0.093,0.082
524.0,-9.353,-3.06,5.18,-0.248,0.045,0.038
528.0,-9.353,-3.06,5.18,-0.248,0.045,0.038
532.0,-9.353,-3.06,5.18,-0.248,0.045,0.038
535.0,-9.47,-3.049,5.212,-0.196,-0.007,-0.038
539.0,-9.47,-3.049,5.212,-0.196,-0.007,-0.038
543.0,-9.488,-2.957,5.212,-0.137,-0.054,-0.116
547.0,-9.488,-2.957,5.212,-0.137,-0.054,-0.116
551.0,-9.488,-2.957,5.212,-0.137,-0.054,-0.116
555.0,-9.386,-2.87,5.304,-0.083,-0.085,-0.172
559.0,-9.386,-2.87,5.304,-0.083,-0.085,-0.172
563.0,-9.345,-3.108,5.512,-0.028,-0.102,-0.2
567.0,-9.345,-3.108,5.512,-0.028,-0.102,-0.2
571.0,-9.345,-3.108,5.512,-0.028,-0.102,-0.2
575.0,-9.406,-3.581,5.828,0.054,-0.112,-0.214
579.0,-9.406,-3.581,5.828,0.054,-0.112,-0.214
583.0,-9.545,-4.167,6.299,0.181,-0.138,-0.232
587.0,-9.545,-4.167,6.299,0.181,-0.138,-0.232
591.0,-9.545,-4.167,6.299,0.181,-0.138,-0.232
595.0,-9.712,-4.796,6.982,0.356,-0.204,-0.264
599.0,-9.712,-4.796,6.982,0.356,-0.204,-0.264
603.0,-9.737,-5.283,7.56,0.581,-0.333,-0.328
607.0,-9.737,-5.283,7.56,0.581,-0.333,-0.328
611.0,-9.737,-5.283,7.56,0.581,-0.333,-0.328
614.0,-9.448,-5.592,7.714,0.848,-0.509,-0.432
618.0,-9.448,-5.592,7.714,0.848,-0.509,-0.432
622.0,-8.999,-5.79,7.729,1.156,-0.682,-0.564
626.0,-8.999,-5.79,7.729,1.156,-0.682,-0.564
630.0,-8.999,-5.79,7.729,1.156,-0.682,-0.564
634.0,-8.795,-5.807,7.905,1.49,-0.825,-0.704
638.0,-8.795,-5.807,7.905,1.49,-0.825,-0.704
642.0,-8.912,-5.687,8.152,1.813,-0.947,-0.826
646.0,-8.912,-5.687,8.152,1.813,-0.947,-0.826
650.0,-8.912,-5.687,8.152,1.813,-0.947,-0.826
653.0,-9.191,-5.617,8.579,2.091,-1.063,-0.911
657.0,-9.191,-5.617,8.579,2.091,-1.063,-0.911
661.0,-9.409,-5.646,9.113,2.297,-1.18,-0.966
665.0,-9.409,-5.646,9.113,2.297,-1.18,-0.966
669.0,-9.409,-5.646,9.113,2.297,-1.18,-0.966
673.0,-9.387,-5.709,9.529,2.429,-1.301,-1.015
677.0,-9.387,-5.709,9.529,2.429,-1.301,-1.015
681.0,-9.256,-5.713,9.751,2.429,-1.413,-1.084
685.0,-9.256,-5.713,9.751,2.487,-1.413,-1.084
689.0,-9.256,-5.713,9.751,2.487,-1.413,-1.084
693.0,-9.138,-5.801,10.022,2.469,-1.508,-1.193
697.0,-9.138,-5.801,10.022,2.469,-1.508,-1.193
701.0,-9.226,-5.859,10.226,2.469,-1.508,-1.348
705.0,-9.226,-5.859,10.226,2.394,-1.606,-1.348
709.0,-9.226,-5.859,10.226,2.394,-1.606,-1.348
713.0,-9.235,-5.759,10.114,2.287,-1.723,-1.531
717.0,-9.235,-5.759,10.114,2.287,-1.723,-1.531
721.0,-8.968,-5.792,9.863,2.172,-1.852,-1.72
724.0,-8.968,-5.792,9.863,2.172,-1.852,-1.72
728.0,-8.968,-5.792,9.863,2.172,-1.852,-1.72
732.0,-8.594,-6.029,9.703,2.084,-1.966,-1.898
736.0,-8.594,-6.029,9.703,2.084,-1.966,-1.898
740.0,-8.281,-6.305,9.657,2.084,-2.044,-2.06
744.0,-8.281,-6.305,9.657,2.058,-2.044,-2.06
748.0,-8.281,-6.305,9.657,2.058,-2.044,-2.06
752.0,-8.186,-6.695,9.77,2.125,-2.103,-2.202
756.0,-8.186,-6.695,9.77,2.125,-2.103,-2.202
760.0,-8.293,-7.324,9.877,2.125,-2.103,-2.202
763.0,-8.293,-7.324,9.877,2.32,-2.183,-2.336
767.0,-8.293,-7.324,9.877,2.32,-2.183,-2.336
771.0,-8.351,-7.906,9.687,2.669,-2.297,-2.474
775.0,-8.351,-7.906,9.687,2.669,-2.297,-2.474
779.0,-8.288,-8.21,9.315,2.669,-2.297,-2.474
783.0,-8.288,-8.21,9.315,3.165,-2.419,-2.595
787.0,-8.288,-8.21,9.315,3.165,-2.419,-2.595
791.0,-8.244,-8.258,8.817,3.762,-2.518,-2.656
795.0,-8.244,-8.258,8.817,3.762,-2.518,-2.656
799.0,-8.244,-8.258,8.349,3.762,-2.518,-2.656
803.0,-8.227,-7.99,8.349,4.39,-2.584,-2.641
806.0,-8.227,-7.99,8.349,4.39,-2.584,-2.641
810.0,-8.195,-7.396,7.951,4.898,-2.631,-2.557
814.0,-8.195,-7.396,7.951,4.898,-2.631,-2.557
818.0,-8.195,-7.396,7.951,4.898,-2.631,-2.557
822.0,-8.139,-6.572,7.546,4.995,-2.691,-2.441
826.0,-8.139,-6.572,7.546,4.995,-2.691,-2.441
830.0,-7.92,-5.511,7.05,4.995,-2.787,-2.34
834.0,-7.92,-5.511,7.05,4.995,-2.787,-2.34
838.0,-7.92,-5.511,7.05,4.995,-2.787,-2.34
842.0,-7.551,-4.11,6.292,4.995,-2.905,-2.28
846.0,-7.551,-4.11,6.292,4.995,-2.905,-2.28
849.0,-6.984,-2.626,5.397,4.995,-3.026,-2.257
853.0,-6.984,-2.626,5.397,4.995,-3.026,-2.257
857.0,-6.984,-2.626,5.397,4.995,-3.026,-2.257
861.0,-6.21,-1.047,4.753,4.995,-3.133,-2.257
865.0,-6.21,-1.047,4.753,4.995,-3.133,-2.257
869.0,-5.477,0.315,4.717,4.995,-3.198,-2.258
873.0,-5.477,0.315,4.717,4.995,-3.198,-2.258
877.0,-5.477,0.315,4.717,4.995,-3.198,-2.258
880.0,-5.129,1.243,4.941,4.995,-3.215,-2.243
884.0,-5.129,1.243,4.941,4.995,-3.215,-2.243
888.0,-5.066,1.814,5.451,4.995,-3.215,-2.22
892.0,-5.066,1.814,5.451,4.86,-3.188,-2.22
896.0,-5.066,1.814,5.451,4.86,-3.188,-2.22
899.0,-5.285,1.985,6.094,4.334,-3.16,-2.222
903.0,-5.285,1.985,6.094,4.334,-3.16,-2.222
907.0,-5.285,1.985,6.236,4.334,-3.16,-2.222
911.0,-5.209,2.253,6.236,3.766,-3.166,-2.25
915.0,-5.209,2.253,6.236,3.766,-3.166,-2.25
919.0,-4.736,2.453,6.233,3.259,-3.166,-2.248
922.0,-4.736,2.453,6.233,3.259,-3.166,-2.248
926.0,-4.736,2.453,6.233,3.259,-3.166,-2.248
930.0,-4.139,2.578,6.156,2.819,-3.118,-2.164
934.0,-4.139,2.578,6.156,2.819,-3.118,-2.164
938.0,-3.799,2.441,6.43,2.451,-3.02,-2.007
942.0,-3.799,2.441,6.43,2.451,-3.02,-2.007
945.0,-3.799,2.441,6.43,2.451,-3.02,-2.007
949.0,-3.745,2.156,6.726,2.174,-2.92,-1.842
953.0,-3.745,2.156,6.726,2.174,-2.92,-1.842
957.0,-3.768,2.018,7.104,2.174,-2.92,-1.842
961.0,-3.768,2.018,7.104,1.989,-2.839,-1.723
964.0,-3.768,2.018,7.104,1.989,-2.839,-1.723
968.0,-3.812,2.363,7.295,1.879,-2.781,-1.651
972.0,-3.812,2.363,7.295,1.879,-2.781,-1.651
976.0,-3.812,2.363,7.295,1.879,-2.781,-1.651
980.0,-3.656,2.92,7.135,1.803,-2.73,-1.582
984.0,-3.656,2.92,7.135,1.803,-2.73,-1.582
987.0,-3.255,3.598,6.792,1.727,-2.669,-1.498
991.0,-3.255,3.598,6.792,1.727,-2.669,-1.498
995.0,-3.255,3.598,6.792,1.727,-2.669,-1.498
999.0,-2.896,4.275,6.525,1.628,-2.591,-1.386
1003.0,-2.896,4.275,6.525,1.628,-2.591,-1.386
1007.0,-2.647,4.764,6.339,1.628,-2.591,-1.248
1010.0,-2.647,4.764,6.339,1.492,-2.497,-1.248
1014.0,-2.647,4.764,6.339,1.492,-2.497,-1.248
1018.0,-2.563,4.988,6.392,1.324,-2.404,-1.109
1022.0,-2.563,4.988,6.392,1.324,-2.404,-1.109
1026.0,-2.362,5.075,6.259,1.324,-2.404,-1.109
1030.0,-2.362,5.075,6.259,1.15,-2.332,-0.999
1034.0,-2.362,5.075,6.259,1.15,-2.332,-0.999
1038.0,-1.939,5.118,6.093,0.986,-2.268,-0.907
1042.0,-1.939,5.118,6.093,0.986,-2.268,-0.907
1046.0,-1.939,4.977,5.923,0.986,-2.268,-0.907
1049.0,-1.332,4.977,5.923,0.837,-2.189,-0.803
1053.0,-1.332,4.977,5.923,0.837,-2.189,-0.803
1057.0,-0.729,4.675,5.864,0.708,-2.068,-0.685
1061.0,-0.729,4.675,5.864,0.708,-2.068,-0.685
1065.0,-0.729,4.675,5.926,0.708,-2.068,-0.685
1069.0,-0.394,4.318,5.926,0.6,-1.912,-0.577
1073.0,-0.394,4.318,5.926,0.6,-1.912,-0.577
1077.0,-0.346,3.968,6.111,0.52,-1.757,-0.501
1081.0,-0.346,3.968,6.111,0.52,-1.757,-0.501
1085.0,-0.346,3.968,6.111,0.52,-1.757,-0.501
1089.0,-0.272,3.758,6.167,0.463,-1.615,-0.448
1092.0,-0.272,3.758,6.167,0.463,-1.615,-0.448
1096.0,0.0,3.596,6.193,0.416,-1.466,-0.402
1100.0,0.0,3.596,6.193,0.416,-1.466,-0.402
1104.0,0.0,3.596,6.193,0.416,-1.466,-0.402
1108.0,0.349,3.444,6.223,0.374,-1.304,-0.353
1112.0,0.349,3.444,6.223,0.374,-1.304,-0.353
1115.0,0.554,3.346,6.202,0.332,-1.126,-0.303
1119.0,0.554,3.346,6.202,0.332,-1.126,-0.303
1123.0,0.554,3.346,6.202,0.332,-1.126,-0.303
1127.0,0.538,3.256,6.298,0.288,-0.948,-0.257
1131.0,0.538,3.256,6.298,0.288,-0.948,-0.257
1135.0,0.333,3.147,6.424,0.288,-0.948,-0.257
1138.0,0.333,3.147,6.424,0.234,-0.79,-0.228
1142.0,0.333,3.147,6.424,0.234,-0.79,-0.228
1146.0,0.094,3.012,6.562,0.173,-0.661,-0.223
1150.0,0.094,3.012,6.562,0.173,-0.661,-0.223
1154.0,0.094,3.012,6.562,0.173,-0.661,-0.223
1157.0,-0.137,2.898,6.562,0.125,-0.567,-0.247
1161.0,-0.137,2.898,6.562,0.125,-0.567,-0.247
1165.0,-0.085,2.937,6.464,0.101,-0.496,-0.275
1169.0,-0.085,2.937,6.464,0.101,-0.496,-0.275
1173.0,-0.085,2.937,6.464,0.101,-0.496,-0.275
1177.0,0.172,2.974,6.438,0.102,-0.42,-0.263
1181.0,0.172,2.974,6.438,0.102,-0.42,-0.263
1185.0,0.328,3.054,6.578,0.121,-0.322,-0.2
1188.0,0.328,3.054,6.578,0.121,-0.322,-0.2
1192.0,0.328,3.054,6.578,0.121,-0.322,-0.2
1196.0,0.202,3.257,6.906,0.158,-0.226,-0.113
1200.0,0.202,3.257,6.906,0.158,-0.226,-0.113
1204.0,-0.081,3.592,7.433,0.158,-0.226,-0.113
1208.0,-0.081,3.592,7.433,0.214,-0.166,-0.025
1212.0,-0.081,3.592,7.433,0.214,-0.166,-0.025
1215.0,-0.489,4.07,7.888,0.292,-0.159,0.066
1219.0,-0.489,4.07,7.888,0.292,-0.159,0.066
1223.0,-0.489,4.07,8.092,0.292,-0.159,0.066
1227.0,-0.707,4.612,8.092,0.387,-0.206,0.174
1231.0,-0.707,4.612,8.092,0.387,-0.206,0.174
1235.0,-0.45,5.279,8.337,0.479,-0.288,0.309
1238.0,-0.45,5.279,8.337,0.479,-0.288,0.309
1242.0,-0.45,5.279,8.337,0.479,-0.288,0.309
1246.0,-0.015,6.127,8.464,0.54,-0.359,0.5
1250.0,-0.015,6.127,8.464,0.54,-0.359,0.5
1254.0,0.112,6.952,8.699,0.545,-0.383,0.751
1257.0,0.112,6.952,8.699,0.545,-0.383,0.751
1261.0,0.112,6.952,8.699,0.545,-0.383,0.751
1265.0,-0.107,7.586,9.251,0.489,-0.39,1.011
1269.0,-0.107,7.586,9.251,0.489,-0.39,1.011
1272.0,-0.107,8.298,9.858,0.489,-0.39,1.011
1276.0,-0.567,8.298,9.858,0.384,-0.414,1.207
1280.0,-0.567,8.298,9.858,0.384,-0.414,1.207
1284.0,-0.789,9.014,10.609,0.241,-0.463,1.359
1288.0,-0.789,9.014,10.609,0.241,-0.463,1.359
1292.0,-0.789,9.014,10.609,0.241,-0.463,1.359
1296.0,-0.807,9.241,11.407,0.054,-0.514,1.536
1300.0,-0.807,9.241,11.407,0.054,-0.514,1.536
1303.0,-1.1,9.42,11.891,-0.133,-0.565,1.72
1307.0,-1.1,9.42,11.891,-0.133,-0.565,1.72
1311.0,-1.1,9.42,11.891,-0.133,-0.565,1.72
1315.0,-1.341,9.714,12.16,-0.274,-0.653,1.907
1319.0,-1.341,9.714,12.16,-0.274,-0.653,1.907
1323.0,-1.402,9.756,12.415,-0.384,-0.762,2.152
1327.0,-1.402,9.756,12.415,-0.384,-0.762,2.152
1331.0,-1.402,9.756,12.415,-0.384,-0.762,2.152
1335.0,-1.494,9.411,12.485,-0.457,-0.87,2.431
1339.0,-1.494,9.411,12.485,-0.457,-0.87,2.431
1343.0,-1.71,9.056,12.459,-0.486,-0.991,2.695
1347.0,-1.71,9.056,12.459,-0.486,-0.991,2.695
1351.0,-1.71,9.056,12.344,-0.486,-0.991,2.695
1355.0,-1.857,8.859,12.344,-0.475,-1.152,2.935
1359.0,-1.857,8.859,12.344,-0.475,-1.152,2.935
1363.0,-1.624,8.614,12.164,-0.44,-1.353,3.18
1367.0,-1.624,8.614,12.164,-0.44,-1.353,3.18
1371.0,-1.226,8.243,12.038,-0.44,-1.353,3.18
1375.0,-1.226,8.243,12.038,-0.4,-1.561,3.453
1379.0,-1.226,8.243,12.038,-0.4,-1.561,3.453
1383.0,-0.997,7.664,11.987,-0.352,-1.762,3.742
1387.0,-0.997,7.664,11.987,-0.352,-1.762,3.742
1391.0,-0.915,7.185,11.88,-0.352,-1.762,3.742
1395.0,-0.915,7.185,11.88,-0.28,-1.966,4.009
1399.0,-0.915,7.185,11.88,-0.28,-1.966,4.009
1403.0,-0.893,6.8,11.786,-0.181,-2.177,4.262
1407.0,-0.893,6.8,11.786,-0.181,-2.177,4.262
1411.0,-0.721,6.363,11.496,-0.181,-2.39,4.512
1415.0,-0.721,6.363,11.496,-0.073,-2.39,4.512
1419.0,-0.721,6.363,11.496,-0.073,-2.39,4.512
1423.0,-0.371,6.014,11.177,0.018,-2.579,4.753
1427.0,-0.371,6.014,11.177,0.018,-2.579,4.753
1431.0,-0.153,5.687,10.89,0.018,-2.743,4.954
1435.0,-0.153,5.687,10.89,0.08,-2.743,4.954
1439.0,-0.153,5.687,10.89,0.08,-2.743,4.954
1443.0,-0.038,5.468,10.507,0.101,-2.9,5.012
1447.0,-0.038,5.468,10.507,0.101,-2.9,5.012
1451.0,0.19,5.103,9.919,0.101,-2.9,5.013
1454.0,0.19,5.103,9.919,0.061,-3.051,5.013
1458.0,0.19,5.103,9.919,0.061,-3.051,5.013
1462.0,0.553,4.651,9.177,-0.057,-3.179,5.013
1466.0,0.553,4.651,9.177,-0.057,-3.179,5.013
1469.0,0.553,4.651,9.177,-0.057,-3.179,5.013
1473.0,1.01,3.943,8.358,-0.242,-3.274,5.013
1477.0,1.01,3.943,8.358,-0.242,-3.274,5.013
1481.0,1.43,3.553,7.893,-0.449,-3.335,5.013
1485.0,1.43,3.553,7.893,-0.449,-3.335,5.013
1489.0,1.43,3.553,7.893,-0.449,-3.335,5.013
1492.0,1.584,3.016,7.354,-0.61,-3.381,5.013
1496.0,1.584,3.016,7.354,-0.61,-3.381,5.013
1500.0,1.813,2.294,6.748,-0.61,-3.381,5.013
1504.0,1.813,2.294,6.748,-0.732,-3.422,5.013
1508.0,1.813,2.294,6.748,-0.732,-3.422,5.013
1511.0,2.139,1.314,6.041,-0.831,-3.435,5.013
1515.0,2.139,1.314,6.041,-0.831,-3.435,5.013
1519.0,2.139,1.314,5.447,-0.831,-3.435,5.013
1523.0,2.542,0.465,5.447,-0.916,-3.399,5.004
1527.0,2.542,0.465,5.447,-0.916,-3.399,5.004
1531.0,3.078,-0.365,4.799,-0.981,-3.314,4.911
1534.0,3.078,-0.365,4.799,-0.981,-3.314,4.911
1538.0,3.078,-0.365,4.799,-0.981,-3.314,4.911
1542.0,3.797,-1.214,4.027,-1.03,-3.164,4.738
1546.0,3.797,-1.214,4.027,-1.03,-3.164,4.738
1550.0,4.503,-1.912,3.315,-1.071,-2.927,4.523
1554.0,4.503,-1.912,3.315,-1.071,-2.927,4.523
1558.0,4.503,-1.912,3.315,-1.071,-2.927,4.523
1562.0,5.056,-2.313,2.722,-1.11,-2.597,4.272
1566.0,5.056,-2.313,2.722,-1.11,-2.597,4.272
1570.0,5.277,-2.579,2.701,-1.159,-2.197,3.996
1574.0,5.277,-2.579,2.701,-1.159,-2.197,3.996
1577.0,5.277,-2.579,2.701,-1.159,-2.197,3.996
1581.0,5.029,-3.473,2.952,-1.234,-1.787,3.703
1585.0,5.029,-3.473,2.952,-1.234,-1.787,3.703
1589.0,4.391,-4.353,2.731,-1.355,-1.377,3.371
1593.0,4.391,-4.353,2.731,-1.355,-1.377,3.371
1597.0,4.391,-4.353,2.731,-1.355,-1.377,3.371
1601.0,3.617,-5.064,2.632,-1.495,-0.914,3.021
1605.0,3.617,-5.064,2.632,-1.495,-0.914,3.021
1609.0,3.068,-5.953,2.601,-1.495,-0.421,2.672
1613.0,3.068,-5.953,2.601,-1.582,-0.421,2.672
1617.0,3.068,-5.953,2.601,-1.582,-0.421,2.672
1620.0,2.982,-6.838,2.615,-1.563,0.038,2.352
1624.0,2.982,-6.838,2.615,-1.563,0.038,2.352
1628.0,2.969,-7.858,2.77,-1.563,0.038,2.352
1632.0,2.969,-7.858,2.77,-1.423,0.448,2.085
1636.0,2.969,-7.858,2.77,-1.423,0.448,2.085
1640.0,2.692,-8.624,2.715,-1.23,0.784,1.88
1643.0,2.692,-8.624,2.715,-1.23,0.784,1.88
1647.0,2.692,-8.624,2.715,-1.23,0.784,1.88
1651.0,2.17,-8.914,2.291,-1.058,1.041,1.755
1655.0,2.17,-8.914,2.291,-1.058,1.041,1.755
1659.0,1.74,-8.778,1.841,-0.947,1.193,1.722
1662.0,1.74,-8.778,1.841,-0.947,1.193,1.722
1666.0,1.74,-8.778,1.841,-0.947,1.193,1.722
1670.0,1.688,-8.582,1.614,-0.902,1.219,1.785
1674.0,1.688,-8.582,1.614,-0.902,1.219,1.785
1678.0,2.001,-8.822,1.835,-0.902,1.219,1.912
1682.0,2.001,-8.822,1.835,-0.872,1.122,1.912
1685.0,2.001,-8.822,1.835,-0.872,1.122,1.912
1689.0,2.261,-9.386,2.344,-0.793,0.933,2.031
1693.0,2.261,-9.386,2.344,-0.793,0.933,2.031
1697.0,2.261,-9.386,2.636,-0.793,0.933,2.031
1701.0,2.359,-9.629,2.636,-0.656,0.69,2.089
1704.0,2.359,-9.629,2.636,-0.656,0.69,2.089
1708.0,2.414,-9.709,2.431,-0.496,0.426,2.112
1712.0,2.414,-9.709,2.431,-0.496,0.426,2.112
1716.0,2.414,-9.709,2.431,-0.496,0.426,2.112
1720.0,2.595,-9.602,1.945,-0.358,0.179,2.126
1724.0,2.595,-9.602,1.945,-0.358,0.179,2.126
1727.0,2.991,-9.72,1.846,-0.259,-0.003,2.139
1731.0,2.991,-9.72,1.846,-0.259,-0.003,2.139
1735.0,2.991,-9.72,1.846,-0.259,-0.003,2.139
1739.0,3.457,-10.261,2.399,-0.195,-0.136,2.102
1743.0,3.457,-10.261,2.399,-0.195,-0.136,2.102
1747.0,3.748,-10.373,2.754,-0.151,-0.26,1.972
1751.0,3.748,-10.373,2.754,-0.151,-0.26,1.972
1755.0,3.748,-10.373,2.754,-0.151,-0.26,1.972
1759.0,3.936,-10.069,2.831,-0.127,-0.38,1.77
1763.0,3.936,-10.069,2.831,-0.127,-0.38,1.77
1767.0,4.209,-9.796,2.757,-0.14,-0.5,1.527
1771.0,4.209,-9.796,2.757,-0.14,-0.5,1.527
1775.0,4.209,-9.796,2.757,-0.14,-0.5,1.527
1779.0,4.637,-9.505,2.439,-0.186,-0.604,1.271
1783.0,4.637,-9.505,2.439,-0.186,-0.604,1.271
1787.0,5.191,-9.251,2.007,-0.233,-0.649,1.042
1790.0,5.191,-9.251,2.007,-0.233,-0.649,1.042
1794.0,5.191,-9.251,2.007,-0.233,-0.649,1.042
1798.0,5.775,-9.156,1.627,-0.27,-0.63,0.878
1802.0,5.775,-9.156,1.627,-0.27,-0.63,0.878
1806.0,6.406,-9.296,1.589,-0.27,-0.63,0.788
1810.0,6.406,-9.296,1.589,-0.288,-0.557,0.788
1814.0,6.406,-9.296,1.589,-0.288,-0.557,0.788
1818.0,6.966,-9.574,1.911,-0.264,-0.459,0.741
1822.0,6.966,-9.574,1.911,-0.264,-0.459,0.741
1826.0,7.253,-9.769,2.265,-0.264,-0.459,0.741
1830.0,7.253,-9.769,2.265,-0.18,-0.376,0.699
1833.0,7.253,-9.769,2.265,-0.18,-0.376,0.699
1837.0,7.312,-9.72,2.375,-0.043,-0.325,0.64
1841.0,7.312,-9.72,2.375,-0.043,-0.325,0.64
1845.0,7.187,-9.471,2.268,-0.043,-0.325,0.64
1849.0,7.187,-9.471,2.268,0.118,-0.288,0.58
1853.0,7.187,-9.471,2.268,0.118,-0.288,0.58
1857.0,7.023,-9.177,2.152,0.268,-0.244,0.547
1861.0,7.023,-9.177,2.152,0.268,-0.244,0.547
1864.0,7.023,-9.177,2.152,0.268,-0.244,0.547
1868.0,6.989,-8.895,2.122,0.394,-0.186,0.537
1872.0,6.989,-8.895,2.122,0.394,-0.186,0.537
1876.0,7.034,-8.587,2.198,0.498,-0.126,0.529
1880.0,7.034,-8.587,2.198,0.498,-0.126,0.529
1883.0,7.034,-8.587,2.198,0.498,-0.126,0.529
1887.0,7.105,-8.238,2.208,0.585,-0.065,0.513
1891.0,7.105,-8.238,2.208,0.585,-0.065,0.513
1895.0,7.162,-7.866,2.161,0.585,-0.065,0.503
1899.0,7.162,-7.866,2.161,0.644,0.007,0.503
1902.0,7.162,-7.866,2.161,0.644,0.007,0.503
1906.0,7.218,-7.582,2.325,0.674,0.1,0.51
1910.0,7.218,-7.582,2.325,0.674,0.1,0.51
1914.0,7.218,-7.582,2.325,0.674,0.1,0.51
1917.0,7.128,-7.411,2.635,0.685,0.188,0.524
1921.0,7.128,-7.411,2.635,0.685,0.188,0.524
1925.0,6.819,-7.376,2.815,0.684,0.258,0.537
1929.0,6.819,-7.376,2.815,0.684,0.258,0.537
1932.0,6.819,-7.376,2.815,0.684,0.258,0.537
1936.0,6.341,-7.444,2.97,0.67,0.325,0.544
1940.0,6.341,-7.444,2.97,0.67,0.325,0.544
1943.0,6.341,-7.444,2.97,0.67,0.325,0.544
1947.0,5.803,-7.491,3.137,0.646,0.382,0.544
1951.0,5.803,-7.491,3.137,0.646,0.382,0.544
1955.0,5.332,-7.425,3.356,0.62,0.425,0.538
1958.0,5.332,-7.425,3.356,0.62,0.425,0.538
1962.0,5.332,-7.425,3.356,0.62,0.425,0.538
1966.0,4.978,-7.379,3.651,0.596,0.451,0.539
1970.0,4.978,-7.379,3.651,0.596,0.451,0.539
1973.0,4.978,-7.315,3.886,0.596,0.451,0.539
1977.0,4.742,-7.315,3.886,0.573,0.465,0.553
1981.0,4.742,-7.315,3.886,0.573,0.465,0.553
1985.0,4.631,-7.239,4.155,0.555,0.475,0.567
1988.0,4.631,-7.239,4.155,0.555,0.475,0.567
1992.0,4.631,-7.239,4.155,0.555,0.475,0.567
1996.0,4.644,-7.249,4.53,0.548,0.47,0.56
1999.0,4.644,-7.249,4.53,0.548,0.47,0.56
2003.0,4.566,-7.276,4.567,0.548,0.47,0.56
2007.0,4.566,-7.276,4.567,0.544,0.436,0.513
2011.0,4.566,-7.276,4.567,0.544,0.436,0.513
2014.0,4.166,-7.063,4.184,0.524,0.415,0.445
2018.0,4.166,-7.063,4.184,0.524,0.415,0.445
2022.0,4.166,-7.063,4.184,0.524,0.415,0.445
2026.0,3.696,-6.768,3.945,0.469,0.43,0.413
2029.0,3.696,-6.768,3.945,0.469,0.43,0.413
2033.0,3.473,-6.646,4.287,0.469,0.43,0.44
2037.0,3.473,-6.646,4.287,0.39,0.466,0.44
2041.0,3.473,-6.646,4.287,0.39,0.466,0.44
2044.0,3.7,-6.756,5.042,0.329,0.485,0.488
2048.0,3.7,-6.756,5.042,0.329,0.485,0.488
2052.0,3.7,-6.756,5.042,0.329,0.485,0.488
2055.0,4.098,-6.729,5.413,0.321,0.439,0.499
2059.0,4.098,-6.729,5.413,0.321,0.439,0.499
2063.0,4.278,-6.483,5.185,0.343,0.368,0.484
2067.0,4.278,-6.483,5.185,0.343,0.368,0.484
2070.0,4.278,-6.483,5.185,0.343,0.368,0.484
2074.0,4.341,-6.148,4.625,0.355,0.339,0.504
2078.0,4.341,-6.148,4.625,0.355,0.339,0.504
2082.0,4.341,-6.148,4.625,0.355,0.339,0.504
2085.0,4.506,-5.838,4.332,0.35,0.374,0.583
2089.0,4.506,-5.838,4.332,0.35,0.374,0.583
2093.0,4.918,-5.699,4.633,0.346,0.447,0.696
2097.0,4.918,-5.699,4.633,0.346,0.447,0.696
2100.0,4.918,-5.699,4.633,0.346,0.447,0.696
2104.0,5.288,-5.726,5.094,0.366,0.515,0.802
2108.0,5.288,-5.726,5.094,0.366,0.515,0.802
2111.0,5.288,-5.726,5.238,0.366,0.515,0.802
2115.0,5.179,-5.844,5.238,0.402,0.552,0.883
2119.0,5.179,-5.844,5.238,0.402,0.552,0.883
2123.0,4.64,-5.858,5.072,0.432,0.603,0.952
2126.0,4.64,-5.858,5.072,0.432,0.603,0.952
2130.0,4.64,-5.858,5.072,0.432,0.603,0.952
2134.0,4.07,-5.834,5.072,0.457,0.673,1.028
2138.0,4.07,-5.834,5.072,0.457,0.673,1.028
2141.0,3.784,-5.767,5.218,0.457,0.673,1.028
2145.0,3.784,-5.767,5.218,0.477,0.724,1.109
2149.0,3.784,-5.767,5.218,0.477,0.724,1.109
2153.0,3.765,-5.644,5.399,0.497,0.76,1.187
2156.0,3.765,-5.644,5.399,0.497,0.76,1.187
2160.0,3.765,-5.644,5.399,0.497,0.76,1.187
2164.0,3.846,-5.445,5.435,0.525,0.79,1.249
2167.0,3.846,-5.445,5.435,0.525,0.79,1.249
2171.0,3.696,-5.328,5.419,0.525,0.79,1.303
2175.0,3.696,-5.328,5.419,0.541,0.798,1.303
2179.0,3.696,-5.328,5.419,0.541,0.798,1.303
2182.0,3.333,-5.433,5.368,0.522,0.814,1.368
2186.0,3.333,-5.433,5.368,0.522,0.814,1.368
2190.0,3.333,-5.433,5.368,0.522,0.814,1.368
2194.0,2.992,-5.601,5.272,0.466,0.853,1.447
2197.0,2.992,-5.601,5.272,0.466,0.853,1.447
2201.0,2.783,-5.712,5.308,0.466,0.894,1.522
2205.0,2.783,-5.712,5.308,0.391,0.894,1.522
2209.0,2.783,-5.712,5.308,0.391,0.894,1.522
2212.0,2.725,-5.681,5.375,0.312,0.918,1.581
2216.0,2.725,-5.681,5.375,0.312,0.918,1.581
2220.0,2.725,-5.681,5.375,0.312,0.918,1.581
2223.0,2.786,-5.576,5.368,0.244,0.938,1.628
2227.0,2.786,-5.576,5.368,0.244,0.938,1.628
2231.0,2.873,-5.426,5.228,0.193,0.962,1.675
2235.0,2.873,-5.426,5.228,0.193,0.962,1.675
2238.0,2.873,-5.426,5.228,0.193,0.962,1.675
2242.0,2.759,-5.161,4.892,0.155,0.993,1.739
2246.0,2.759,-5.161,4.892,0.155,0.993,1.739
2250.0,2.759,-5.161,4.619,0.155,0.993,1.739
2253.0,2.365,-4.903,4.619,0.12,1.066,1.837
2257.0,2.365,-4.903,4.619,0.12,1.066,1.837
2261.0,1.998,-4.807,4.533,0.103,1.177,1.974
2264.0,1.998,-4.807,4.533,0.103,1.177,1.974
2268.0,1.998,-4.807,4.533,0.103,1.177,1.974
2272.0,1.771,-4.743,4.472,0.122,1.294,2.121
2276.0,1.771,-4.743,4.472,0.122,1.294,2.121
2279.0,1.771,-4.579,4.308,0.122,1.294,2.121
2283.0,1.446,-4.579,4.308,0.178,1.415,2.26
2287.0,1.446,-4.579,4.308,0.178,1.415,2.26
2291.0,0.951,-4.384,4.074,0.26,1.568,2.404
2294.0,0.951,-4.384,4.074,0.26,1.568,2.404
2298.0,0.951,-4.384,4.074,0.26,1.568,2.404
2302.0,0.329,-4.245,4.008,0.36,1.762,2.574
2306.0,0.329,-4.245,4.008,0.36,1.762,2.574
2309.0,-0.309,-4.223,4.126,0.36,1.762,2.574
2313.0,-0.309,-4.223,4.126,0.479,1.967,2.765
2317.0,-0.309,-4.223,4.126,0.479,1.967,2.765
2321.0,-1.04,-4.247,4.436,0.623,2.143,2.956
2325.0,-1.04,-4.247,4.436,0.623,2.143,2.956
2328.0,-1.04,-4.247,4.436,0.623,2.143,2.956
2332.0,-1.933,-4.218,4.771,0.781,2.249,3.132
2336.0,-1.933,-4.218,4.771,0.781,2.249,3.132
2340.0,-2.9,-4.221,4.571,0.934,2.288,3.294
2344.0,-2.9,-4.221,4.571,0.934,2.288,3.294
2347.0,-2.9,-4.221,4.571,0.934,2.288,3.294
2351.0,-4.012,-4.213,4.0,1.064,2.327,3.448
2355.0,-4.012,-4.213,4.0,1.064,2.327,3.448
2359.0,-5.01,-4.392,3.375,1.064,2.409,3.6
2363.0,-5.01,-4.392,3.375,1.167,2.409,3.6
2367.0,-5.01,-4.392,3.375,1.167,2.409,3.6
2370.0,-5.488,-4.913,2.739,1.257,2.528,3.73
2374.0,-5.488,-4.913,2.739,1.257,2.528,3.73
2378.0,-5.488,-4.913,2.709,1.257,2.528,3.73
2382.0,-5.837,-5.545,2.709,1.368,2.674,3.81
2386.0,-5.837,-5.545,2.709,1.368,2.674,3.81
2389.0,-6.635,-6.081,3.644,1.547,2.784,3.831
2393.0,-6.635,-6.081,3.644,1.547,2.784,3.831
2397.0,-6.635,-6.081,3.644,1.547,2.784,3.831
2401.0,-7.57,-6.419,4.204,1.813,2.77,3.801
2405.0,-7.57,-6.419,4.204,1.813,2.77,3.801
2409.0,-8.414,-6.519,3.953,2.152,2.672,3.734
2412.0,-8.414,-6.519,3.953,2.152,2.672,3.734
2416.0,-8.414,-6.519,3.953,2.152,2.672,3.734
2420.0,-9.168,-6.288,3.071,2.53,2.595,3.639
2424.0,-9.168,-6.288,3.071,2.53,2.595,3.639
2428.0,-9.764,-5.922,2.223,2.53,2.595,3.639
2432.0,-9.764,-5.922,2.223,2.914,2.608,3.523
2435.0,-9.764,-5.922,2.223,2.914,2.608,3.523
2439.0,-9.879,-5.745,2.067,3.287,2.697,3.378
2443.0,-9.879,-5.745,2.067,3.287,2.697,3.378
2447.0,-9.879,-5.745,2.067,3.287,2.697,3.378
2451.0,-9.332,-5.931,2.713,3.666,2.793,3.18
2454.0,-9.332,-5.931,2.713,3.666,2.793,3.18
2458.0,-8.553,-6.177,2.99,4.083,2.849,2.901
2462.0,-8.553,-6.177,2.99,4.083,2.849,2.901
2466.0,-8.553,-6.177,2.99,4.083,2.849,2.901
2470.0,-8.338,-6.078,2.138,4.541,2.935,2.545
2474.0,-8.338,-6.078,2.138,4.541,2.935,2.545
2477.0,-8.693,-5.623,1.478,4.541,3.138,2.137
2481.0,-8.693,-5.623,1.478,4.924,3.138,2.137
2485.0,-8.693,-5.623,1.478,4.924,3.138,2.137
2489.0,-8.938,-5.074,1.498,4.995,3.393,1.715
2493.0,-8.938,-5.074,1.498,4.995,3.393,1.715
2496.0,-8.938,-5.074,1.687,4.995,3.393,1.715
2500.0,-8.959,-4.562,1.687,4.995,3.604,1.304
2504.0,-8.959,-4.562,1.687,4.995,3.604,1.304
2508.0,-9.163,-3.973,1.763,4.995,3.767,0.895
2512.0,-9.163,-3.973,1.763,4.995,3.767,0.895
2516.0,-9.163,-3.973,1.763,4.995,3.767,0.895
2519.0,-9.698,-3.155,1.535,4.995,3.904,0.501
2523.0,-9.698,-3.155,1.535,4.995,3.904,0.501
2527.0,-10.381,-2.08,1.732,4.995,4.025,0.161
2531.0,-10.381,-2.08,1.732,4.995,4.025,0.161
2535.0,-10.381,-2.08,1.732,4.995,4.025,0.161
2539.0,-10.774,-1.105,2.13,4.995,4.093,-0.098
2543.0,-10.774,-1.105,2.13,4.995,4.093,-0.098
2547.0,-10.869,-0.13,2.208,4.995,4.11,-0.281
2551.0,-10.869,-0.13,2.208,4.995,4.11,-0.281
2555.0,-10.869,-0.13,2.208,4.995,4.11,-0.281
2559.0,-11.149,0.543,1.946,4.995,4.135,-0.4
2563.0,-11.149,0.543,1.946,4.995,4.135,-0.4
2566.0,-11.893,0.971,1.698,4.995,4.208,-0.495
2570.0,-11.893,0.971,1.698,4.995,4.208,-0.495
2574.0,-11.893,0.971,1.698,4.995,4.208,-0.495
2578.0,-13.068,1.265,1.808,4.995,4.303,-0.582
2582.0,-13.068,1.265,1.808,4.995,4.303,-0.582
2586.0,-14.233,1.542,1.976,4.995,4.347,-0.656
2590.0,-14.233,1.542,1.976,4.995,4.347,-0.656
2594.0,-14.233,1.542,1.976,4.995,4.347,-0.656
2598.0,-14.871,1.901,2.249,4.995,4.287,-0.713
2602.0,-14.871,1.901,2.249,4.995,4.287,-0.713
2606.0,-14.769,2.201,2.505,4.995,4.287,-0.757
2609.0,-14.769,2.201,2.505,4.995,4.096,-0.757
2613.0,-14.769,2.201,2.505,4.995,4.096,-0.757
2617.0,-14.261,2.445,2.646,4.995,3.807,-0.818
2621.0,-14.261,2.445,2.646,4.995,3.807,-0.818
2625.0,-13.757,2.815,2.394,4.995,3.807,-0.818
2629.0,-13.757,2.815,2.394,4.995,3.491,-0.928
2633.0,-13.757,2.815,2.394,4.995,3.491,-0.928
2637.0,-13.459,3.26,1.839,4.995,3.22,-1.088
2641.0,-13.459,3.26,1.839,4.995,3.22,-1.088
2645.0,-13.459,4.167,1.315,4.995,3.22,-1.088
2649.0,-13.588,4.167,1.315,4.962,3.02,-1.248
2652.0,-13.588,4.167,1.315,4.962,3.02,-1.248
2656.0,-13.527,4.864,0.807,4.606,2.88,-1.35
2660.0,-13.527,4.864,0.807,4.606,2.88,-1.35
2664.0,-13.527,4.864,0.536,4.606,2.88,-1.35
2668.0,-13.33,5.242,0.536,4.041,2.786,-1.397
2672.0,-13.33,5.242,0.536,4.041,2.786,-1.397
2676.0,-13.128,5.501,0.589,3.462,2.717,-1.411
2680.0,-13.128,5.501,0.589,3.462,2.717,-1.411
2684.0,-13.128,5.501,0.589,3.462,2.717,-1.411
2688.0,-13.045,5.731,0.696,2.906,2.652,-1.42
2691.0,-13.045,5.731,0.696,2.906,2.652,-1.42
2695.0,-12.987,5.815,0.72,2.373,2.58,-1.441
2699.0,-12.987,5.815,0.72,2.373,2.58,-1.441
2703.0,-12.987,5.815,0.72,2.373,2.58,-1.441
2707.0,-13.055,5.883,0.845,1.855,2.494,-1.483
2711.0,-13.055,5.883,0.845,1.855,2.494,-1.483
2715.0,-13.24,5.873,0.875,1.354,2.386,-1.531
2719.0,-13.24,5.873,0.875,1.354,2.386,-1.531
2723.0,-13.24,5.873,0.875,1.354,2.386,-1.531
2727.0,-13.315,5.77,0.936,0.881,2.268,-1.566
2731.0,-13.315,5.77,0.936,0.881,2.268,-1.566
2734.0,-13.185,5.578,1.065,0.448,2.157,-1.575
2738.0,-13.185,5.578,1.065,0.448,2.157,-1.575
2742.0,-13.185,5.578,1.065,0.448,2.157,-1.575
2746.0,-12.857,5.301,1.366,0.069,2.063,-1.561
2750.0,-12.857,5.301,1.366,0.069,2.063,-1.561
2754.0,-12.602,5.014,1.711,-0.241,1.988,-1.533
2758.0,-12.602,5.014,1.711,-0.241,1.988,-1.533
2762.0,-12.602,5.014,1.711,-0.241,1.988,-1.533
2766.0,-12.545,4.802,2.019,-0.479,1.922,-1.481
2770.0,-12.545,4.802,2.019,-0.479,1.922,-1.481
2774.0,-12.602,4.598,2.32,-0.654,1.858,-1.394
2778.0,-12.602,4.598,2.32,-0.654,1.858,-1.394
2782.0,-12.602,4.598,2.32,-0.654,1.858,-1.394
2786.0,-12.655,4.397,2.596,-0.777,1.776,-1.272
2790.0,-12.655,4.397,2.596,-0.777,1.776,-1.272
2794.0,-12.787,4.137,2.783,-0.863,1.669,-1.125
2798.0,-12.787,4.137,2.783,-0.863,1.669,-1.125
2802.0,-12.787,4.137,2.783,-0.863,1.669,-1.125
2806.0,-12.881,3.814,2.886,-0.913,1.536,-0.966
2810.0,-12.881,3.814,2.886,-0.913,1.536,-0.966
2814.0,-12.945,3.543,2.841,-0.936,1.381,-0.806
2818.0,-12.945,3.543,2.841,-0.936,1.381,-0.806
2822.0,-12.945,3.543,2.841,-0.936,1.381,-0.806
2826.0,-12.977,3.291,2.696,-0.943,1.216,-0.653
2830.0,-12.977,3.291,2.696,-0.943,1.216,-0.653
2834.0,-12.877,3.004,2.527,-0.943,1.051,-0.512
2838.0,-12.877,3.004,2.527,-0.943,1.051,-0.512
2842.0,-12.877,3.004,2.356,-0.943,1.051,-0.512
2846.0,-12.555,2.713,2.356,-0.941,0.885,-0.394
2850.0,-12.555,2.713,2.356,-0.941,0.885,-0.394
2854.0,-12.157,2.46,2.194,-0.941,0.72,-0.302
2858.0,-12.157,2.46,2.194,-0.941,0.72,-0.302
2862.0,-12.157,2.35,2.04,-0.941,0.72,-0.302
2866.0,-11.794,2.35,2.04,-0.946,0.562,-0.234
2870.0,-11.794,2.35,2.04,-0.946,0.562,-0.234
2874.0,-11.433,2.092,1.892,-0.96,0.415,-0.189
2878.0,-11.433,2.092,1.892,-0.96,0.415,-0.189
2882.0,-11.182,1.822,1.828,-0.96,0.415,-0.189
2886.0,-11.182,1.822,1.828,-0.979,0.28,-0.161
2890.0,-11.182,1.822,1.828,-0.979,0.28,-0.161
2894.0,-11.073,1.471,1.808,-1.001,0.157,-0.147
2898.0,-11.073,1.471,1.808,-1.001,0.157,-0.147
2902.0,-10.951,1.08,1.787,-1.001,0.157,-0.142
2906.0,-10.951,1.08,1.787,-1.016,0.042,-0.142
2910.0,-10.951,1.08,1.787,-1.016,0.042,-0.142
2914.0,-10.911,0.808,1.719,-1.02,-0.07,-0.14
2918.0,-10.911,0.808,1.719,-1.02,-0.07,-0.14
2922.0,-10.861,0.61,1.58,-1.019,-0.182,-0.138
2926.0,-10.861,0.61,1.58,-1.019,-0.182,-0.138
2930.0,-10.861,0.61,1.58,-1.019,-0.182,-0.138
2934.0,-10.679,0.449,1.411,-1.016,-0.286,-0.131
2938.0,-10.679,0.449,1.411,-1.016,-0.286,-0.131
2942.0,-10.451,0.272,1.185,-1.009,-0.383,-0.123
2946.0,-10.451,0.272,1.185,-1.009,-0.383,-0.123
2950.0,-10.451,0.272,0.978,-1.009,-0.383,-0.123
2955.0,-10.199,0.127,0.978,-1.011,-0.475,-0.114
2959.0,-10.199,0.127,0.978,-1.011,-0.475,-0.114
2963.0,-10.042,-0.007,0.724,-1.03,-0.544,-0.105
2967.0,-10.042,-0.007,0.724,-1.03,-0.544,-0.105
2971.0,-9.913,-0.055,0.498,-1.03,-0.581,-0.087
2975.0,-9.913,-0.055,0.498,-1.069,-0.581,-0.087
2979.0,-9.913,-0.055,0.498,-1.069,-0.581,-0.087
2983.0,-9.805,-0.154,0.317,-1.129,-0.597,-0.056
2987.0,-9.805,-0.154,0.317,-1.129,-0.597,-0.056
2991.0,-9.727,-0.31,0.209,-1.209,-0.603,-0.021
2995.0,-9.727,-0.31,0.209,-1.209,-0.603,-0.021
3000.0,-9.727,-0.31,0.209,-1.209,-0.603,-0.021
