deltaTime,Acc_X,Acc_Y,Acc_Z,Gyro_X,Gyro_Y,Gyro_Z
0.0,-8.976,-1.981,1.163,0.065,-0.189,-0.081
3.0,-8.976,-1.981,1.163,0.065,-0.189,-0.081
6.0,-8.976,-1.981,1.163,0.065,-0.189,-0.081
9.0,-8.637,-1.733,0.971,0.05,-0.24,-0.112
12.0,-8.637,-1.733,0.971,0.05,-0.24,-0.112
15.0,-8.637,-1.733,0.971,0.05,-0.24,-0.112
18.0,-8.414,-1.649,0.818,0.05,-0.274,-0.124
21.0,-8.414,-1.649,0.818,-0.014,-0.274,-0.124
24.0,-8.414,-1.649,0.818,-0.014,-0.274,-0.124
27.0,-8.414,-1.649,0.774,-0.014,-0.274,-0.124
30.0,-8.322,-1.869,0.774,-0.09,-0.322,-0.126
33.0,-8.322,-1.869,0.774,-0.09,-0.322,-0.126
37.0,-8.317,-2.204,0.806,-0.09,-0.322,-0.121
41.0,-8.317,-2.204,0.806,-0.126,-0.361,-0.121
45.0,-8.317,-2.204,0.806,-0.126,-0.361,-0.121
49.0,-8.297,-2.329,0.838,-0.106,-0.395,-0.112
53.0,-8.297,-2.329,0.838,-0.106,-0.395,-0.112
57.0,-8.206,-2.389,0.778,-0.106,-0.395,-0.112
61.0,-8.206,-2.389,0.778,-0.062,-0.433,-0.115
65.0,-8.206,-2.389,0.778,-0.062,-0.433,-0.115
69.0,-7.975,-2.366,0.644,-0.001,-0.473,-0.134
72.0,-7.975,-2.366,0.644,-0.001,-0.473,-0.134
76.0,-7.975,-2.366,0.468,-0.001,-0.473,-0.134
80.0,-7.7,-2.095,0.468,0.077,-0.518,-0.166
84.0,-7.7,-2.095,0.468,0.077,-0.518,-0.166
88.0,-7.457,-1.693,0.213,0.138,-0.557,-0.206
92.0,-7.457,-1.693,0.213,0.138,-0.557,-0.206
96.0,-7.457,-1.693,0.213,0.138,-0.557,-0.206
99.0,-7.194,-1.217,-0.013,0.167,-0.586,-0.233
103.0,-7.194,-1.217,-0.013,0.167,-0.586,-0.233
107.0,-6.869,-0.833,-0.196,0.15,-0.605,-0.235
111.0,-6.869,-0.833,-0.196,0.15,-0.605,-0.235
115.0,-6.869,-0.833,-0.196,0.15,-0.605,-0.235
119.0,-6.732,-0.877,-0.383,0.099,-0.635,-0.22
123.0,-6.732,-0.877,-0.383,0.099,-0.635,-0.22
127.0,-6.592,-1.033,-0.491,0.045,-0.631,-0.197
131.0,-6.592,-1.033,-0.491,0.045,-0.631,-0.197
135.0,-6.592,-1.033,-0.491,0.045,-0.631,-0.197
139.0,-6.522,-1.279,-0.389,-0.01,-0.598,-0.18
143.0,-6.522,-1.279,-0.389,-0.01,-0.598,-0.18
147.0,-6.363,-1.495,-0.33,-0.054,-0.601,-0.179
151.0,-6.363,-1.495,-0.33,-0.054,-0.601,-0.179
155.0,-6.241,-1.519,-0.24,-0.054,-0.601,-0.179
160.0,-6.241,-1.519,-0.24,-0.09,-0.608,-0.191
164.0,-6.241,-1.519,-0.24,-0.09,-0.608,-0.191
168.0,-6.045,-1.399,-0.126,-0.119,-0.615,-0.206
172.0,-6.045,-1.399,-0.126,-0.119,-0.615,-0.206
176.0,-5.825,-1.12,-0.181,-0.156,-0.631,-0.224
180.0,-5.825,-1.12,-0.181,-0.156,-0.631,-0.224
184.0,-5.825,-1.12,-0.181,-0.156,-0.631,-0.224
188.0,-5.694,-0.845,-0.299,-0.223,-0.637,-0.246
192.0,-5.694,-0.845,-0.299,-0.223,-0.637,-0.246
196.0,-5.471,-0.697,-0.242,-0.316,-0.624,-0.269
200.0,-5.471,-0.697,-0.242,-0.316,-0.624,-0.269
204.0,-5.471,-0.697,-0.242,-0.316,-0.624,-0.269
209.0,-5.295,-0.568,-0.131,-0.407,-0.604,-0.292
213.0,-5.295,-0.568,-0.131,-0.407,-0.604,-0.292
217.0,-5.242,-0.362,-0.039,-0.501,-0.594,-0.327
221.0,-5.242,-0.362,-0.039,-0.501,-0.594,-0.327
225.0,-5.202,-0.148,0.282,-0.501,-0.594,-0.37
229.0,-5.202,-0.148,0.282,-0.621,-0.575,-0.37
233.0,-5.202,-0.148,0.282,-0.621,-0.575,-0.37
237.0,-5.113,0.056,0.856,-0.762,-0.555,-0.418
241.0,-5.113,0.056,0.856,-0.762,-0.555,-0.418
245.0,-5.0,0.121,1.387,-0.762,-0.555,-0.464
249.0,-5.0,0.121,1.387,-0.906,-0.553,-0.464
252.0,-5.0,0.121,1.387,-0.906,-0.553,-0.464
256.0,-5.082,-0.144,1.728,-1.001,-0.574,-0.499
260.0,-5.082,-0.144,1.728,-1.001,-0.574,-0.499
264.0,-5.174,-0.36,1.965,-1.001,-0.574,-0.528
268.0,-5.174,-0.36,1.965,-1.011,-0.624,-0.528
272.0,-5.174,-0.36,1.965,-1.011,-0.624,-0.528
276.0,-5.326,-0.591,2.152,-0.948,-0.684,-0.558
280.0,-5.326,-0.591,2.152,-0.948,-0.684,-0.558
284.0,-5.463,-0.659,2.183,-0.948,-0.757,-0.565
288.0,-5.463,-0.659,2.183,-0.823,-0.757,-0.565
292.0,-5.463,-0.659,2.183,-0.823,-0.757,-0.565
296.0,-5.292,-0.465,2.18,-0.693,-0.82,-0.543
300.0,-5.292,-0.465,2.18,-0.693,-0.82,-0.543
304.0,-5.378,-0.208,2.378,-0.62,-0.832,-0.51
308.0,-5.378,-0.208,2.378,-0.62,-0.832,-0.51
312.0,-5.378,-0.208,2.378,-0.62,-0.832,-0.51
316.0,-5.497,-0.236,2.843,-0.607,-0.821,-0.49
320.0,-5.497,-0.236,2.843,-0.607,-0.821,-0.49
324.0,-5.895,-0.56,3.36,-0.605,-0.804,-0.485
328.0,-5.895,-0.56,3.36,-0.605,-0.804,-0.485
332.0,-5.895,-0.56,3.36,-0.605,-0.804,-0.485
336.0,-6.443,-0.814,4.003,-0.571,-0.792,-0.499
340.0,-6.443,-0.814,4.003,-0.571,-0.792,-0.499
344.0,-7.179,-0.907,4.686,-0.516,-0.783,-0.548
348.0,-7.179,-0.907,4.686,-0.516,-0.783,-0.548
352.0,-7.179,-0.907,4.686,-0.516,-0.783,-0.548
356.0,-8.288,-1.174,5.236,-0.455,-0.796,-0.624
360.0,-8.288,-1.174,5.236,-0.455,-0.796,-0.624
364.0,-9.492,-1.147,5.475,-0.376,-0.854,-0.713
368.0,-9.492,-1.147,5.475,-0.376,-0.854,-0.713
372.0,-9.492,-1.147,5.475,-0.376,-0.854,-0.713
376.0,-10.455,-0.799,5.512,-0.333,-0.946,-0.813
380.0,-10.455,-0.799,5.512,-0.333,-0.946,-0.813
384.0,-11.399,-0.751,5.403,-0.353,-1.027,-0.895
388.0,-11.399,-0.751,5.403,-0.353,-1.027,-0.895
392.0,-12.047,-0.759,5.297,-0.353,-1.027,-0.895
397.0,-12.047,-0.759,5.297,-0.388,-1.067,-0.909
401.0,-12.047,-0.759,5.297,-0.388,-1.067,-0.909
405.0,-12.711,-0.802,5.531,-0.433,-1.053,-0.872
409.0,-12.711,-0.802,5.531,-0.433,-1.053,-0.872
413.0,-13.347,-0.894,6.012,-0.498,-1.004,-0.811
417.0,-13.347,-0.894,6.012,-0.498,-1.004,-0.811
421.0,-13.347,-0.894,6.012,-0.498,-1.004,-0.811
425.0,-13.822,-1.149,6.568,-0.592,-0.953,-0.757
429.0,-13.822,-1.149,6.568,-0.592,-0.953,-0.757
433.0,-13.963,-1.476,7.262,-0.707,-0.928,-0.73
437.0,-13.963,-1.476,7.262,-0.707,-0.928,-0.73
441.0,-13.963,-1.476,7.978,-0.707,-0.928,-0.73
446.0,-14.107,-1.791,7.978,-0.828,-0.946,-0.735
450.0,-14.107,-1.791,7.978,-0.828,-0.946,-0.735
454.0,-13.957,-2.267,8.372,-0.929,-1.0,-0.762
458.0,-13.957,-2.267,8.372,-0.929,-1.0,-0.762
462.0,-13.696,-2.59,8.475,-0.929,-1.0,-0.789
466.0,-13.696,-2.59,8.475,-0.983,-1.043,-0.789
470.0,-13.696,-2.59,8.475,-0.983,-1.043,-0.789
474.0,-13.216,-2.716,8.569,-0.998,-1.047,-0.8
478.0,-13.216,-2.716,8.569,-0.998,-1.047,-0.8
482.0,-12.849,-2.876,8.617,-0.987,-1.022,-0.792
486.0,-12.849,-2.876,8.617,-0.987,-1.022,-0.792
490.0,-12.849,-2.876,8.617,-0.987,-1.022,-0.792
494.0,-12.57,-2.978,8.723,-0.959,-0.981,-0.783
499.0,-12.57,-2.978,8.723,-0.959,-0.981,-0.783
503.0,-12.294,-3.12,8.806,-0.925,-0.945,-0.785
507.0,-12.294,-3.12,8.806,-0.925,-0.945,-0.785
511.0,-12.294,-3.191,8.948,-0.925,-0.945,-0.785
515.0,-11.856,-3.191,8.948,-0.894,-0.925,-0.809
519.0,-11.856,-3.191,8.948,-0.894,-0.925,-0.809
523.0,-11.373,-3.265,8.955,-0.858,-0.928,-0.846
527.0,-11.373,-3.265,8.955,-0.858,-0.928,-0.846
531.0,-11.073,-3.367,8.853,-0.806,-0.949,-0.887
535.0,-11.073,-3.367,8.853,-0.806,-0.949,-0.887
539.0,-11.073,-3.367,8.853,-0.806,-0.949,-0.887
543.0,-10.986,-3.657,8.645,-0.744,-0.989,-0.916
548.0,-10.986,-3.657,8.645,-0.744,-0.989,-0.916
552.0,-11.058,-4.15,8.419,-0.686,-1.033,-0.919
556.0,-11.058,-4.15,8.419,-0.686,-1.033,-0.919
560.0,-11.058,-4.15,8.419,-0.686,-1.033,-0.919
564.0,-11.12,-4.758,8.191,-0.639,-1.069,-0.88
568.0,-11.12,-4.758,8.191,-0.639,-1.069,-0.88
572.0,-10.987,-5.672,8.023,-0.599,-1.096,-0.808
576.0,-10.987,-5.672,8.023,-0.599,-1.096,-0.808
580.0,-10.645,-6.5,8.104,-0.599,-1.096,-0.808
584.0,-10.645,-6.5,8.104,-0.524,-1.114,-0.73
588.0,-10.645,-6.5,8.104,-0.524,-1.114,-0.73
592.0,-10.71,-7.019,8.959,-0.421,-1.166,-0.692
596.0,-10.71,-7.019,8.959,-0.421,-1.166,-0.692
601.0,-10.515,-7.312,9.151,-0.33,-1.311,-0.749
605.0,-10.515,-7.312,9.151,-0.33,-1.311,-0.749
609.0,-10.515,-7.312,9.151,-0.33,-1.311,-0.749
613.0,-10.505,-7.464,8.953,-0.219,-1.488,-0.851
617.0,-10.505,-7.464,8.953,-0.219,-1.488,-0.851
621.0,-10.786,-7.602,8.502,-0.115,-1.658,-0.934
625.0,-10.786,-7.602,8.502,-0.115,-1.658,-0.934
629.0,-10.786,-7.602,8.063,-0.115,-1.658,-0.934
633.0,-11.304,-8.208,8.063,-0.036,-1.821,-0.944
637.0,-11.304,-8.208,8.063,-0.036,-1.821,-0.944
641.0,-11.932,-9.319,8.033,0.04,-1.993,-0.877
645.0,-11.932,-9.319,8.033,0.04,-1.993,-0.877
649.0,-12.434,-10.951,8.214,0.04,-1.993,-0.769
653.0,-12.434,-10.951,8.214,0.176,-2.212,-0.769
657.0,-12.434,-10.951,8.214,0.176,-2.212,-0.769
662.0,-12.733,-12.431,8.476,0.437,-2.485,-0.679
666.0,-12.733,-12.431,8.476,0.437,-2.485,-0.679
670.0,-12.708,-13.504,8.508,0.835,-2.797,-0.645
674.0,-12.708,-13.504,8.508,0.835,-2.797,-0.645
678.0,-12.708,-13.504,8.508,0.835,-2.797,-0.645
682.0,-12.345,-14.125,8.369,1.36,-3.101,-0.66
686.0,-12.345,-14.125,8.369,1.36,-3.101,-0.66
690.0,-11.711,-14.033,7.981,1.973,-3.36,-0.705
694.0,-11.711,-14.033,7.981,1.973,-3.36,-0.705
698.0,-11.711,-13.2,7.535,1.973,-3.36,-0.705
702.0,-10.912,-13.2,7.535,2.581,-3.565,-0.749
706.0,-10.912,-13.2,7.535,2.581,-3.565,-0.749
711.0,-10.108,-11.932,7.112,3.07,-3.715,-0.785
715.0,-10.108,-11.932,7.112,3.07,-3.715,-0.785
719.0,-9.507,-10.649,7.007,3.07,-3.819,-0.827
723.0,-9.507,-10.649,7.007,3.357,-3.819,-0.827
727.0,-9.507,-10.649,7.007,3.357,-3.819,-0.827
731.0,-9.08,-9.546,7.038,3.427,-3.901,-0.894
735.0,-9.08,-9.546,7.038,3.427,-3.901,-0.894
738.0,-8.584,-8.553,7.001,3.323,-3.969,-0.983
742.0,-8.584,-8.553,7.001,3.323,-3.969,-0.983
746.0,-8.584,-8.553,7.001,3.323,-3.969,-0.983
750.0,-8.081,-7.654,6.93,3.091,-4.025,-1.088
754.0,-8.081,-7.654,6.93,3.091,-4.025,-1.088
758.0,-7.552,-7.034,6.717,3.091,-4.025,-1.214
762.0,-7.552,-7.034,6.717,2.77,-4.076,-1.214
766.0,-7.552,-7.034,6.717,2.77,-4.076,-1.214
770.0,-6.936,-6.925,6.516,2.424,-4.115,-1.366
774.0,-6.936,-6.925,6.516,2.424,-4.115,-1.366
778.0,-6.22,-7.082,6.144,2.424,-4.115,-1.366
781.0,-6.22,-7.082,6.144,2.15,-4.134,-1.542
785.0,-6.22,-7.082,6.144,2.15,-4.134,-1.542
789.0,-5.447,-7.284,5.844,2.002,-4.127,-1.733
793.0,-5.447,-7.284,5.844,2.002,-4.127,-1.733
797.0,-5.447,-7.764,5.49,2.002,-4.127,-1.733
801.0,-4.698,-7.764,5.49,1.988,-4.096,-1.93
805.0,-4.698,-7.764,5.49,1.988,-4.096,-1.93
809.0,-4.009,-8.143,4.956,2.111,-4.024,-2.127
813.0,-4.009,-8.143,4.956,2.111,-4.024,-2.127
817.0,-4.009,-8.143,4.661,2.111,-4.024,-2.127
821.0,-3.511,-8.359,4.661,2.348,-3.906,-2.307
824.0,-3.511,-8.359,4.661,2.348,-3.906,-2.307
828.0,-3.172,-8.603,4.351,2.657,-3.781,-2.478
832.0,-3.172,-8.603,4.351,2.657,-3.781,-2.478
836.0,-3.172,-8.603,4.351,2.657,-3.781,-2.478
840.0,-2.8,-8.639,3.813,3.008,-3.647,-2.675
844.0,-2.8,-8.639,3.813,3.008,-3.647,-2.675
848.0,-2.459,-8.376,3.564,3.376,-3.496,-2.912
852.0,-2.459,-8.376,3.564,3.376,-3.496,-2.912
856.0,-2.459,-8.376,3.564,3.376,-3.496,-2.912
860.0,-2.369,-7.826,3.295,3.737,-3.35,-3.168
863.0,-2.369,-7.826,3.295,3.737,-3.35,-3.168
867.0,-2.583,-7.158,3.007,4.055,-3.236,-3.396
871.0,-2.583,-7.158,3.007,4.055,-3.236,-3.396
875.0,-2.583,-7.158,3.007,4.055,-3.236,-3.396
879.0,-2.754,-6.338,2.504,4.276,-3.162,-3.566
883.0,-2.754,-6.338,2.504,4.276,-3.162,-3.566
887.0,-2.59,-5.573,1.961,4.369,-3.104,-3.674
891.0,-2.59,-5.573,1.961,4.369,-3.104,-3.674
895.0,-2.59,-5.573,1.961,4.369,-3.104,-3.674
899.0,-2.244,-4.854,1.596,4.344,-3.046,-3.743
903.0,-2.244,-4.854,1.596,4.344,-3.046,-3.743
906.0,-1.932,-4.423,1.707,4.211,-3.004,-3.806
910.0,-1.932,-4.423,1.707,4.211,-3.004,-3.806
914.0,-1.932,-4.423,1.707,4.211,-3.004,-3.806
918.0,-1.767,-3.948,1.686,3.998,-3.001,-3.904
922.0,-1.767,-3.948,1.686,3.998,-3.001,-3.904
926.0,-1.647,-3.304,1.548,3.998,-3.018,-4.029
930.0,-1.647,-3.304,1.548,3.727,-3.018,-4.029
934.0,-1.647,-3.304,1.548,3.727,-3.018,-4.029
938.0,-1.503,-2.532,1.385,3.415,-3.042,-4.157
942.0,-1.503,-2.532,1.385,3.415,-3.042,-4.157
946.0,-1.298,-1.604,1.228,3.415,-3.042,-4.252
949.0,-1.298,-1.604,1.228,3.083,-3.069,-4.252
953.0,-1.298,-1.604,1.228,3.083,-3.069,-4.252
957.0,-1.143,-0.547,1.212,2.759,-3.092,-4.289
961.0,-1.143,-0.547,1.212,2.759,-3.092,-4.289
965.0,-0.992,0.491,1.353,2.759,-3.092,-4.289
969.0,-0.992,0.491,1.353,2.475,-3.119,-4.263
973.0,-0.992,0.491,1.353,2.475,-3.119,-4.263
976.0,-0.832,1.518,1.65,2.265,-3.169,-4.195
980.0,-0.832,1.518,1.65,2.265,-3.169,-4.195
984.0,-0.832,1.518,1.65,2.265,-3.169,-4.195
988.0,-0.562,2.592,2.213,2.144,-3.266,-4.088
992.0,-0.562,2.592,2.213,2.144,-3.266,-4.088
996.0,-0.162,3.628,2.621,2.1,-3.411,-3.954
999.0,-0.162,3.628,2.621,2.1,-3.411,-3.954
1003.0,-0.162,3.628,2.621,2.1,-3.411,-3.954
1007.0,0.57,4.516,2.829,2.072,-3.56,-3.78
1011.0,0.57,4.516,2.829,2.072,-3.56,-3.78
1015.0,1.808,5.043,3.0,2.072,-3.665,-3.542
1019.0,1.808,5.043,3.0,2.005,-3.665,-3.542
1022.0,1.808,5.043,3.0,2.005,-3.665,-3.542
1026.0,3.189,5.112,3.388,1.883,-3.695,-3.246
1030.0,3.189,5.112,3.388,1.883,-3.695,-3.246
1034.0,3.189,5.054,3.844,1.883,-3.695,-3.246
1038.0,4.658,5.054,3.844,1.697,-3.618,-2.932
1042.0,4.658,5.054,3.844,1.697,-3.618,-2.932
1045.0,5.954,4.989,4.915,1.454,-3.425,-2.641
1049.0,5.954,4.989,4.915,1.454,-3.425,-2.641
1053.0,5.954,4.989,4.915,1.454,-3.425,-2.641
1057.0,6.474,5.09,5.626,1.191,-3.198,-2.42
1061.0,6.474,5.09,5.626,1.191,-3.198,-2.42
1064.0,6.59,5.375,5.752,0.93,-2.98,-2.272
1068.0,6.59,5.375,5.752,0.93,-2.98,-2.272
1072.0,6.59,5.375,5.752,0.93,-2.98,-2.272
1076.0,7.079,5.803,5.678,0.706,-2.76,-2.169
1080.0,7.079,5.803,5.678,0.706,-2.76,-2.169
1084.0,7.731,6.234,5.403,0.706,-2.76,-2.169
1087.0,7.731,6.234,5.403,0.571,-2.506,-2.041
1091.0,7.731,6.234,5.403,0.571,-2.506,-2.041
1095.0,8.413,6.684,5.127,0.53,-2.206,-1.814
1099.0,8.413,6.684,5.127,0.53,-2.206,-1.814
1103.0,8.413,6.684,5.127,0.53,-2.206,-1.814
1106.0,8.895,7.101,5.078,0.559,-1.855,-1.506
1110.0,8.895,7.101,5.078,0.559,-1.855,-1.506
1114.0,8.975,7.585,5.298,0.621,-1.504,-1.191
1118.0,8.975,7.585,5.298,0.621,-1.504,-1.191
1122.0,8.975,7.585,5.298,0.621,-1.504,-1.191
1126.0,8.76,8.189,5.317,0.683,-1.207,-0.948
1129.0,8.76,8.189,5.317,0.683,-1.207,-0.948
1133.0,8.519,8.669,5.439,0.683,-0.966,-0.781
1137.0,8.519,8.669,5.439,0.704,-0.966,-0.781
1141.0,8.519,8.669,5.439,0.704,-0.966,-0.781
1145.0,8.206,9.086,5.597,0.671,-0.775,-0.689
1148.0,8.206,9.086,5.597,0.671,-0.775,-0.689
1152.0,8.206,9.086,5.9,0.671,-0.775,-0.689
1156.0,7.963,9.492,5.9,0.585,-0.648,-0.679
1160.0,7.963,9.492,5.9,0.585,-0.648,-0.679
1164.0,7.588,9.893,6.191,0.449,-0.576,-0.709
1168.0,7.588,9.893,6.191,0.449,-0.576,-0.709
1171.0,7.588,9.893,6.191,0.449,-0.576,-0.709
1175.0,6.981,10.035,6.266,0.285,-0.523,-0.697
1179.0,6.981,10.035,6.266,0.285,-0.523,-0.697
1183.0,6.667,9.801,6.189,0.126,-0.462,-0.583
1187.0,6.667,9.801,6.189,0.126,-0.462,-0.583
1191.0,6.667,9.801,6.189,0.126,-0.462,-0.583
1194.0,6.64,9.234,6.287,-0.006,-0.357,-0.374
1198.0,6.64,9.234,6.287,-0.006,-0.357,-0.374
1202.0,6.388,8.552,6.68,-0.006,-0.199,-0.13
1206.0,6.388,8.552,6.68,-0.092,-0.199,-0.13
1210.0,6.388,8.552,6.68,-0.092,-0.199,-0.13
1214.0,5.752,7.777,7.455,-0.115,-0.028,0.104
1218.0,5.752,7.777,7.455,-0.115,-0.028,0.104
1222.0,5.005,6.939,8.485,-0.115,-0.028,0.104
1225.0,5.005,6.939,8.485,-0.093,0.103,0.305
1229.0,5.005,6.939,8.485,-0.093,0.103,0.305
1233.0,3.97,6.152,9.335,-0.054,0.183,0.475
1237.0,3.97,6.152,9.335,-0.054,0.183,0.475
1240.0,3.97,6.152,9.335,-0.054,0.183,0.475
1244.0,2.844,5.54,9.729,-0.007,0.191,0.619
1248.0,2.844,5.54,9.729,-0.007,0.191,0.619
1252.0,2.434,5.332,9.492,-0.007,0.191,0.748
1255.0,2.434,5.332,9.492,0.054,0.132,0.748
1259.0,2.434,5.332,9.492,0.054,0.132,0.748
1263.0,2.757,5.485,8.922,0.108,0.08,0.901
1266.0,2.757,5.485,8.922,0.108,0.08,0.901
1270.0,2.757,5.485,8.922,0.108,0.08,0.901
1274.0,3.249,5.617,8.792,0.142,0.086,1.091
1277.0,3.249,5.617,8.792,0.142,0.086,1.091
1281.0,3.316,5.919,8.807,0.142,0.086,1.091
1284.0,3.316,5.919,8.807,0.161,0.12,1.269
1288.0,3.316,5.919,8.807,0.161,0.12,1.269
1292.0,3.121,6.265,8.666,0.172,0.142,1.41
1295.0,3.121,6.265,8.666,0.172,0.142,1.41
1299.0,3.121,6.265,8.666,0.172,0.142,1.41
1303.0,2.972,6.913,8.551,0.191,0.14,1.515
1306.0,2.972,6.913,8.551,0.191,0.14,1.515
1310.0,2.972,6.913,8.551,0.191,0.14,1.515
1314.0,2.884,7.751,8.418,0.226,0.121,1.622
1317.0,2.884,7.751,8.418,0.226,0.121,1.622
1321.0,2.714,8.537,8.594,0.279,0.092,1.765
1325.0,2.714,8.537,8.594,0.279,0.092,1.765
1328.0,2.714,8.537,8.594,0.279,0.092,1.765
1332.0,2.383,8.845,8.767,0.335,0.031,1.958
1336.0,2.383,8.845,8.767,0.335,0.031,1.958
1339.0,2.383,8.845,8.767,0.335,0.031,1.958
1343.0,2.131,8.919,8.559,0.364,-0.047,2.172
1347.0,2.131,8.919,8.559,0.364,-0.047,2.172
1350.0,1.895,8.972,8.195,0.364,-0.047,2.367
1354.0,1.895,8.972,8.195,0.369,-0.123,2.367
1358.0,1.895,8.972,8.195,0.369,-0.123,2.367
1361.0,1.827,9.203,7.72,0.362,-0.19,2.551
1365.0,1.827,9.203,7.72,0.362,-0.19,2.551
1369.0,1.827,9.203,7.72,0.362,-0.19,2.551
1373.0,2.094,9.509,7.58,0.342,-0.228,2.776
1376.0,2.094,9.509,7.58,0.342,-0.228,2.776
1380.0,2.144,9.765,7.587,0.326,-0.231,3.053
1384.0,2.144,9.765,7.587,0.326,-0.231,3.053
1388.0,2.144,9.765,7.587,0.326,-0.231,3.053
1391.0,1.939,10.02,7.563,0.318,-0.215,3.363
1395.0,1.939,10.02,7.563,0.318,-0.215,3.363
1399.0,1.939,10.02,7.538,0.318,-0.215,3.363
1403.0,1.668,10.407,7.538,0.305,-0.2,3.682
1407.0,1.668,10.407,7.538,0.305,-0.2,3.682
1410.0,1.348,10.628,7.372,0.277,-0.194,4.013
1414.0,1.348,10.628,7.372,0.277,-0.194,4.013
1418.0,1.348,10.628,7.372,0.277,-0.194,4.013
1422.0,1.064,10.503,7.062,0.225,-0.196,4.355
1426.0,1.064,10.503,7.062,0.225,-0.196,4.355
1430.0,0.846,10.154,6.693,0.149,-0.201,4.691
1433.0,0.846,10.154,6.693,0.149,-0.201,4.691
1437.0,0.846,10.154,6.693,0.149,-0.201,4.691
1441.0,0.584,9.918,6.46,0.057,-0.206,4.959
1445.0,0.584,9.918,6.46,0.057,-0.206,4.959
1448.0,0.584,9.706,6.099,0.057,-0.206,4.959
1452.0,0.121,9.706,6.099,-0.064,-0.219,5.013
1456.0,0.121,9.706,6.099,-0.064,-0.219,5.013
1460.0,-0.518,9.028,5.608,-0.239,-0.25,5.013
1464.0,-0.518,9.028,5.608,-0.239,-0.25,5.013
1468.0,-0.518,9.028,5.608,-0.239,-0.25,5.013
1472.0,-1.021,7.895,5.0,-0.442,-0.301,5.013
1475.0,-1.021,7.895,5.0,-0.442,-0.301,5.013
1479.0,-1.293,6.3,4.152,-0.667,-0.358,5.013
1483.0,-1.293,6.3,4.152,-0.667,-0.358,5.013
1487.0,-1.293,6.3,4.152,-0.667,-0.358,5.013
1491.0,-1.292,4.794,3.278,-0.919,-0.4,5.013
1495.0,-1.292,4.794,3.278,-0.919,-0.4,5.013
1499.0,-1.089,3.522,2.402,-1.205,-0.406,5.013
1503.0,-1.089,3.522,2.402,-1.205,-0.406,5.013
1507.0,-1.089,3.522,2.402,-1.205,-0.406,5.013
1511.0,-0.583,2.286,1.474,-1.545,-0.361,5.013
1515.0,-0.583,2.286,1.474,-1.545,-0.361,5.013
1518.0,0.162,1.303,0.626,-1.948,-0.245,5.013
1522.0,0.162,1.303,0.626,-1.948,-0.245,5.013
1526.0,0.162,1.303,0.626,-1.948,-0.245,5.013
1530.0,0.84,0.811,0.056,-2.402,-0.06,4.976
1534.0,0.84,0.811,0.056,-2.402,-0.06,4.976
1538.0,1.406,0.728,-0.107,-2.402,-0.06,4.976
1541.0,1.406,0.728,-0.107,-2.897,0.171,4.66
1545.0,1.406,0.728,-0.107,-2.897,0.171,4.66
1549.0,1.662,0.776,0.083,-3.381,0.415,4.27
1553.0,1.662,0.776,0.083,-3.381,0.415,4.27
1557.0,1.662,0.776,0.083,-3.381,0.415,4.27
1560.0,1.607,0.177,0.135,-3.812,0.663,3.997
1564.0,1.607,0.177,0.135,-3.812,0.663,3.997
1568.0,1.171,-1.235,0.342,-4.168,0.924,3.824
1572.0,1.171,-1.235,0.342,-4.168,0.924,3.824
1575.0,1.171,-1.235,0.342,-4.168,0.924,3.824
1579.0,0.569,-3.255,0.659,-4.413,1.168,3.685
1583.0,0.569,-3.255,0.659,-4.413,1.168,3.685
1587.0,-0.176,-5.535,1.44,-4.413,1.168,3.685
1591.0,-0.176,-5.535,1.44,-4.491,1.368,3.506
1595.0,-0.176,-5.535,1.44,-4.491,1.368,3.506
1599.0,-1.579,-7.479,3.127,-4.375,1.456,3.293
1602.0,-1.579,-7.479,3.127,-4.375,1.456,3.293
1606.0,-1.579,-7.479,4.561,-4.375,1.456,3.293
1610.0,-3.278,-9.346,4.561,-4.078,1.347,3.12
1614.0,-3.278,-9.346,4.561,-4.078,1.347,3.12
1618.0,-4.616,-11.416,5.007,-3.657,1.041,2.986
1622.0,-4.616,-11.416,5.007,-3.657,1.041,2.986
1626.0,-4.616,-11.416,4.308,-3.657,1.041,2.986
1630.0,-5.295,-12.765,4.308,-3.198,0.615,2.826
1634.0,-5.295,-12.765,4.308,-3.198,0.615,2.826
1638.0,-5.211,-13.431,3.137,-2.781,0.156,2.59
1642.0,-5.211,-13.431,3.137,-2.781,0.156,2.59
1646.0,-4.552,-13.292,1.857,-2.781,0.156,2.59
1650.0,-4.552,-13.292,1.857,-2.429,-0.25,2.285
1654.0,-4.552,-13.292,1.857,-2.429,-0.25,2.285
1658.0,-3.276,-13.091,1.044,-2.089,-0.567,1.963
1662.0,-3.276,-13.091,1.044,-2.089,-0.567,1.963
1666.0,-1.519,-12.791,0.927,-2.089,-0.82,1.634
1670.0,-1.519,-12.791,0.927,-1.715,-0.82,1.634
1674.0,-1.519,-12.791,0.927,-1.715,-0.82,1.634
1679.0,0.356,-12.398,1.587,-1.311,-1.018,1.316
1683.0,0.356,-12.398,1.587,-1.311,-1.018,1.316
1687.0,2.277,-12.053,2.457,-0.897,-1.172,1.034
1691.0,2.277,-12.053,2.457,-0.897,-1.172,1.034
1695.0,2.277,-12.053,2.457,-0.897,-1.172,1.034
1699.0,4.619,-11.734,3.0,-0.48,-1.281,0.815
1703.0,4.619,-11.734,3.0,-0.48,-1.281,0.815
1707.0,7.377,-11.527,3.166,-0.05,-1.309,0.669
1711.0,7.377,-11.527,3.166,-0.05,-1.309,0.669
1715.0,7.377,-11.527,3.166,-0.05,-1.309,0.669
1719.0,9.669,-11.416,3.196,0.409,-1.213,0.565
1722.0,9.669,-11.416,3.196,0.409,-1.213,0.565
1726.0,11.332,-11.145,3.211,0.899,-1.018,0.474
1730.0,11.332,-11.145,3.211,0.899,-1.018,0.474
1734.0,11.332,-11.145,3.211,0.899,-1.018,0.474
1738.0,12.571,-10.659,3.599,1.361,-0.813,0.384
1742.0,12.571,-10.659,3.599,1.361,-0.813,0.384
1746.0,13.504,-9.772,3.943,1.729,-0.651,0.301
1750.0,13.504,-9.772,3.943,1.729,-0.651,0.301
1754.0,13.504,-9.772,3.943,1.729,-0.651,0.301
1758.0,14.114,-8.808,4.035,1.971,-0.529,0.247
1762.0,14.114,-8.808,4.035,1.971,-0.529,0.247
1766.0,14.428,-7.92,3.954,2.054,-0.446,0.247
1770.0,14.428,-7.92,3.954,2.054,-0.446,0.247
1774.0,14.428,-7.92,3.954,2.054,-0.446,0.247
1778.0,14.245,-7.397,4.114,1.977,-0.378,0.289
1781.0,14.245,-7.397,4.114,1.977,-0.378,0.289
1785.0,13.557,-7.176,4.471,1.777,-0.317,0.344
1789.0,13.557,-7.176,4.471,1.777,-0.317,0.344
1793.0,13.557,-7.176,4.471,1.777,-0.317,0.344
1797.0,12.769,-7.336,5.06,1.495,-0.271,0.389
1801.0,12.769,-7.336,5.06,1.495,-0.271,0.389
1805.0,12.141,-7.833,5.556,1.162,-0.272,0.404
1809.0,12.141,-7.833,5.556,1.162,-0.272,0.404
1813.0,12.141,-7.833,5.556,1.162,-0.272,0.404
1817.0,11.424,-8.284,5.632,0.82,-0.301,0.352
1820.0,11.424,-8.284,5.632,0.82,-0.301,0.352
1824.0,10.524,-8.502,4.888,0.482,-0.337,0.25
1828.0,10.524,-8.502,4.888,0.482,-0.337,0.25
1832.0,10.524,-8.502,4.888,0.482,-0.337,0.25
1836.0,9.619,-8.338,4.079,0.135,-0.332,0.139
1840.0,9.619,-8.338,4.079,0.135,-0.332,0.139
1844.0,8.998,-8.168,3.802,0.135,-0.332,0.046
1848.0,8.998,-8.168,3.802,-0.223,-0.273,0.046
1851.0,8.998,-8.168,3.802,-0.223,-0.273,0.046
1855.0,8.484,-8.307,3.949,-0.575,-0.196,-0.012
1859.0,8.484,-8.307,3.949,-0.575,-0.196,-0.012
1863.0,7.816,-8.839,4.618,-0.575,-0.196,-0.012
1867.0,7.816,-8.839,4.618,-0.891,-0.116,-0.039
1871.0,7.816,-8.839,4.618,-0.891,-0.116,-0.039
1875.0,6.895,-9.625,5.115,-1.125,-0.074,-0.062
1879.0,6.895,-9.625,5.115,-1.125,-0.074,-0.062
1883.0,5.642,-10.214,4.919,-1.125,-0.074,-0.095
1887.0,5.642,-10.214,4.919,-1.25,-0.059,-0.095
1892.0,5.642,-10.214,4.919,-1.25,-0.059,-0.095
1896.0,4.411,-10.419,4.246,-1.281,-0.033,-0.12
1900.0,4.411,-10.419,4.246,-1.281,-0.033,-0.12
1904.0,3.458,-10.393,3.868,-1.259,0.014,-0.101
1908.0,3.458,-10.393,3.868,-1.259,0.014,-0.101
1912.0,3.458,-10.393,3.868,-1.259,0.014,-0.101
1916.0,2.809,-10.356,3.985,-1.199,0.063,-0.025
1920.0,2.809,-10.356,3.985,-1.199,0.063,-0.025
1924.0,2.459,-10.241,4.343,-1.093,0.102,0.083
1928.0,2.459,-10.241,4.343,-1.093,0.102,0.083
1932.0,2.459,-10.241,4.343,-1.093,0.102,0.083
1935.0,2.495,-10.06,4.712,-0.937,0.11,0.197
1939.0,2.495,-10.06,4.712,-0.937,0.11,0.197
1943.0,2.99,-9.696,4.974,-0.739,0.084,0.312
1947.0,2.99,-9.696,4.974,-0.739,0.084,0.312
1951.0,2.99,-9.696,4.974,-0.739,0.084,0.312
1955.0,3.744,-9.109,5.082,-0.515,0.057,0.434
1959.0,3.744,-9.109,5.082,-0.515,0.057,0.434
1962.0,4.464,-8.331,5.151,-0.515,0.047,0.558
1966.0,4.464,-8.331,5.151,-0.288,0.047,0.558
1970.0,4.464,-8.331,5.151,-0.288,0.047,0.558
1974.0,5.002,-7.441,5.276,-0.075,0.052,0.683
1978.0,5.002,-7.441,5.276,-0.075,0.052,0.683
1981.0,5.002,-7.441,5.31,-0.075,0.052,0.683
1985.0,5.328,-6.502,5.31,0.112,0.064,0.82
1989.0,5.328,-6.502,5.31,0.112,0.064,0.82
1993.0,5.453,-5.678,5.083,0.267,0.078,0.963
1996.0,5.453,-5.678,5.083,0.267,0.078,0.963
2000.0,5.453,-5.678,5.083,0.267,0.078,0.963
2004.0,5.406,-4.909,4.555,0.382,0.103,1.109
2008.0,5.406,-4.909,4.555,0.382,0.103,1.109
2011.0,5.322,-4.278,3.991,0.382,0.103,1.109
2015.0,5.322,-4.278,3.991,0.45,0.165,1.269
2019.0,5.322,-4.278,3.991,0.45,0.165,1.269
2023.0,5.245,-3.84,3.43,0.475,0.28,1.44
2026.0,5.245,-3.84,3.43,0.475,0.28,1.44
2030.0,5.245,-3.84,3.43,0.475,0.28,1.44
2034.0,4.914,-3.553,2.922,0.468,0.43,1.604
2038.0,4.914,-3.553,2.922,0.468,0.43,1.604
2041.0,4.306,-3.268,2.557,0.468,0.43,1.758
2045.0,4.306,-3.268,2.557,0.451,0.598,1.758
2049.0,4.306,-3.268,2.557,0.451,0.598,1.758
2052.0,3.567,-2.958,2.478,0.441,0.783,1.918
2056.0,3.567,-2.958,2.478,0.441,0.783,1.918
2060.0,3.567,-2.958,2.478,0.441,0.783,1.918
2064.0,2.864,-2.719,2.532,0.451,0.957,2.094
2067.0,2.864,-2.719,2.532,0.451,0.957,2.094
2071.0,2.227,-2.399,2.528,0.482,1.11,2.283
2075.0,2.227,-2.399,2.528,0.482,1.11,2.283
2079.0,2.227,-2.399,2.528,0.482,1.11,2.283
2082.0,1.59,-1.996,2.596,0.542,1.255,2.496
2086.0,1.59,-1.996,2.596,0.542,1.255,2.496
2090.0,1.59,-1.996,2.596,0.542,1.255,2.496
2093.0,1.006,-1.676,2.535,0.631,1.38,2.743
2097.0,1.006,-1.676,2.535,0.631,1.38,2.743
2101.0,0.519,-1.253,2.425,0.736,1.497,3.018
2105.0,0.519,-1.253,2.425,0.736,1.497,3.018
2108.0,0.519,-1.253,2.425,0.736,1.497,3.018
2112.0,0.099,-1.0,2.442,0.85,1.613,3.327
2116.0,0.099,-1.0,2.442,0.85,1.613,3.327
2120.0,0.099,-1.0,2.422,0.85,1.613,3.327
2123.0,-0.208,-1.106,2.422,0.964,1.713,3.651
2127.0,-0.208,-1.106,2.422,0.964,1.713,3.651
2131.0,-0.423,-1.5,2.242,1.072,1.796,3.953
2135.0,-0.423,-1.5,2.242,1.072,1.796,3.953
2139.0,-0.423,-1.5,2.242,1.072,1.796,3.953
2142.0,-0.693,-2.052,1.945,1.166,1.885,4.204
2146.0,-0.693,-2.052,1.945,1.166,1.885,4.204
2150.0,-1.071,-2.6,1.58,1.242,1.996,4.393
2154.0,-1.071,-2.6,1.58,1.242,1.996,4.393
2158.0,-1.071,-2.6,1.58,1.242,1.996,4.393
2162.0,-1.463,-3.07,0.875,1.295,2.139,4.52
2165.0,-1.463,-3.07,0.875,1.295,2.139,4.52
2169.0,-2.06,-3.247,0.278,1.295,2.139,4.52
2173.0,-2.06,-3.247,0.278,1.314,2.355,4.597
2177.0,-2.06,-3.247,0.278,1.314,2.355,4.597
2181.0,-2.92,-3.179,-0.182,1.301,2.628,4.654
2185.0,-2.92,-3.179,-0.182,1.301,2.628,4.654
2188.0,-2.92,-3.179,-0.182,1.301,2.628,4.654
2192.0,-4.029,-3.188,-0.052,1.26,2.913,4.707
2196.0,-4.029,-3.188,-0.052,1.26,2.913,4.707
2200.0,-5.176,-3.492,0.313,1.212,3.137,4.739
2204.0,-5.176,-3.492,0.313,1.212,3.137,4.739
2208.0,-5.176,-3.492,0.313,1.212,3.137,4.739
2212.0,-6.087,-4.447,0.876,1.173,3.257,4.706
2215.0,-6.087,-4.447,0.876,1.173,3.257,4.706
2219.0,-6.751,-5.442,1.125,1.173,3.285,4.557
2223.0,-6.751,-5.442,1.125,1.173,3.285,4.557
2227.0,-6.751,-5.442,1.125,1.173,3.285,4.557
2231.0,-7.368,-6.044,1.046,1.244,3.282,4.298
2235.0,-7.368,-6.044,1.046,1.244,3.282,4.298
2238.0,-7.909,-6.464,0.764,1.244,3.282,4.298
2242.0,-7.909,-6.464,0.764,1.427,3.286,3.975
2246.0,-7.909,-6.464,0.764,1.427,3.286,3.975
2250.0,-8.419,-7.0,0.863,1.764,3.3,3.642
2254.0,-8.419,-7.0,0.863,1.764,3.3,3.642
2257.0,-8.419,-7.0,0.863,1.764,3.3,3.642
2261.0,-8.73,-7.801,2.033,2.283,3.285,3.33
2265.0,-8.73,-7.801,2.033,2.283,3.285,3.33
2269.0,-8.636,-8.277,2.763,2.94,3.195,3.041
2273.0,-8.636,-8.277,2.763,2.94,3.195,3.041
2277.0,-8.636,-8.277,2.763,2.94,3.195,3.041
2280.0,-8.108,-8.09,2.344,3.648,3.061,2.788
2284.0,-8.108,-8.09,2.344,3.648,3.061,2.788
2288.0,-7.217,-7.518,1.088,3.648,3.061,2.563
2292.0,-7.217,-7.518,1.088,4.297,2.979,2.563
2296.0,-7.217,-7.518,1.088,4.297,2.979,2.563
2299.0,-6.166,-6.956,-0.09,4.802,3.056,2.345
2303.0,-6.166,-6.956,-0.09,4.802,3.056,2.345
2307.0,-6.166,-6.503,-0.858,4.802,3.056,2.345
2311.0,-5.289,-6.503,-0.858,4.99,3.322,2.128
2315.0,-5.289,-6.503,-0.858,4.99,3.322,2.128
2319.0,-5.385,-6.137,-0.571,4.995,3.759,1.916
2323.0,-5.385,-6.137,-0.571,4.995,3.759,1.916
2327.0,-5.385,-6.137,0.347,4.995,3.759,1.916
2331.0,-6.696,-5.754,0.347,4.995,4.239,1.716
2334.0,-6.696,-5.754,0.347,4.995,4.239,1.716
2338.0,-8.482,-5.356,0.726,4.995,4.648,1.535
2342.0,-8.482,-5.356,0.726,4.995,4.648,1.535
2346.0,-8.482,-5.356,0.726,4.995,4.648,1.535
2350.0,-10.35,-4.632,0.674,4.995,4.953,1.371
2354.0,-10.35,-4.632,0.674,4.995,4.953,1.371
2358.0,-12.235,-3.82,0.581,4.995,5.015,1.24
2361.0,-12.235,-3.82,0.581,4.995,5.015,1.24
2365.0,-12.235,-3.82,0.581,4.995,5.015,1.24
2369.0,-14.535,-3.004,0.869,4.995,5.015,1.164
2373.0,-14.535,-3.004,0.869,4.995,5.015,1.164
2377.0,-17.472,-2.421,1.266,4.995,5.015,1.14
2381.0,-17.472,-2.421,1.266,4.995,5.015,1.14
2385.0,-17.472,-2.421,1.266,4.995,5.015,1.14
2389.0,-19.524,-2.264,1.604,4.995,5.015,1.135
2393.0,-19.524,-2.264,1.604,4.995,5.015,1.135
2397.0,-19.6,-2.431,1.942,4.995,5.015,1.099
2401.0,-19.6,-2.431,1.942,4.995,5.015,1.099
2404.0,-19.6,-2.431,1.942,4.995,5.015,1.099
2408.0,-19.6,-2.803,2.096,4.995,5.015,0.969
2412.0,-19.6,-2.803,2.096,4.995,5.015,0.969
2416.0,-19.6,-2.643,1.615,4.995,5.015,0.969
2420.0,-19.6,-2.643,1.615,4.995,5.015,0.717
2424.0,-19.6,-2.643,1.615,4.995,5.015,0.717
2428.0,-19.6,-1.496,0.708,4.995,5.015,0.411
2432.0,-19.6,-1.496,0.708,4.995,5.015,0.411
2436.0,-19.6,0.207,-0.264,4.995,5.015,0.411
2440.0,-19.6,0.207,-0.264,4.995,5.015,0.16
2443.0,-19.6,0.207,-0.264,4.995,5.015,0.16
2447.0,-19.571,1.748,-0.783,4.995,5.012,0.012
2451.0,-19.571,1.748,-0.783,4.995,5.012,0.012
2455.0,-19.571,1.748,-0.964,4.995,5.012,0.012
2459.0,-19.378,3.257,-0.964,4.995,4.958,-0.066
2463.0,-19.378,3.257,-0.964,4.995,4.958,-0.066
2467.0,-18.963,4.262,-0.63,4.971,4.824,-0.107
2471.0,-18.963,4.262,-0.63,4.971,4.824,-0.107
2475.0,-18.963,4.821,0.149,4.971,4.824,-0.107
2479.0,-18.766,4.821,0.149,4.535,4.631,-0.152
2483.0,-18.766,4.821,0.149,4.535,4.631,-0.152
2487.0,-18.821,5.064,0.785,3.764,4.367,-0.202
2491.0,-18.821,5.064,0.785,3.764,4.367,-0.202
2495.0,-18.821,5.064,1.023,3.764,4.367,-0.202
2499.0,-18.695,5.091,1.023,3.023,4.053,-0.243
2502.0,-18.695,5.091,1.023,3.023,4.053,-0.243
2506.0,-18.338,4.835,1.065,2.342,3.724,-0.265
2510.0,-18.338,4.835,1.065,2.342,3.724,-0.265
2514.0,-18.338,4.835,1.065,2.342,3.724,-0.265
2518.0,-18.118,4.574,0.903,1.733,3.397,-0.278
2522.0,-18.118,4.574,0.903,1.733,3.397,-0.278
2526.0,-17.686,4.306,0.424,1.185,3.087,-0.293
2530.0,-17.686,4.306,0.424,1.185,3.087,-0.293
2534.0,-17.686,4.306,0.424,1.185,3.087,-0.293
2538.0,-16.966,4.034,0.042,0.682,2.811,-0.327
2541.0,-16.966,4.034,0.042,0.682,2.811,-0.327
2545.0,-16.338,3.803,-0.267,0.22,2.561,-0.397
2549.0,-16.338,3.803,-0.267,0.22,2.561,-0.397
2553.0,-16.338,3.803,-0.267,0.22,2.561,-0.397
2557.0,-16.241,3.556,-0.633,-0.209,2.332,-0.494
2561.0,-16.241,3.556,-0.633,-0.209,2.332,-0.494
2566.0,-16.484,3.246,-0.925,-0.612,2.123,-0.592
2570.0,-16.484,3.246,-0.925,-0.612,2.123,-0.592
2574.0,-16.484,3.246,-0.893,-0.612,2.123,-0.592
2578.0,-16.564,2.909,-0.893,-0.991,1.924,-0.654
2582.0,-16.564,2.909,-0.893,-0.991,1.924,-0.654
2586.0,-16.419,2.494,-0.705,-1.342,1.731,-0.658
2590.0,-16.419,2.494,-0.705,-1.342,1.731,-0.658
2594.0,-16.032,2.02,-0.513,-1.342,1.553,-0.609
2598.0,-16.032,2.02,-0.513,-1.66,1.553,-0.609
2602.0,-16.032,2.02,-0.513,-1.66,1.553,-0.609
2606.0,-15.497,1.503,-0.294,-1.943,1.391,-0.52
2610.0,-15.497,1.503,-0.294,-1.943,1.391,-0.52
2615.0,-14.861,0.992,-0.116,-2.192,1.242,-0.418
2619.0,-14.861,0.992,-0.116,-2.192,1.242,-0.418
2623.0,-14.861,0.992,-0.116,-2.192,1.242,-0.418
2627.0,-14.127,0.561,0.036,-2.406,1.097,-0.321
2631.0,-14.127,0.561,0.036,-2.406,1.097,-0.321
2635.0,-13.22,0.186,0.039,-2.581,0.956,-0.243
2639.0,-13.22,0.186,0.039,-2.581,0.956,-0.243
2643.0,-13.22,0.186,0.038,-2.581,0.956,-0.243
2647.0,-12.168,-0.145,0.038,-2.713,0.832,-0.2
2651.0,-12.168,-0.145,0.038,-2.713,0.832,-0.2
2655.0,-11.277,-0.36,0.125,-2.794,0.728,-0.199
2659.0,-11.277,-0.36,0.125,-2.794,0.728,-0.199
2663.0,-10.49,-0.504,0.275,-2.794,0.728,-0.233
2667.0,-10.49,-0.504,0.275,-2.817,0.627,-0.233
2671.0,-10.49,-0.504,0.275,-2.817,0.627,-0.233
2675.0,-9.732,-0.549,0.492,-2.783,0.513,-0.279
2679.0,-9.732,-0.549,0.492,-2.783,0.513,-0.279
2683.0,-9.013,-0.622,0.695,-2.703,0.379,-0.315
2687.0,-9.013,-0.622,0.695,-2.703,0.379,-0.315
2691.0,-9.013,-0.622,0.695,-2.703,0.379,-0.315
2695.0,-8.332,-0.641,0.867,-2.589,0.24,-0.336
2699.0,-8.332,-0.641,0.867,-2.589,0.24,-0.336
2703.0,-7.59,-0.77,0.912,-2.449,0.111,-0.344
2707.0,-7.59,-0.77,0.912,-2.449,0.111,-0.344
2711.0,-7.59,-0.77,0.912,-2.449,0.111,-0.344
2715.0,-6.862,-0.826,1.165,-2.3,-0.013,-0.349
2719.0,-6.862,-0.826,1.165,-2.3,-0.013,-0.349
2723.0,-6.162,-0.751,1.158,-2.165,-0.147,-0.354
2727.0,-6.162,-0.751,1.158,-2.165,-0.147,-0.354
2732.0,-6.162,-0.751,0.9,-2.165,-0.147,-0.354
2736.0,-5.487,-0.705,0.9,-2.047,-0.261,-0.354
2740.0,-5.487,-0.705,0.9,-2.047,-0.261,-0.354
2744.0,-5.114,-0.597,1.195,-1.939,-0.36,-0.349
2748.0,-5.114,-0.597,1.195,-1.939,-0.36,-0.349
2752.0,-4.697,-0.603,1.357,-1.939,-0.36,-0.35
2756.0,-4.697,-0.603,1.357,-1.843,-0.472,-0.35
2760.0,-4.697,-0.603,1.357,-1.843,-0.472,-0.35
2764.0,-4.333,-0.69,1.41,-1.758,-0.582,-0.372
2768.0,-4.333,-0.69,1.41,-1.758,-0.582,-0.372
2772.0,-3.988,-0.772,1.343,-1.677,-0.668,-0.396
2776.0,-3.988,-0.772,1.343,-1.677,-0.668,-0.396
2780.0,-3.988,-0.772,1.343,-1.677,-0.668,-0.396
2785.0,-3.684,-0.882,1.237,-1.594,-0.731,-0.417
2789.0,-3.684,-0.882,1.237,-1.594,-0.731,-0.417
2793.0,-3.438,-1.012,1.136,-1.515,-0.783,-0.443
2797.0,-3.438,-1.012,1.136,-1.515,-0.783,-0.443
2801.0,-3.438,-0.97,1.071,-1.515,-0.783,-0.443
2805.0,-3.191,-0.97,1.071,-1.45,-0.833,-0.477
2809.0,-3.191,-0.97,1.071,-1.45,-0.833,-0.477
2813.0,-2.967,-0.722,1.065,-1.394,-0.873,-0.501
2817.0,-2.967,-0.722,1.065,-1.394,-0.873,-0.501
2821.0,-2.735,-0.52,1.056,-1.394,-0.899,-0.502
2825.0,-2.735,-0.52,1.056,-1.341,-0.899,-0.502
2829.0,-2.735,-0.52,1.056,-1.341,-0.899,-0.502
2834.0,-2.531,-0.416,1.053,-1.283,-0.911,-0.487
2838.0,-2.531,-0.416,1.053,-1.283,-0.911,-0.487
2842.0,-2.283,-0.357,1.014,-1.223,-0.908,-0.464
2846.0,-2.283,-0.357,1.014,-1.223,-0.908,-0.464
2850.0,-2.283,-0.357,1.014,-1.223,-0.908,-0.464
2854.0,-2.168,-0.385,0.963,-1.172,-0.9,-0.448
2858.0,-2.168,-0.385,0.963,-1.172,-0.9,-0.448
2862.0,-2.137,-0.437,0.913,-1.132,-0.888,-0.436
2866.0,-2.137,-0.437,0.913,-1.132,-0.888,-0.436
2870.0,-2.166,-0.453,0.912,-1.132,-0.888,-0.436
2874.0,-2.166,-0.453,0.912,-1.103,-0.872,-0.441
2878.0,-2.166,-0.453,0.912,-1.103,-0.872,-0.441
2882.0,-2.271,-0.374,0.937,-1.079,-0.86,-0.461
2887.0,-2.271,-0.374,0.937,-1.079,-0.86,-0.461
2891.0,-2.382,-0.243,0.845,-1.064,-0.856,-0.487
2895.0,-2.382,-0.243,0.845,-1.064,-0.856,-0.487
2899.0,-2.382,-0.243,0.845,-1.064,-0.856,-0.487
2903.0,-2.518,-0.227,0.864,-1.065,-0.852,-0.518
2907.0,-2.518,-0.227,0.864,-1.065,-0.852,-0.518
2911.0,-2.763,-0.3,0.836,-1.079,-0.839,-0.573
2915.0,-2.763,-0.3,0.836,-1.079,-0.839,-0.573
2919.0,-2.763,-0.3,0.84,-1.079,-0.839,-0.573
2923.0,-3.116,-0.197,0.84,-1.093,-0.801,-0.658
2927.0,-3.116,-0.197,0.84,-1.093,-0.801,-0.658
2931.0,-3.62,0.143,1.001,-1.088,-0.737,-0.733
2935.0,-3.62,0.143,1.001,-1.088,-0.737,-0.733
2939.0,-4.394,0.3,1.12,-1.088,-0.737,-0.774
2943.0,-4.394,0.3,1.12,-1.043,-0.645,-0.774
2947.0,-4.394,0.3,1.12,-1.043,-0.645,-0.774
2951.0,-5.515,0.211,1.284,-0.96,-0.521,-0.792
2955.0,-5.515,0.211,1.284,-0.96,-0.521,-0.792
2959.0,-7.198,-0.055,1.388,-0.96,-0.36,-0.823
2963.0,-7.198,-0.055,1.388,-0.849,-0.36,-0.823
2968.0,-7.198,-0.055,1.388,-0.849,-0.36,-0.823
2972.0,-9.65,-0.288,1.384,-0.705,-0.164,-0.881
2976.0,-9.65,-0.288,1.384,-0.705,-0.164,-0.881
2980.0,-12.797,-0.331,1.452,-0.524,0.036,-0.945
2984.0,-12.797,-0.331,1.452,-0.524,0.036,-0.945
2988.0,-12.797,-0.331,1.452,-0.524,0.036,-0.945
2992.0,-15.612,-0.187,1.603,-0.315,0.187,-0.981
2996.0,-15.612,-0.187,1.603,-0.315,0.187,-0.981
3000.0,-16.472,0.029,1.868,-0.103,0.249,-0.97
