deltaTime,Acc_X,Acc_Y,Acc_Z,Gyro_X,Gyro_Y,Gyro_Z
0.0,-8.617,-1.481,0.941,-0.702,-0.271,-0.085
3.0,-8.617,-1.481,0.941,-0.702,-0.271,-0.085
6.0,-8.617,-1.481,0.941,-0.702,-0.271,-0.085
9.0,-9.051,-1.749,0.981,-0.702,-0.271,-0.072
12.0,-9.051,-1.749,0.981,-0.777,-0.184,-0.072
15.0,-9.051,-1.749,0.981,-0.777,-0.184,-0.072
18.0,-9.051,-1.749,0.981,-0.777,-0.184,-0.072
21.0,-9.558,-2.008,1.073,-0.813,-0.126,-0.061
24.0,-9.558,-2.008,1.073,-0.813,-0.126,-0.061
27.0,-9.558,-2.008,1.073,-0.813,-0.126,-0.061
31.0,-9.843,-2.032,1.192,-0.813,-0.113,-0.048
35.0,-9.843,-2.032,1.192,-0.813,-0.113,-0.048
39.0,-9.843,-2.032,1.184,-0.813,-0.113,-0.048
42.0,-9.918,-1.978,1.184,-0.81,-0.122,-0.032
46.0,-9.918,-1.978,1.184,-0.81,-0.122,-0.032
50.0,-10.195,-1.962,1.299,-0.831,-0.136,-0.009
54.0,-10.195,-1.962,1.299,-0.831,-0.136,-0.009
58.0,-10.195,-1.962,1.362,-0.831,-0.136,-0.009
62.0,-10.56,-2.054,1.362,-0.878,-0.16,0.018
66.0,-10.56,-2.054,1.362,-0.878,-0.16,0.018
70.0,-10.718,-2.161,1.369,-0.931,-0.193,0.038
74.0,-10.718,-2.161,1.369,-0.931,-0.193,0.038
78.0,-10.718,-2.161,1.369,-0.931,-0.193,0.038
82.0,-10.599,-2.221,1.469,-0.972,-0.221,0.053
86.0,-10.599,-2.221,1.469,-0.972,-0.221,0.053
90.0,-10.378,-2.287,1.615,-1.004,-0.235,0.064
93.0,-10.378,-2.287,1.615,-1.004,-0.235,0.064
97.0,-10.378,-2.287,1.615,-1.004,-0.235,0.064
101.0,-10.387,-2.384,1.719,-1.024,-0.251,0.064
105.0,-10.387,-2.384,1.719,-1.024,-0.251,0.064
109.0,-10.46,-2.396,1.909,-1.017,-0.258,0.061
113.0,-10.46,-2.396,1.909,-1.017,-0.258,0.061
117.0,-10.46,-2.396,1.909,-1.017,-0.258,0.061
121.0,-10.296,-2.641,2.416,-0.985,-0.272,0.058
125.0,-10.296,-2.641,2.416,-0.985,-0.272,0.058
129.0,-10.152,-2.825,2.446,-0.914,-0.311,0.041
133.0,-10.152,-2.825,2.446,-0.914,-0.311,0.041
137.0,-10.152,-2.825,2.589,-0.914,-0.311,0.041
141.0,-10.592,-2.957,2.589,-0.809,-0.3,0.037
145.0,-10.592,-2.957,2.589,-0.809,-0.3,0.037
149.0,-11.181,-3.202,3.075,-0.672,-0.257,0.057
153.0,-11.181,-3.202,3.075,-0.672,-0.257,0.057
157.0,-11.181,-3.367,3.674,-0.672,-0.257,0.057
161.0,-11.384,-3.367,3.674,-0.492,-0.232,0.072
165.0,-11.384,-3.367,3.674,-0.492,-0.232,0.072
169.0,-11.23,-3.574,4.351,-0.274,-0.224,0.077
173.0,-11.23,-3.574,4.351,-0.274,-0.224,0.077
177.0,-11.044,-3.946,4.994,-0.274,-0.224,0.077
181.0,-11.044,-3.946,4.994,-0.012,-0.225,0.085
185.0,-11.044,-3.946,4.994,-0.012,-0.225,0.085
189.0,-10.92,-3.959,5.024,0.302,-0.233,0.091
193.0,-10.92,-3.959,5.024,0.302,-0.233,0.091
197.0,-10.887,-3.819,5.091,0.302,-0.233,0.095
201.0,-10.887,-3.819,5.091,0.604,-0.21,0.095
205.0,-10.887,-3.819,5.091,0.604,-0.21,0.095
209.0,-10.649,-3.566,4.795,0.871,-0.144,0.111
213.0,-10.649,-3.566,4.795,0.871,-0.144,0.111
216.0,-10.936,-3.242,4.18,0.871,-0.144,0.111
220.0,-10.936,-3.242,4.18,1.079,-0.073,0.094
224.0,-10.936,-3.242,4.18,1.079,-0.073,0.094
228.0,-11.668,-3.26,3.753,1.161,-0.07,0.001
232.0,-11.668,-3.26,3.753,1.161,-0.07,0.001
236.0,-11.668,-3.26,3.081,1.161,-0.07,0.001
240.0,-12.035,-3.693,3.081,1.176,-0.175,-0.067
244.0,-12.035,-3.693,3.081,1.176,-0.175,-0.067
248.0,-11.983,-4.104,2.656,1.231,-0.367,-0.102
252.0,-11.983,-4.104,2.656,1.231,-0.367,-0.102
256.0,-11.983,-4.178,2.59,1.231,-0.367,-0.102
260.0,-11.73,-4.178,2.59,1.334,-0.57,-0.14
264.0,-11.73,-4.178,2.59,1.334,-0.57,-0.14
268.0,-11.061,-4.112,2.341,1.451,-0.679,-0.202
272.0,-11.061,-4.112,2.341,1.451,-0.679,-0.202
276.0,-10.816,-3.984,2.448,1.451,-0.679,-0.202
280.0,-10.816,-3.984,2.448,1.558,-0.67,-0.26
284.0,-10.816,-3.984,2.448,1.558,-0.67,-0.26
288.0,-10.653,-3.916,2.788,1.642,-0.629,-0.311
292.0,-10.653,-3.916,2.788,1.642,-0.629,-0.311
296.0,-10.402,-3.845,3.083,1.642,-0.629,-0.367
300.0,-10.402,-3.845,3.083,1.697,-0.616,-0.367
304.0,-10.402,-3.845,3.083,1.697,-0.616,-0.367
308.0,-10.437,-3.994,3.403,1.727,-0.633,-0.449
312.0,-10.437,-3.994,3.403,1.727,-0.633,-0.449
316.0,-10.948,-4.234,3.964,1.753,-0.671,-0.565
320.0,-10.948,-4.234,3.964,1.753,-0.671,-0.565
324.0,-10.948,-4.234,3.964,1.753,-0.671,-0.565
328.0,-11.194,-4.293,4.506,1.793,-0.754,-0.698
332.0,-11.194,-4.293,4.506,1.793,-0.754,-0.698
336.0,-11.228,-4.342,4.67,1.831,-0.888,-0.817
340.0,-11.228,-4.342,4.67,1.831,-0.888,-0.817
344.0,-11.228,-4.342,4.67,1.831,-0.888,-0.817
348.0,-11.46,-4.444,4.841,1.853,-1.012,-0.901
352.0,-11.46,-4.444,4.841,1.853,-1.012,-0.901
356.0,-11.621,-4.58,5.145,1.862,-1.095,-0.941
360.0,-11.621,-4.58,5.145,1.862,-1.095,-0.941
364.0,-11.621,-4.58,5.145,1.862,-1.095,-0.941
368.0,-11.525,-4.969,5.454,1.858,-1.161,-0.953
372.0,-11.525,-4.969,5.454,1.858,-1.161,-0.953
376.0,-11.399,-5.636,5.612,1.856,-1.232,-0.984
380.0,-11.399,-5.636,5.612,1.856,-1.232,-0.984
384.0,-11.399,-5.636,5.612,1.856,-1.232,-0.984
388.0,-11.365,-6.485,5.868,1.887,-1.292,-1.061
392.0,-11.365,-6.485,5.868,1.887,-1.292,-1.061
396.0,-11.384,-7.401,6.546,1.99,-1.323,-1.185
400.0,-11.384,-7.401,6.546,1.99,-1.323,-1.185
404.0,-11.384,-7.401,7.178,1.99,-1.323,-1.185
408.0,-11.438,-8.246,7.178,2.178,-1.353,-1.349
412.0,-11.438,-8.246,7.178,2.178,-1.353,-1.349
416.0,-11.576,-8.682,7.58,2.45,-1.415,-1.543
420.0,-11.576,-8.682,7.58,2.45,-1.415,-1.543
424.0,-11.576,-9.129,7.504,2.45,-1.415,-1.543
428.0,-11.894,-9.129,7.504,2.793,-1.51,-1.733
432.0,-11.894,-9.129,7.504,2.793,-1.51,-1.733
436.0,-12.245,-9.295,7.25,3.169,-1.581,-1.873
440.0,-12.245,-9.295,7.25,3.169,-1.581,-1.873
444.0,-12.311,-9.197,7.151,3.169,-1.581,-1.873
448.0,-12.311,-9.197,7.151,3.524,-1.618,-1.941
452.0,-12.311,-9.197,7.151,3.524,-1.618,-1.941
456.0,-12.048,-8.996,7.044,3.833,-1.678,-1.98
460.0,-12.048,-8.996,7.044,3.833,-1.678,-1.98
464.0,-11.615,-8.835,6.933,3.833,-1.678,-2.055
468.0,-11.615,-8.835,6.933,4.117,-1.792,-2.055
472.0,-11.615,-8.835,6.933,4.117,-1.792,-2.055
476.0,-11.166,-8.636,6.712,4.386,-1.933,-2.191
479.0,-11.166,-8.636,6.712,4.386,-1.933,-2.191
483.0,-10.865,-8.369,6.613,4.386,-2.067,-2.359
487.0,-10.865,-8.369,6.613,4.629,-2.067,-2.359
491.0,-10.865,-8.369,6.613,4.629,-2.067,-2.359
495.0,-10.58,-8.092,6.523,4.838,-2.184,-2.505
499.0,-10.58,-8.092,6.523,4.838,-2.184,-2.505
503.0,-10.302,-8.065,6.496,4.975,-2.298,-2.612
507.0,-10.302,-8.065,6.496,4.975,-2.298,-2.612
511.0,-10.302,-8.065,6.496,4.975,-2.298,-2.612
515.0,-10.15,-8.174,6.609,4.995,-2.41,-2.694
519.0,-10.15,-8.174,6.609,4.995,-2.41,-2.694
523.0,-10.032,-8.052,6.68,4.995,-2.497,-2.758
527.0,-10.032,-8.052,6.68,4.995,-2.497,-2.758
531.0,-10.032,-8.052,6.68,4.995,-2.497,-2.758
535.0,-9.818,-7.976,6.937,4.995,-2.544,-2.807
539.0,-9.818,-7.976,6.937,4.995,-2.544,-2.807
543.0,-9.442,-7.666,6.88,4.99,-2.575,-2.882
547.0,-9.442,-7.666,6.88,4.99,-2.575,-2.882
551.0,-9.442,-7.666,6.88,4.99,-2.575,-2.882
555.0,-8.755,-7.194,6.654,4.87,-2.594,-3.008
559.0,-8.755,-7.194,6.654,4.87,-2.594,-3.008
563.0,-8.045,-6.642,6.347,4.581,-2.585,-3.193
567.0,-8.045,-6.642,6.347,4.581,-2.585,-3.193
571.0,-8.045,-6.642,6.347,4.581,-2.585,-3.193
574.0,-7.562,-6.084,6.081,4.237,-2.534,-3.392
578.0,-7.562,-6.084,6.081,4.237,-2.534,-3.392
582.0,-7.205,-5.535,5.505,3.898,-2.457,-3.561
586.0,-7.205,-5.535,5.505,3.898,-2.457,-3.561
590.0,-7.205,-5.535,5.505,3.898,-2.457,-3.561
594.0,-6.619,-5.232,4.883,3.596,-2.377,-3.667
598.0,-6.619,-5.232,4.883,3.596,-2.377,-3.667
602.0,-5.911,-5.062,4.384,3.596,-2.377,-3.721
606.0,-5.911,-5.062,4.384,3.37,-2.289,-3.721
610.0,-5.911,-5.062,4.384,3.37,-2.289,-3.721
614.0,-5.317,-4.668,3.942,3.255,-2.179,-3.724
617.0,-5.317,-4.668,3.942,3.255,-2.179,-3.724
621.0,-4.741,-4.379,3.575,3.255,-2.179,-3.724
625.0,-4.741,-4.379,3.575,3.265,-2.068,-3.665
629.0,-4.741,-4.379,3.575,3.265,-2.068,-3.665
633.0,-4.33,-4.321,3.462,3.4,-1.973,-3.544
637.0,-4.33,-4.321,3.462,3.4,-1.973,-3.544
641.0,-4.33,-4.035,3.388,3.4,-1.973,-3.544
645.0,-4.18,-4.035,3.388,3.662,-1.897,-3.357
649.0,-4.18,-4.035,3.388,3.662,-1.897,-3.357
653.0,-4.29,-3.61,3.304,4.024,-1.846,-3.09
656.0,-4.29,-3.61,3.304,4.024,-1.846,-3.09
660.0,-4.29,-3.61,3.425,4.024,-1.846,-3.09
664.0,-4.48,-3.081,3.425,4.44,-1.841,-2.751
668.0,-4.48,-3.081,3.425,4.44,-1.841,-2.751
672.0,-4.687,-2.357,3.613,4.839,-1.896,-2.358
676.0,-4.687,-2.357,3.613,4.839,-1.896,-2.358
680.0,-4.687,-2.357,3.613,4.839,-1.896,-2.358
684.0,-4.603,-1.601,3.653,4.992,-1.995,-1.936
688.0,-4.603,-1.601,3.653,4.992,-1.995,-1.936
692.0,-4.315,-0.86,3.696,4.995,-2.092,-1.525
696.0,-4.315,-0.86,3.696,4.995,-2.092,-1.525
699.0,-4.315,-0.86,3.696,4.995,-2.092,-1.525
703.0,-4.212,0.107,3.813,4.995,-2.165,-1.158
707.0,-4.212,0.107,3.813,4.995,-2.165,-1.158
711.0,-4.191,1.278,3.729,4.995,-2.232,-0.828
715.0,-4.191,1.278,3.729,4.995,-2.232,-0.828
719.0,-4.191,1.278,3.729,4.995,-2.232,-0.828
722.0,-4.103,2.473,3.669,4.995,-2.272,-0.524
726.0,-4.103,2.473,3.669,4.995,-2.272,-0.524
730.0,-4.095,3.761,3.672,4.995,-2.272,-0.253
734.0,-4.095,3.761,3.672,4.989,-2.274,-0.253
738.0,-4.095,3.761,3.672,4.989,-2.274,-0.253
742.0,-4.098,5.189,3.649,4.772,-2.244,0.007
745.0,-4.098,5.189,3.649,4.772,-2.244,0.007
749.0,-4.098,5.189,3.649,4.772,-2.244,0.007
753.0,-4.138,6.435,3.904,4.249,-2.185,0.291
756.0,-4.138,6.435,3.904,4.249,-2.185,0.291
760.0,-4.359,7.655,4.317,3.66,-2.114,0.598
764.0,-4.359,7.655,4.317,3.66,-2.114,0.598
768.0,-4.359,7.655,4.317,3.66,-2.114,0.598
771.0,-4.75,8.824,4.619,3.049,-2.048,0.935
775.0,-4.75,8.824,4.619,3.049,-2.048,0.935
779.0,-4.75,8.824,5.243,3.049,-2.048,0.935
783.0,-4.831,9.118,5.243,2.417,-1.974,1.283
786.0,-4.831,9.118,5.243,2.417,-1.974,1.283
790.0,-4.387,9.326,5.943,1.792,-1.902,1.551
794.0,-4.387,9.326,5.943,1.792,-1.902,1.551
798.0,-4.387,9.326,5.943,1.792,-1.902,1.551
801.0,-3.823,9.287,6.662,1.21,-1.83,1.735
805.0,-3.823,9.287,6.662,1.21,-1.83,1.735
809.0,-3.531,9.323,7.57,1.21,-1.83,1.735
812.0,-3.531,9.323,7.57,0.686,-1.739,1.861
816.0,-3.531,9.323,7.57,0.686,-1.739,1.861
820.0,-3.435,9.162,8.63,0.252,-1.661,1.972
824.0,-3.435,9.162,8.63,0.252,-1.661,1.972
827.0,-3.435,9.162,8.63,0.252,-1.661,1.972
831.0,-3.391,9.045,9.641,-0.071,-1.616,2.079
835.0,-3.391,9.045,9.641,-0.071,-1.616,2.079
839.0,-3.357,8.854,10.588,-0.071,-1.605,2.171
843.0,-3.357,8.854,10.588,-0.264,-1.605,2.171
847.0,-3.357,8.854,10.588,-0.264,-1.605,2.171
850.0,-3.343,8.891,11.063,-0.316,-1.634,2.254
854.0,-3.343,8.891,11.063,-0.316,-1.634,2.254
858.0,-2.827,8.788,11.214,-0.316,-1.634,2.401
862.0,-2.827,8.788,11.214,-0.276,-1.676,2.401
866.0,-2.827,8.788,11.214,-0.276,-1.676,2.401
870.0,-2.023,8.551,11.325,-0.189,-1.687,2.588
874.0,-2.023,8.551,11.325,-0.189,-1.687,2.588
878.0,-1.53,8.298,11.46,-0.189,-1.687,2.588
882.0,-1.53,8.298,11.46,-0.053,-1.663,2.74
886.0,-1.53,8.298,11.46,-0.053,-1.663,2.74
890.0,-1.409,8.103,11.772,0.119,-1.634,2.864
893.0,-1.409,8.103,11.772,0.119,-1.634,2.864
897.0,-1.409,8.103,12.27,0.119,-1.634,2.864
901.0,-1.428,7.898,12.27,0.309,-1.639,2.973
905.0,-1.428,7.898,12.27,0.309,-1.639,2.973
909.0,-1.68,7.865,12.566,0.525,-1.695,3.049
912.0,-1.68,7.865,12.566,0.525,-1.695,3.049
916.0,-1.68,7.865,12.566,0.525,-1.695,3.049
920.0,-1.941,7.8,12.483,0.769,-1.788,3.135
924.0,-1.941,7.8,12.483,0.769,-1.788,3.135
928.0,-1.854,7.678,12.27,0.769,-1.884,3.281
932.0,-1.854,7.678,12.27,1.003,-1.884,3.281
935.0,-1.854,7.678,12.27,1.003,-1.884,3.281
939.0,-1.605,7.292,11.923,1.201,-1.943,3.482
943.0,-1.605,7.292,11.923,1.201,-1.943,3.482
947.0,-1.605,6.98,11.694,1.201,-1.943,3.482
951.0,-1.356,6.98,11.694,1.349,-1.967,3.686
954.0,-1.356,6.98,11.694,1.349,-1.967,3.686
958.0,-1.153,6.858,11.59,1.437,-1.975,3.875
962.0,-1.153,6.858,11.59,1.437,-1.975,3.875
966.0,-1.153,6.858,11.59,1.437,-1.975,3.875
970.0,-1.086,6.745,11.471,1.485,-1.961,4.029
974.0,-1.086,6.745,11.471,1.485,-1.961,4.029
977.0,-0.987,6.534,10.994,1.511,-1.933,4.122
981.0,-0.987,6.534,10.994,1.511,-1.933,4.122
985.0,-0.987,6.534,10.994,1.511,-1.933,4.122
989.0,-0.713,6.67,10.415,1.516,-1.877,4.143
993.0,-0.713,6.67,10.415,1.516,-1.877,4.143
997.0,-0.39,6.966,9.73,1.516,-1.877,4.148
1000.0,-0.39,6.966,9.73,1.498,-1.771,4.148
1004.0,-0.39,6.966,9.73,1.498,-1.771,4.148
1008.0,-0.13,7.25,9.197,1.453,-1.599,4.186
1012.0,-0.13,7.25,9.197,1.453,-1.599,4.186
1016.0,-0.13,7.25,9.197,1.453,-1.599,4.186
1019.0,-0.004,7.138,8.888,1.384,-1.379,4.264
1023.0,-0.004,7.138,8.888,1.384,-1.379,4.264
1027.0,-0.013,6.772,8.757,1.305,-1.154,4.336
1031.0,-0.013,6.772,8.757,1.305,-1.154,4.336
1035.0,-0.013,6.772,8.757,1.305,-1.154,4.336
1038.0,-0.072,6.477,8.974,1.228,-0.963,4.377
1042.0,-0.072,6.477,8.974,1.228,-0.963,4.377
1046.0,-0.368,5.932,9.278,1.228,-0.835,4.421
1050.0,-0.368,5.932,9.278,1.142,-0.835,4.421
1054.0,-0.368,5.932,9.278,1.142,-0.835,4.421
1058.0,-0.533,5.177,9.332,1.029,-0.769,4.52
1061.0,-0.533,5.177,9.332,1.029,-0.769,4.52
1065.0,-0.533,5.177,9.269,1.029,-0.769,4.52
1069.0,-0.569,4.284,9.269,0.912,-0.718,4.667
1073.0,-0.569,4.284,9.269,0.912,-0.718,4.667
1077.0,-0.427,3.24,9.053,0.823,-0.673,4.807
1080.0,-0.427,3.24,9.053,0.823,-0.673,4.807
1084.0,-0.427,3.24,9.053,0.823,-0.673,4.807
1088.0,-0.2,2.445,8.563,0.76,-0.638,4.908
1092.0,-0.2,2.445,8.563,0.76,-0.638,4.908
1096.0,-0.047,1.892,7.658,0.696,-0.583,4.981
1100.0,-0.047,1.892,7.658,0.696,-0.583,4.981
1103.0,-0.047,1.892,7.658,0.696,-0.583,4.981
1107.0,0.024,1.658,6.801,0.605,-0.492,5.01
1111.0,0.024,1.658,6.801,0.605,-0.492,5.01
1115.0,0.024,1.323,6.127,0.605,-0.492,5.01
1118.0,-0.129,1.323,6.127,0.487,-0.386,5.013
1122.0,-0.129,1.323,6.127,0.487,-0.386,5.013
1126.0,-0.416,0.312,5.727,0.325,-0.303,5.013
1130.0,-0.416,0.312,5.727,0.325,-0.303,5.013
1134.0,-0.416,0.312,5.727,0.325,-0.303,5.013
1137.0,-0.725,-0.844,5.514,0.127,-0.241,5.013
1141.0,-0.725,-0.844,5.514,0.127,-0.241,5.013
1145.0,-1.254,-1.762,5.633,-0.079,-0.185,5.013
1149.0,-1.254,-1.762,5.633,-0.079,-0.185,5.013
1153.0,-1.254,-1.762,5.633,-0.079,-0.185,5.013
1157.0,-2.144,-2.642,5.422,-0.282,-0.149,5.013
1161.0,-2.144,-2.642,5.422,-0.282,-0.149,5.013
1165.0,-3.216,-3.794,5.248,-0.499,-0.131,5.009
1169.0,-3.216,-3.794,5.248,-0.499,-0.131,5.009
1173.0,-3.216,-3.794,5.248,-0.499,-0.131,5.009
1177.0,-4.082,-5.626,5.224,-0.722,-0.14,4.91
1181.0,-4.082,-5.626,5.224,-0.722,-0.14,4.91
1185.0,-4.683,-7.696,5.267,-0.915,-0.198,4.649
1189.0,-4.683,-7.696,5.267,-0.915,-0.198,4.649
1193.0,-4.683,-7.696,5.267,-0.915,-0.198,4.649
1197.0,-5.101,-9.355,4.533,-1.019,-0.302,4.295
1201.0,-5.101,-9.355,4.533,-1.019,-0.302,4.295
1205.0,-5.162,-10.656,3.864,-0.991,-0.417,3.898
1209.0,-5.162,-10.656,3.864,-0.991,-0.417,3.898
1213.0,-5.162,-11.821,3.605,-0.991,-0.417,3.898
1217.0,-4.329,-11.821,3.605,-0.814,-0.554,3.516
1222.0,-4.329,-11.821,3.605,-0.814,-0.554,3.516
1226.0,-2.737,-12.912,3.799,-0.471,-0.703,3.177
1230.0,-2.737,-12.912,3.799,-0.471,-0.703,3.177
1234.0,-1.277,-13.784,4.089,-0.471,-0.816,2.876
1238.0,-1.277,-13.784,4.089,0.018,-0.816,2.876
1242.0,-1.277,-13.784,4.089,0.018,-0.816,2.876
1246.0,-0.338,-14.435,4.155,0.565,-0.877,2.596
1250.0,-0.338,-14.435,4.155,0.565,-0.877,2.596
1254.0,0.788,-14.661,4.024,1.097,-0.913,2.316
1258.0,0.788,-14.661,4.024,1.097,-0.913,2.316
1262.0,0.788,-14.661,4.024,1.097,-0.913,2.316
1266.0,2.381,-14.314,4.104,1.597,-0.934,2.027
1269.0,2.381,-14.314,4.104,1.597,-0.934,2.027
1273.0,4.009,-13.333,3.997,2.044,-0.928,1.743
1277.0,4.009,-13.333,3.997,2.044,-0.928,1.743
1281.0,4.009,-13.333,3.997,2.044,-0.928,1.743
1285.0,5.347,-12.123,3.641,2.383,-0.867,1.487
1289.0,5.347,-12.123,3.641,2.383,-0.867,1.487
1293.0,6.526,-10.79,3.571,2.383,-0.769,1.252
1297.0,6.526,-10.79,3.571,2.579,-0.769,1.252
1301.0,6.526,-10.79,3.571,2.579,-0.769,1.252
1305.0,7.533,-9.48,3.738,2.617,-0.683,1.031
1308.0,7.533,-9.48,3.738,2.617,-0.683,1.031
1312.0,8.203,-8.263,3.978,2.617,-0.683,1.031
1316.0,8.203,-8.263,3.978,2.511,-0.61,0.819
1320.0,8.203,-8.263,3.978,2.511,-0.61,0.819
1324.0,8.536,-7.259,3.92,2.287,-0.538,0.618
1327.0,8.536,-7.259,3.92,2.287,-0.538,0.618
1331.0,8.536,-7.259,3.92,2.287,-0.538,0.618
1335.0,8.824,-6.36,3.933,1.981,-0.457,0.43
1339.0,8.824,-6.36,3.933,1.981,-0.457,0.43
1343.0,9.297,-5.6,4.544,1.637,-0.392,0.267
1347.0,9.297,-5.6,4.544,1.637,-0.392,0.267
1350.0,9.297,-5.6,4.544,1.637,-0.392,0.267
1354.0,9.261,-5.218,5.21,1.312,-0.359,0.137
1358.0,9.261,-5.218,5.21,1.312,-0.359,0.137
1362.0,8.683,-4.951,5.168,1.312,-0.359,0.027
1366.0,8.683,-4.951,5.168,1.044,-0.329,0.027
1370.0,8.683,-4.951,5.168,1.044,-0.329,0.027
1373.0,8.658,-4.604,5.099,0.834,-0.273,-0.05
1377.0,8.658,-4.604,5.099,0.834,-0.273,-0.05
1381.0,8.658,-4.396,5.396,0.834,-0.273,-0.05
1385.0,9.217,-4.396,5.396,0.675,-0.209,-0.083
1389.0,9.217,-4.396,5.396,0.675,-0.209,-0.083
1393.0,9.348,-4.345,5.351,0.57,-0.139,-0.098
1397.0,9.348,-4.345,5.351,0.57,-0.139,-0.098
1401.0,9.348,-4.345,5.117,0.57,-0.139,-0.098
1405.0,9.007,-4.119,5.117,0.515,-0.054,-0.123
1408.0,9.007,-4.119,5.117,0.515,-0.054,-0.123
1412.0,8.749,-3.653,5.295,0.489,0.015,-0.147
1416.0,8.749,-3.653,5.295,0.489,0.015,-0.147
1420.0,8.749,-3.653,5.295,0.489,0.015,-0.147
1424.0,8.581,-3.092,5.58,0.475,0.051,-0.156
1428.0,8.581,-3.092,5.58,0.475,0.051,-0.156
1431.0,8.267,-2.678,5.645,0.461,0.068,-0.142
1435.0,8.267,-2.678,5.645,0.461,0.068,-0.142
1439.0,8.267,-2.678,5.645,0.461,0.068,-0.142
1443.0,8.066,-2.348,5.682,0.443,0.081,-0.105
1447.0,8.066,-2.348,5.682,0.443,0.081,-0.105
1451.0,7.954,-2.099,5.994,0.443,0.081,-0.049
1454.0,7.954,-2.099,5.994,0.429,0.078,-0.049
1458.0,7.954,-2.099,5.994,0.429,0.078,-0.049
1462.0,7.67,-1.863,6.063,0.427,0.054,0.013
1466.0,7.67,-1.863,6.063,0.427,0.054,0.013
1470.0,7.67,-1.863,6.063,0.427,0.054,0.013
1473.0,7.467,-1.749,6.053,0.435,0.049,0.079
1477.0,7.467,-1.749,6.053,0.435,0.049,0.079
1481.0,7.429,-1.741,6.235,0.45,0.054,0.152
1484.0,7.429,-1.741,6.235,0.45,0.054,0.152
1488.0,7.429,-1.741,6.235,0.45,0.054,0.152
1492.0,7.239,-1.768,6.302,0.476,0.052,0.219
1496.0,7.239,-1.768,6.302,0.476,0.052,0.219
1499.0,7.239,-1.768,6.232,0.476,0.052,0.219
1503.0,6.701,-1.823,6.232,0.498,0.059,0.275
1507.0,6.701,-1.823,6.232,0.498,0.059,0.275
1511.0,6.391,-1.738,6.362,0.506,0.083,0.327
1514.0,6.391,-1.738,6.362,0.506,0.083,0.327
1518.0,6.391,-1.738,6.362,0.506,0.083,0.327
1522.0,6.644,-1.679,6.742,0.501,0.105,0.366
1525.0,6.644,-1.679,6.742,0.501,0.105,0.366
1529.0,6.644,-1.529,6.736,0.501,0.105,0.366
1533.0,6.772,-1.529,6.736,0.469,0.102,0.38
1537.0,6.772,-1.529,6.736,0.469,0.102,0.38
1540.0,6.615,-1.244,6.388,0.397,0.096,0.368
1544.0,6.615,-1.244,6.388,0.397,0.096,0.368
1548.0,6.615,-1.244,6.388,0.397,0.096,0.368
1552.0,6.748,-1.095,6.315,0.288,0.119,0.342
1555.0,6.748,-1.095,6.315,0.288,0.119,0.342
1559.0,7.012,-0.924,6.541,0.288,0.119,0.342
1563.0,7.012,-0.924,6.541,0.144,0.151,0.315
1567.0,7.012,-0.924,6.541,0.144,0.151,0.315
1570.0,7.095,-0.91,6.729,-0.009,0.178,0.3
1574.0,7.095,-0.91,6.729,-0.009,0.178,0.3
1578.0,7.095,-0.91,6.729,-0.009,0.178,0.3
1582.0,6.866,-1.012,6.756,-0.156,0.206,0.302
1586.0,6.866,-1.012,6.756,-0.156,0.206,0.302
1589.0,6.599,-1.247,6.811,-0.282,0.248,0.326
1593.0,6.599,-1.247,6.811,-0.282,0.248,0.326
1597.0,6.599,-1.247,6.811,-0.282,0.248,0.326
1601.0,6.282,-1.65,6.946,-0.371,0.292,0.37
1605.0,6.282,-1.65,6.946,-0.371,0.292,0.37
1608.0,6.021,-2.053,7.125,-0.371,0.292,0.37
1612.0,6.021,-2.053,7.125,-0.411,0.335,0.421
1616.0,6.021,-2.053,7.125,-0.411,0.335,0.421
1620.0,5.845,-2.518,7.452,-0.395,0.373,0.469
1624.0,5.845,-2.518,7.452,-0.395,0.373,0.469
1628.0,5.845,-2.518,7.452,-0.395,0.373,0.469
1631.0,5.663,-2.772,7.682,-0.334,0.389,0.502
1635.0,5.663,-2.772,7.682,-0.334,0.389,0.502
1639.0,5.482,-2.827,7.689,-0.254,0.393,0.517
1643.0,5.482,-2.827,7.689,-0.254,0.393,0.517
1647.0,5.482,-2.827,7.689,-0.254,0.393,0.517
1650.0,5.533,-2.769,7.864,-0.176,0.397,0.517
1654.0,5.533,-2.769,7.864,-0.176,0.397,0.517
1658.0,5.796,-2.633,8.121,-0.176,0.389,0.509
1662.0,5.796,-2.633,8.121,-0.115,0.389,0.509
1666.0,5.796,-2.633,8.121,-0.115,0.389,0.509
1670.0,6.017,-2.41,8.313,-0.072,0.361,0.491
1673.0,6.017,-2.41,8.313,-0.072,0.361,0.491
1677.0,6.017,-2.213,8.283,-0.072,0.361,0.491
1681.0,6.062,-2.213,8.283,-0.048,0.313,0.469
1685.0,6.062,-2.213,8.283,-0.048,0.313,0.469
1689.0,5.993,-2.057,8.074,-0.045,0.272,0.452
1693.0,5.993,-2.057,8.074,-0.045,0.272,0.452
1696.0,5.993,-2.057,8.074,-0.045,0.272,0.452
1700.0,6.023,-2.063,7.929,-0.057,0.269,0.449
1704.0,6.023,-2.063,7.929,-0.057,0.269,0.449
1708.0,6.245,-2.127,8.079,-0.069,0.285,0.46
1712.0,6.245,-2.127,8.079,-0.069,0.285,0.46
1715.0,6.245,-2.127,8.079,-0.069,0.285,0.46
1719.0,6.387,-2.311,8.221,-0.067,0.292,0.473
1723.0,6.387,-2.311,8.221,-0.067,0.292,0.473
1727.0,6.322,-2.456,8.082,-0.067,0.292,0.473
1731.0,6.322,-2.456,8.082,-0.041,0.293,0.482
1735.0,6.322,-2.456,8.082,-0.041,0.293,0.482
1738.0,6.148,-2.533,7.767,-0.0,0.304,0.491
1742.0,6.148,-2.533,7.767,-0.0,0.304,0.491
1746.0,6.148,-2.533,7.767,-0.0,0.304,0.491
1750.0,6.049,-2.453,7.825,0.047,0.317,0.508
1754.0,6.049,-2.453,7.825,0.047,0.317,0.508
1757.0,6.029,-2.425,7.991,0.101,0.324,0.541
1761.0,6.029,-2.425,7.991,0.101,0.324,0.541
1765.0,6.029,-2.425,7.991,0.101,0.324,0.541
1768.0,5.886,-2.493,8.048,0.159,0.325,0.58
1772.0,5.886,-2.493,8.048,0.159,0.325,0.58
1776.0,5.886,-2.493,7.93,0.159,0.325,0.58
1780.0,5.731,-2.512,7.93,0.215,0.308,0.607
1783.0,5.731,-2.512,7.93,0.215,0.308,0.607
1787.0,5.591,-2.45,7.644,0.261,0.292,0.616
1791.0,5.591,-2.45,7.644,0.261,0.292,0.616
1795.0,5.591,-2.45,7.644,0.261,0.292,0.616
1798.0,5.507,-2.437,7.43,0.278,0.306,0.621
1802.0,5.507,-2.437,7.43,0.278,0.306,0.621
1806.0,5.563,-2.413,7.588,0.278,0.306,0.621
1810.0,5.563,-2.413,7.588,0.275,0.343,0.637
1813.0,5.563,-2.413,7.588,0.275,0.343,0.637
1817.0,5.48,-2.44,7.684,0.263,0.368,0.658
1821.0,5.48,-2.44,7.684,0.263,0.368,0.658
1824.0,5.48,-2.44,7.684,0.263,0.368,0.658
1828.0,5.115,-2.436,7.659,0.24,0.387,0.677
1832.0,5.115,-2.436,7.659,0.24,0.387,0.677
1836.0,4.899,-2.682,8.042,0.24,0.387,0.694
1839.0,4.899,-2.682,8.042,0.206,0.413,0.694
1843.0,4.899,-2.682,8.042,0.206,0.413,0.694
1847.0,4.74,-3.018,8.349,0.166,0.423,0.697
1851.0,4.74,-3.018,8.349,0.166,0.423,0.697
1854.0,4.74,-3.018,8.349,0.166,0.423,0.697
1858.0,4.476,-3.088,8.399,0.122,0.416,0.679
1862.0,4.476,-3.088,8.399,0.122,0.416,0.679
1866.0,4.388,-3.047,8.471,0.122,0.408,0.645
1869.0,4.388,-3.047,8.471,0.067,0.408,0.645
1873.0,4.388,-3.047,8.471,0.067,0.408,0.645
1877.0,4.552,-3.116,8.539,-0.002,0.399,0.616
1881.0,4.552,-3.116,8.539,-0.002,0.399,0.616
1884.0,4.552,-3.116,8.615,-0.002,0.399,0.616
1888.0,4.758,-3.153,8.615,-0.067,0.385,0.588
1892.0,4.758,-3.153,8.615,-0.067,0.385,0.588
1896.0,4.902,-3.073,8.724,-0.118,0.359,0.556
1900.0,4.902,-3.073,8.724,-0.118,0.359,0.556
1903.0,4.902,-3.073,8.724,-0.118,0.359,0.556
1907.0,4.893,-3.018,8.61,-0.157,0.327,0.534
1911.0,4.893,-3.018,8.61,-0.157,0.327,0.534
1915.0,4.834,-2.998,8.486,-0.188,0.317,0.536
1919.0,4.834,-2.998,8.486,-0.188,0.317,0.536
1923.0,4.834,-2.998,8.486,-0.188,0.317,0.536
1926.0,5.143,-3.068,8.547,-0.209,0.332,0.555
1930.0,5.143,-3.068,8.547,-0.209,0.332,0.555
1934.0,5.143,-3.174,8.499,-0.209,0.332,0.555
1938.0,5.582,-3.174,8.499,-0.209,0.348,0.574
1942.0,5.582,-3.174,8.499,-0.209,0.348,0.574
1945.0,5.572,-3.208,8.076,-0.188,0.353,0.581
1949.0,5.572,-3.208,8.076,-0.188,0.353,0.581
1953.0,5.572,-3.208,8.076,-0.188,0.353,0.581
1957.0,5.228,-2.98,7.71,-0.154,0.383,0.588
1961.0,5.228,-2.98,7.71,-0.154,0.383,0.588
1965.0,4.975,-2.74,7.642,-0.118,0.426,0.62
1968.0,4.975,-2.74,7.642,-0.118,0.426,0.62
1972.0,4.975,-2.74,7.642,-0.118,0.426,0.62
1976.0,4.613,-2.418,7.347,-0.083,0.452,0.682
1980.0,4.613,-2.418,7.347,-0.083,0.452,0.682
1984.0,4.186,-1.927,6.767,-0.083,0.452,0.766
1987.0,4.186,-1.927,6.767,-0.052,0.496,0.766
1991.0,4.186,-1.927,6.767,-0.052,0.496,0.766
1995.0,4.0,-1.528,6.204,-0.028,0.561,0.874
1999.0,4.0,-1.528,6.204,-0.028,0.561,0.874
2003.0,4.0,-1.528,6.204,-0.028,0.561,0.874
2007.0,4.058,-1.123,5.725,-0.014,0.629,0.998
2010.0,4.058,-1.123,5.725,-0.014,0.629,0.998
2014.0,4.135,-0.788,5.032,-0.009,0.717,1.132
2018.0,4.135,-0.788,5.032,-0.009,0.717,1.132
2022.0,4.135,-0.788,5.032,-0.009,0.717,1.132
2026.0,4.183,-0.38,4.392,-0.012,0.863,1.28
2029.0,4.183,-0.38,4.392,-0.012,0.863,1.28
2033.0,4.42,0.114,3.764,-0.012,1.076,1.457
2037.0,4.42,0.114,3.764,-0.016,1.076,1.457
2041.0,4.42,0.114,3.764,-0.016,1.076,1.457
2044.0,4.819,0.401,3.492,-0.009,1.343,1.679
2048.0,4.819,0.401,3.492,-0.009,1.343,1.679
2052.0,4.819,0.401,3.492,-0.009,1.343,1.679
2056.0,5.106,0.481,3.15,0.01,1.631,1.93
2059.0,5.106,0.481,3.15,0.01,1.631,1.93
2063.0,4.941,0.439,2.804,0.037,1.961,2.187
2067.0,4.941,0.439,2.804,0.037,1.961,2.187
2070.0,4.941,0.439,2.804,0.037,1.961,2.187
2074.0,4.202,0.269,3.158,0.069,2.35,2.425
2078.0,4.202,0.269,3.158,0.069,2.35,2.425
2081.0,4.202,0.269,3.158,0.069,2.35,2.425
2085.0,2.825,0.192,3.628,0.116,2.726,2.647
2089.0,2.825,0.192,3.628,0.116,2.726,2.647
2092.0,1.558,-0.092,3.873,0.116,2.726,2.647
2096.0,1.558,-0.092,3.873,0.183,3.037,2.885
2100.0,1.558,-0.092,3.873,0.183,3.037,2.885
2103.0,0.79,-0.741,3.757,0.256,3.324,3.101
2107.0,0.79,-0.741,3.757,0.256,3.324,3.101
2111.0,0.79,-0.741,3.757,0.256,3.324,3.101
2115.0,-0.075,-1.348,3.86,0.319,3.624,3.242
2118.0,-0.075,-1.348,3.86,0.319,3.624,3.242
2122.0,-0.953,-2.02,3.711,0.38,3.897,3.323
2126.0,-0.953,-2.02,3.711,0.38,3.897,3.323
2130.0,-0.953,-2.02,3.711,0.38,3.897,3.323
2134.0,-1.725,-2.592,3.307,0.462,4.157,3.356
2137.0,-1.725,-2.592,3.307,0.462,4.157,3.356
2141.0,-1.725,-3.003,2.897,0.462,4.157,3.356
2145.0,-2.6,-3.003,2.897,0.587,4.46,3.367
2149.0,-2.6,-3.003,2.897,0.587,4.46,3.367
2153.0,-3.928,-3.24,2.599,0.783,4.785,3.393
2157.0,-3.928,-3.24,2.599,0.783,4.785,3.393
2160.0,-3.928,-3.24,2.599,0.783,4.785,3.393
2164.0,-6.083,-3.371,3.072,1.054,4.993,3.439
2168.0,-6.083,-3.371,3.072,1.054,4.993,3.439
2172.0,-8.479,-4.4,4.967,1.428,5.015,3.469
2176.0,-8.479,-4.4,4.967,1.428,5.015,3.469
2179.0,-8.479,-4.4,4.967,1.428,5.015,3.469
2183.0,-10.25,-6.051,5.738,1.955,4.932,3.391
2187.0,-10.25,-6.051,5.738,1.955,4.932,3.391
2191.0,-12.947,-6.84,4.942,1.955,4.545,3.168
2195.0,-12.947,-6.84,4.942,2.614,4.545,3.168
2199.0,-12.947,-6.84,4.942,2.614,4.545,3.168
2203.0,-15.852,-7.022,3.27,3.323,4.127,2.867
2207.0,-15.852,-7.022,3.27,3.323,4.127,2.867
2211.0,-16.562,-6.391,1.759,3.323,4.127,2.867
2215.0,-16.562,-6.391,1.759,4.024,3.824,2.59
2218.0,-16.562,-6.391,1.759,4.024,3.824,2.59
2222.0,-14.111,-5.554,1.143,4.649,3.626,2.383
2226.0,-14.111,-5.554,1.143,4.649,3.626,2.383
2230.0,-10.452,-4.991,0.634,4.649,3.626,2.383
2234.0,-10.452,-4.991,0.634,4.976,3.554,2.14
2238.0,-10.452,-4.991,0.634,4.976,3.554,2.14
2242.0,-7.805,-4.304,0.27,4.995,3.662,1.763
2246.0,-7.805,-4.304,0.27,4.995,3.662,1.763
2250.0,-7.805,-4.304,0.27,4.995,3.662,1.763
2253.0,-6.561,-3.629,-0.148,4.995,3.927,1.253
2257.0,-6.561,-3.629,-0.148,4.995,3.927,1.253
2261.0,-6.685,-2.91,-0.843,4.995,4.289,0.654
2265.0,-6.685,-2.91,-0.843,4.995,4.289,0.654
2269.0,-6.685,-2.91,-0.843,4.995,4.289,0.654
2273.0,-8.037,-2.081,-0.922,4.995,4.686,0.053
2277.0,-8.037,-2.081,-0.922,4.995,4.686,0.053
2281.0,-10.177,-1.242,-0.343,4.995,4.968,-0.484
2285.0,-10.177,-1.242,-0.343,4.995,4.968,-0.484
2289.0,-10.177,-1.242,-0.343,4.995,4.968,-0.484
2293.0,-12.59,-0.438,-0.155,4.995,5.015,-0.941
2297.0,-12.59,-0.438,-0.155,4.995,5.015,-0.941
2301.0,-14.996,0.645,0.364,4.995,5.015,-1.313
2305.0,-14.996,0.645,0.364,4.995,5.015,-1.313
2309.0,-14.996,0.645,1.31,4.995,5.015,-1.313
2313.0,-17.253,1.804,1.31,4.995,5.005,-1.592
2317.0,-17.253,1.804,1.31,4.995,5.005,-1.592
2321.0,-18.723,2.469,1.865,4.995,4.852,-1.793
2325.0,-18.723,2.469,1.865,4.995,4.852,-1.793
2328.0,-18.723,2.469,1.865,4.995,4.852,-1.793
2332.0,-18.821,2.746,2.316,4.995,4.583,-1.965
2336.0,-18.821,2.746,2.316,4.995,4.583,-1.965
2340.0,-17.794,2.734,2.764,4.993,4.343,-2.166
2344.0,-17.794,2.734,2.764,4.993,4.343,-2.166
2348.0,-17.794,2.734,2.764,4.993,4.343,-2.166
2352.0,-16.518,2.658,3.178,4.737,4.173,-2.408
2356.0,-16.518,2.658,3.178,4.737,4.173,-2.408
2360.0,-15.762,2.487,3.551,4.006,4.084,-2.66
2364.0,-15.762,2.487,3.551,4.006,4.084,-2.66
2367.0,-15.762,2.487,3.551,4.006,4.084,-2.66
2371.0,-15.681,2.303,3.858,3.267,4.064,-2.895
2375.0,-15.681,2.303,3.858,3.267,4.064,-2.895
2379.0,-16.05,2.314,4.03,2.601,4.084,-3.076
2383.0,-16.05,2.314,4.03,2.601,4.084,-3.076
2387.0,-16.05,2.314,4.03,2.601,4.084,-3.076
2391.0,-16.518,2.429,4.041,2.01,4.122,-3.166
2395.0,-16.518,2.429,4.041,2.01,4.122,-3.166
2399.0,-16.813,2.517,3.934,1.488,4.155,-3.157
2403.0,-16.813,2.517,3.934,1.488,4.155,-3.157
2407.0,-16.813,2.517,3.934,1.488,4.155,-3.157
2410.0,-16.824,2.501,3.826,1.027,4.163,-3.071
2414.0,-16.824,2.501,3.826,1.027,4.163,-3.071
2418.0,-16.867,2.399,3.618,1.027,4.131,-2.939
2422.0,-16.867,2.399,3.618,0.618,4.131,-2.939
2426.0,-16.867,2.399,3.618,0.618,4.131,-2.939
2430.0,-16.896,2.349,3.48,0.254,4.06,-2.784
2434.0,-16.896,2.349,3.48,0.254,4.06,-2.784
2438.0,-16.617,2.243,3.408,0.254,4.06,-2.623
2442.0,-16.617,2.243,3.408,-0.066,3.944,-2.623
2446.0,-16.617,2.243,3.408,-0.066,3.944,-2.623
2450.0,-16.29,1.957,3.319,-0.349,3.787,-2.473
2454.0,-16.29,1.957,3.319,-0.349,3.787,-2.473
2458.0,-16.047,1.705,3.17,-0.349,3.617,-2.351
2462.0,-16.047,1.705,3.17,-0.602,3.617,-2.351
2466.0,-16.047,1.705,3.17,-0.602,3.617,-2.351
2470.0,-15.864,1.511,3.19,-0.84,3.445,-2.245
2474.0,-15.864,1.511,3.19,-0.84,3.445,-2.245
2478.0,-15.943,1.393,3.23,-1.068,3.268,-2.137
2482.0,-15.943,1.393,3.23,-1.068,3.268,-2.137
2486.0,-15.943,1.393,3.23,-1.068,3.268,-2.137
2490.0,-16.12,1.229,3.348,-1.283,3.094,-2.015
2494.0,-16.12,1.229,3.348,-1.283,3.094,-2.015
2498.0,-16.158,1.07,3.534,-1.483,2.909,-1.88
2502.0,-16.158,1.07,3.534,-1.483,2.909,-1.88
2506.0,-16.158,1.07,3.534,-1.483,2.909,-1.88
2510.0,-15.967,0.945,3.653,-1.663,2.695,-1.735
2514.0,-15.967,0.945,3.653,-1.663,2.695,-1.735
2518.0,-15.793,0.927,3.714,-1.827,2.459,-1.585
2522.0,-15.793,0.927,3.714,-1.827,2.459,-1.585
2526.0,-15.793,0.927,3.714,-1.827,2.459,-1.585
2530.0,-15.885,1.347,3.812,-1.974,2.219,-1.428
2534.0,-15.885,1.347,3.812,-1.974,2.219,-1.428
2538.0,-15.504,3.095,3.842,-2.167,1.967,-1.244
2542.0,-15.504,3.095,3.842,-2.167,1.967,-1.244
2546.0,-15.504,3.095,3.842,-2.167,1.967,-1.244
2550.0,-18.491,16.634,2.773,-2.781,1.675,-0.808
2554.0,-18.491,16.634,2.773,-2.781,1.675,-0.808
2558.0,-19.026,17.628,-0.921,-4.566,1.19,0.528
2562.0,-19.026,17.628,-0.921,-4.566,1.19,0.528
2566.0,-8.932,-0.244,1.904,-4.566,1.19,0.528
2570.0,-8.932,-0.244,1.904,-5.013,0.765,0.774
2574.0,-8.932,-0.244,1.904,-5.013,0.765,0.774
2578.0,-5.544,-4.566,1.638,-5.013,0.598,-0.299
2582.0,-5.544,-4.566,1.638,-5.013,0.598,-0.299
2586.0,-7.296,-3.89,1.028,-5.013,0.598,-0.299
2590.0,-7.296,-3.89,1.028,-5.013,0.553,-0.815
2594.0,-7.296,-3.89,1.028,-5.013,0.553,-0.815
2598.0,-10.89,-3.769,0.689,-5.013,0.649,-0.973
2602.0,-10.89,-3.769,0.689,-5.013,0.649,-0.973
2606.0,-13.865,-4.052,1.36,-5.013,0.751,-0.968
2610.0,-13.865,-4.052,1.36,-5.013,0.751,-0.968
2614.0,-13.865,-4.052,1.36,-5.013,0.751,-0.968
2618.0,-15.191,-4.661,2.621,-5.013,0.694,-0.884
2622.0,-15.191,-4.661,2.621,-5.013,0.694,-0.884
2626.0,-14.884,-5.42,4.023,-5.013,0.412,-0.813
2630.0,-14.884,-5.42,4.023,-5.013,0.412,-0.813
2634.0,-14.884,-5.42,4.023,-5.013,0.412,-0.813
2638.0,-14.025,-5.726,5.195,-5.012,0.008,-0.773
2642.0,-14.025,-5.726,5.195,-5.012,0.008,-0.773
2646.0,-12.991,-5.748,5.518,-4.759,-0.381,-0.717
2651.0,-12.991,-5.748,5.518,-4.759,-0.381,-0.717
2655.0,-11.783,-5.718,5.222,-4.759,-0.381,-0.717
2659.0,-11.783,-5.718,5.222,-3.916,-0.672,-0.643
2663.0,-11.783,-5.718,5.222,-3.916,-0.672,-0.643
2667.0,-10.737,-5.514,4.656,-3.021,-0.858,-0.568
2671.0,-10.737,-5.514,4.656,-3.021,-0.858,-0.568
2676.0,-9.914,-5.305,4.024,-2.204,-0.971,-0.477
2680.0,-9.914,-5.305,4.024,-2.204,-0.971,-0.477
2684.0,-9.914,-5.305,4.024,-2.204,-0.971,-0.477
2688.0,-9.315,-5.135,3.522,-1.489,-1.043,-0.378
2692.0,-9.315,-5.135,3.522,-1.489,-1.043,-0.378
2696.0,-9.065,-5.041,3.208,-0.869,-1.11,-0.284
2700.0,-9.065,-5.041,3.208,-0.869,-1.11,-0.284
2704.0,-9.147,-4.862,2.994,-0.869,-1.11,-0.284
2708.0,-9.147,-4.862,2.994,-0.325,-1.19,-0.208
2712.0,-9.147,-4.862,2.994,-0.325,-1.19,-0.208
2716.0,-9.473,-4.566,2.84,0.144,-1.287,-0.153
2720.0,-9.473,-4.566,2.84,0.144,-1.287,-0.153
2724.0,-9.525,-4.266,2.509,0.541,-1.394,-0.112
2728.0,-9.525,-4.266,2.509,0.541,-1.394,-0.112
2732.0,-9.525,-4.266,2.509,0.541,-1.394,-0.112
2736.0,-9.193,-3.864,2.138,0.876,-1.502,-0.08
2740.0,-9.193,-3.864,2.138,0.876,-1.502,-0.08
2744.0,-8.717,-3.303,1.855,1.144,-1.592,-0.054
2748.0,-8.717,-3.303,1.855,1.144,-1.592,-0.054
2752.0,-8.717,-3.303,1.855,1.144,-1.592,-0.054
2756.0,-8.374,-2.883,1.467,1.339,-1.65,-0.022
2760.0,-8.374,-2.883,1.467,1.339,-1.65,-0.022
2764.0,-8.365,-2.435,1.289,1.47,-1.672,0.025
2768.0,-8.365,-2.435,1.289,1.47,-1.672,0.025
2772.0,-8.365,-2.435,1.289,1.47,-1.672,0.025
2776.0,-8.575,-2.001,1.201,1.539,-1.653,0.083
2780.0,-8.575,-2.001,1.201,1.539,-1.653,0.083
2784.0,-8.832,-1.659,1.208,1.551,-1.609,0.161
2788.0,-8.832,-1.659,1.208,1.551,-1.609,0.161
2792.0,-8.832,-1.659,1.208,1.551,-1.609,0.161
2796.0,-9.08,-1.444,1.278,1.516,-1.567,0.256
2800.0,-9.08,-1.444,1.278,1.516,-1.567,0.256
2803.0,-9.202,-1.336,1.394,1.449,-1.535,0.356
2807.0,-9.202,-1.336,1.394,1.449,-1.535,0.356
2811.0,-9.202,-1.336,1.394,1.449,-1.535,0.356
2815.0,-9.227,-1.349,1.518,1.362,-1.515,0.446
2819.0,-9.227,-1.349,1.518,1.362,-1.515,0.446
2823.0,-9.227,-1.378,1.622,1.362,-1.5,0.511
2827.0,-9.227,-1.378,1.622,1.265,-1.5,0.511
2831.0,-9.227,-1.378,1.622,1.265,-1.5,0.511
2835.0,-9.304,-1.451,1.609,1.166,-1.487,0.547
2839.0,-9.304,-1.451,1.609,1.166,-1.487,0.547
2842.0,-9.442,-1.51,1.535,1.166,-1.487,0.557
2846.0,-9.442,-1.51,1.535,1.061,-1.472,0.557
2850.0,-9.442,-1.51,1.535,1.061,-1.472,0.557
2854.0,-9.7,-1.516,1.487,0.952,-1.446,0.555
2858.0,-9.7,-1.516,1.487,0.952,-1.446,0.555
2862.0,-10.039,-1.539,1.5,0.952,-1.446,0.555
2866.0,-10.039,-1.539,1.5,0.839,-1.414,0.556
2870.0,-10.039,-1.539,1.5,0.839,-1.414,0.556
2874.0,-10.373,-1.579,1.454,0.727,-1.381,0.571
2878.0,-10.373,-1.579,1.454,0.727,-1.381,0.571
2882.0,-10.676,-1.634,1.42,0.727,-1.381,0.601
2886.0,-10.676,-1.634,1.42,0.618,-1.348,0.601
2890.0,-10.676,-1.634,1.42,0.618,-1.348,0.601
2894.0,-10.953,-1.753,1.419,0.514,-1.324,0.643
2898.0,-10.953,-1.753,1.419,0.514,-1.324,0.643
2902.0,-11.23,-1.9,1.394,0.514,-1.317,0.68
2906.0,-11.23,-1.9,1.394,0.422,-1.317,0.68
2910.0,-11.23,-1.9,1.394,0.422,-1.317,0.68
2914.0,-11.484,-2.033,1.238,0.348,-1.324,0.702
2918.0,-11.484,-2.033,1.238,0.348,-1.324,0.702
2922.0,-11.734,-2.091,1.018,0.291,-1.332,0.693
2926.0,-11.734,-2.091,1.018,0.291,-1.332,0.693
2930.0,-11.734,-2.091,1.018,0.291,-1.332,0.693
2934.0,-12.009,-2.101,0.827,0.246,-1.34,0.655
2938.0,-12.009,-2.101,0.827,0.246,-1.34,0.655
2942.0,-12.22,-2.052,0.708,0.215,-1.346,0.593
2946.0,-12.22,-2.052,0.708,0.215,-1.346,0.593
2950.0,-12.22,-2.052,0.708,0.215,-1.346,0.593
2954.0,-12.261,-2.007,0.686,0.195,-1.356,0.521
2958.0,-12.261,-2.007,0.686,0.195,-1.356,0.521
2962.0,-12.148,-1.951,0.729,0.188,-1.376,0.444
2966.0,-12.148,-1.951,0.729,0.188,-1.376,0.444
2970.0,-12.148,-1.951,0.729,0.188,-1.376,0.444
2974.0,-11.873,-1.886,0.741,0.194,-1.403,0.364
2978.0,-11.873,-1.886,0.741,0.194,-1.403,0.364
2982.0,-11.474,-1.851,0.641,0.208,-1.429,0.281
2986.0,-11.474,-1.851,0.641,0.208,-1.429,0.281
2990.0,-11.474,-1.851,0.641,0.208,-1.429,0.281
2994.0,-11.125,-1.784,0.518,0.223,-1.438,0.193
2998.0,-11.125,-1.784,0.518,0.223,-1.438,0.193
