deltaTime,Acc_X,Acc_Y,Acc_Z,Gyro_X,Gyro_Y,Gyro_Z
0.0,-5.857,-3.738,5.221,0.641,-0.693,0.022
3.0,-5.857,-3.738,5.221,0.641,-0.693,0.022
6.0,-5.801,-3.929,5.157,0.639,-0.593,0.041
9.0,-5.801,-3.929,5.157,0.639,-0.593,0.041
12.0,-5.801,-3.929,5.157,0.639,-0.593,0.041
15.0,-5.656,-3.87,5.162,0.643,-0.513,0.045
18.0,-5.656,-3.87,5.162,0.643,-0.513,0.045
21.0,-5.656,-3.87,5.162,0.643,-0.513,0.045
24.0,-5.636,-3.708,5.323,0.624,-0.43,0.029
27.0,-5.636,-3.708,5.323,0.624,-0.43,0.029
30.0,-5.636,-3.708,5.323,0.624,-0.43,0.029
33.0,-5.636,-3.708,5.591,0.624,-0.43,0.029
36.0,-5.726,-3.44,5.591,0.587,-0.354,-0.002
40.0,-5.726,-3.44,5.591,0.587,-0.354,-0.002
44.0,-5.817,-3.125,5.818,0.528,-0.297,-0.049
47.0,-5.817,-3.125,5.818,0.528,-0.297,-0.049
51.0,-5.817,-3.125,5.818,0.528,-0.297,-0.049
55.0,-6.004,-2.926,5.967,0.447,-0.248,-0.092
59.0,-6.004,-2.926,5.967,0.447,-0.248,-0.092
63.0,-6.233,-2.965,6.092,0.447,-0.248,-0.092
66.0,-6.233,-2.965,6.092,0.368,-0.207,-0.109
70.0,-6.233,-2.965,6.092,0.368,-0.207,-0.109
74.0,-6.505,-3.065,6.191,0.317,-0.174,-0.108
78.0,-6.505,-3.065,6.191,0.317,-0.174,-0.108
82.0,-6.505,-3.065,6.191,0.317,-0.174,-0.108
86.0,-6.61,-3.17,6.195,0.299,-0.163,-0.108
89.0,-6.61,-3.17,6.195,0.299,-0.163,-0.108
93.0,-6.441,-3.314,6.017,0.321,-0.165,-0.108
97.0,-6.441,-3.314,6.017,0.321,-0.165,-0.108
101.0,-6.441,-3.314,6.017,0.321,-0.165,-0.108
105.0,-6.176,-3.48,5.746,0.37,-0.156,-0.103
109.0,-6.176,-3.48,5.746,0.37,-0.156,-0.103
113.0,-5.997,-3.553,5.584,0.37,-0.123,-0.089
116.0,-5.997,-3.553,5.584,0.433,-0.123,-0.089
120.0,-5.997,-3.553,5.584,0.433,-0.123,-0.089
124.0,-5.971,-3.491,5.628,0.486,-0.074,-0.074
128.0,-5.971,-3.491,5.628,0.486,-0.074,-0.074
132.0,-5.99,-3.312,5.85,0.486,-0.074,-0.065
136.0,-5.99,-3.312,5.85,0.507,-0.019,-0.065
140.0,-5.99,-3.312,5.85,0.507,-0.019,-0.065
144.0,-6.069,-3.098,6.279,0.485,0.029,-0.058
148.0,-6.069,-3.098,6.279,0.485,0.029,-0.058
151.0,-6.069,-3.02,6.84,0.485,0.029,-0.058
155.0,-6.228,-3.02,6.84,0.429,0.063,-0.055
159.0,-6.228,-3.02,6.84,0.429,0.063,-0.055
163.0,-6.388,-3.076,7.593,0.372,0.082,-0.057
167.0,-6.388,-3.076,7.593,0.372,0.082,-0.057
171.0,-6.388,-3.076,7.593,0.372,0.082,-0.057
174.0,-6.48,-3.127,8.42,0.347,0.084,-0.059
178.0,-6.48,-3.127,8.42,0.347,0.084,-0.059
182.0,-6.622,-3.205,9.243,0.349,0.069,-0.061
186.0,-6.622,-3.205,9.243,0.349,0.069,-0.061
190.0,-6.622,-3.205,9.243,0.349,0.069,-0.061
193.0,-6.698,-3.06,9.8,0.377,0.03,-0.064
197.0,-6.698,-3.06,9.8,0.377,0.03,-0.064
201.0,-6.991,-3.002,10.231,0.377,0.03,-0.086
205.0,-6.991,-3.002,10.231,0.404,-0.034,-0.086
209.0,-6.991,-3.002,10.231,0.404,-0.034,-0.086
213.0,-7.555,-2.491,10.212,0.392,-0.157,-0.154
217.0,-7.555,-2.491,10.212,0.392,-0.157,-0.154
221.0,-7.551,-2.761,10.026,0.392,-0.157,-0.253
225.0,-7.551,-2.761,10.026,0.339,-0.326,-0.253
229.0,-7.551,-2.761,10.026,0.339,-0.326,-0.253
233.0,-7.348,-2.771,9.656,0.335,-0.489,-0.335
237.0,-7.348,-2.771,9.656,0.335,-0.489,-0.335
241.0,-7.269,-2.529,9.383,0.335,-0.626,-0.402
245.0,-7.269,-2.529,9.383,0.337,-0.626,-0.402
249.0,-7.269,-2.529,9.383,0.337,-0.626,-0.402
252.0,-7.058,-2.487,9.206,0.327,-0.743,-0.436
256.0,-7.058,-2.487,9.206,0.327,-0.743,-0.436
260.0,-6.959,-2.485,9.396,0.327,-0.743,-0.436
264.0,-6.959,-2.485,9.396,0.33,-0.839,-0.436
268.0,-6.959,-2.485,9.396,0.33,-0.839,-0.436
272.0,-7.239,-2.284,9.852,0.349,-0.944,-0.427
276.0,-7.239,-2.284,9.852,0.349,-0.944,-0.427
280.0,-7.567,-2.148,10.29,0.349,-0.944,-0.427
284.0,-7.567,-2.148,10.29,0.346,-1.084,-0.414
288.0,-7.567,-2.148,10.29,0.346,-1.084,-0.414
292.0,-7.494,-2.217,10.769,0.308,-1.244,-0.402
296.0,-7.494,-2.217,10.769,0.308,-1.244,-0.402
300.0,-7.171,-2.377,11.299,0.308,-1.244,-0.39
304.0,-7.171,-2.377,11.299,0.255,-1.396,-0.39
308.0,-7.171,-2.377,11.299,0.255,-1.396,-0.39
312.0,-7.056,-2.532,11.663,0.199,-1.539,-0.386
316.0,-7.056,-2.532,11.663,0.199,-1.539,-0.386
320.0,-7.042,-2.794,11.904,0.199,-1.692,-0.407
324.0,-7.042,-2.794,11.904,0.138,-1.692,-0.407
328.0,-7.042,-2.794,11.904,0.138,-1.692,-0.407
332.0,-6.851,-3.109,12.176,0.091,-1.859,-0.477
336.0,-6.851,-3.109,12.176,0.091,-1.859,-0.477
340.0,-6.677,-3.41,12.47,0.072,-2.019,-0.59
344.0,-6.677,-3.41,12.47,0.072,-2.019,-0.59
348.0,-6.677,-3.41,12.47,0.072,-2.019,-0.59
352.0,-6.631,-3.771,12.748,0.07,-2.176,-0.712
356.0,-6.631,-3.771,12.748,0.07,-2.176,-0.712
360.0,-6.53,-4.187,12.866,0.091,-2.322,-0.828
364.0,-6.53,-4.187,12.866,0.091,-2.322,-0.828
368.0,-6.53,-4.187,12.866,0.091,-2.322,-0.828
372.0,-6.095,-4.696,12.952,0.171,-2.441,-0.938
376.0,-6.095,-4.696,12.952,0.171,-2.441,-0.938
380.0,-5.526,-5.145,13.286,0.336,-2.53,-1.05
384.0,-5.526,-5.145,13.286,0.336,-2.53,-1.05
388.0,-5.526,-5.145,13.286,0.336,-2.53,-1.05
392.0,-5.25,-5.754,13.824,0.581,-2.627,-1.173
396.0,-5.25,-5.754,13.824,0.581,-2.627,-1.173
400.0,-5.194,-6.328,14.051,0.898,-2.755,-1.308
404.0,-5.194,-6.328,14.051,0.898,-2.755,-1.308
408.0,-5.194,-6.328,14.051,0.898,-2.755,-1.308
412.0,-5.043,-6.644,14.076,1.265,-2.884,-1.433
416.0,-5.043,-6.644,14.076,1.265,-2.884,-1.433
420.0,-4.72,-6.769,13.993,1.648,-2.998,-1.527
424.0,-4.72,-6.769,13.993,1.648,-2.998,-1.527
428.0,-4.72,-6.769,13.52,1.648,-2.998,-1.527
432.0,-4.352,-6.745,13.52,2.034,-3.106,-1.601
436.0,-4.352,-6.745,13.52,2.034,-3.106,-1.601
440.0,-3.885,-6.413,12.717,2.414,-3.203,-1.669
444.0,-3.885,-6.413,12.717,2.414,-3.203,-1.669
448.0,-3.885,-6.127,11.957,2.414,-3.203,-1.669
452.0,-3.366,-6.127,11.957,2.758,-3.274,-1.743
456.0,-3.366,-6.127,11.957,2.758,-3.274,-1.743
460.0,-3.066,-5.965,11.288,3.044,-3.32,-1.838
464.0,-3.066,-5.965,11.288,3.044,-3.32,-1.838
468.0,-2.929,-5.597,10.795,3.044,-3.32,-1.838
471.0,-2.929,-5.597,10.795,3.262,-3.342,-1.952
475.0,-2.929,-5.597,10.795,3.262,-3.342,-1.952
479.0,-2.772,-5.334,10.509,3.421,-3.353,-2.069
483.0,-2.772,-5.334,10.509,3.421,-3.353,-2.069
487.0,-2.711,-4.988,10.298,3.421,-3.363,-2.177
491.0,-2.711,-4.988,10.298,3.561,-3.363,-2.177
495.0,-2.711,-4.988,10.298,3.561,-3.363,-2.177
499.0,-2.698,-4.82,10.193,3.717,-3.392,-2.257
503.0,-2.698,-4.82,10.193,3.717,-3.392,-2.257
507.0,-2.579,-4.709,9.665,3.904,-3.429,-2.309
511.0,-2.579,-4.709,9.665,3.904,-3.429,-2.309
515.0,-2.579,-4.709,9.665,3.904,-3.429,-2.309
519.0,-2.463,-4.702,9.083,4.124,-3.441,-2.343
523.0,-2.463,-4.702,9.083,4.124,-3.441,-2.343
527.0,-2.234,-4.541,8.606,4.124,-3.434,-2.38
531.0,-2.234,-4.541,8.606,4.373,-3.434,-2.38
535.0,-2.234,-4.541,8.606,4.373,-3.434,-2.38
539.0,-1.939,-3.976,8.064,4.624,-3.408,-2.419
543.0,-1.939,-3.976,8.064,4.624,-3.408,-2.419
546.0,-1.713,-3.075,7.542,4.624,-3.408,-2.425
550.0,-1.713,-3.075,7.542,4.827,-3.364,-2.425
554.0,-1.713,-3.075,7.542,4.827,-3.364,-2.425
558.0,-1.622,-1.961,7.162,4.939,-3.322,-2.38
562.0,-1.622,-1.961,7.162,4.939,-3.322,-2.38
566.0,-1.612,-0.782,6.806,4.939,-3.322,-2.38
570.0,-1.612,-0.782,6.806,4.942,-3.303,-2.288
574.0,-1.612,-0.782,6.806,4.942,-3.303,-2.288
578.0,-1.768,-0.036,6.772,4.833,-3.318,-2.173
582.0,-1.768,-0.036,6.772,4.833,-3.318,-2.173
586.0,-1.768,-0.036,6.392,4.833,-3.318,-2.173
589.0,-1.748,0.632,6.392,4.633,-3.37,-2.074
593.0,-1.748,0.632,6.392,4.633,-3.37,-2.074
597.0,-1.501,1.374,5.765,4.357,-3.404,-1.998
601.0,-1.501,1.374,5.765,4.357,-3.404,-1.998
605.0,-1.501,1.374,5.765,4.357,-3.404,-1.998
609.0,-1.029,2.069,5.024,4.018,-3.413,-1.944
612.0,-1.029,2.069,5.024,4.018,-3.413,-1.944
616.0,-0.407,2.737,4.321,3.629,-3.392,-1.918
620.0,-0.407,2.737,4.321,3.629,-3.392,-1.918
624.0,-0.407,2.737,4.321,3.629,-3.392,-1.918
628.0,-0.007,3.344,3.683,3.211,-3.327,-1.896
631.0,-0.007,3.344,3.683,3.211,-3.327,-1.896
635.0,0.201,3.716,3.193,3.211,-3.327,-1.896
639.0,0.201,3.716,3.193,2.804,-3.239,-1.848
643.0,0.201,3.716,3.193,2.804,-3.239,-1.848
646.0,0.196,3.991,2.952,2.453,-3.144,-1.765
650.0,0.196,3.991,2.952,2.453,-3.144,-1.765
654.0,0.196,3.991,2.952,2.453,-3.144,-1.765
658.0,0.162,4.147,2.917,2.183,-3.057,-1.629
661.0,0.162,4.147,2.917,2.183,-3.057,-1.629
665.0,0.309,4.303,2.794,2.183,-2.976,-1.447
669.0,0.309,4.303,2.794,2.005,-2.976,-1.447
673.0,0.309,4.303,2.794,2.005,-2.976,-1.447
676.0,0.449,4.676,2.635,1.916,-2.879,-1.239
680.0,0.449,4.676,2.635,1.916,-2.879,-1.239
684.0,0.449,4.676,2.635,1.916,-2.879,-1.239
688.0,0.478,5.45,2.368,1.898,-2.772,-1.022
691.0,0.478,5.45,2.368,1.898,-2.772,-1.022
695.0,0.639,6.433,1.82,1.905,-2.659,-0.773
699.0,0.639,6.433,1.82,1.905,-2.659,-0.773
702.0,0.639,6.433,1.82,1.905,-2.659,-0.773
706.0,1.089,7.396,1.225,1.891,-2.519,-0.474
710.0,1.089,7.396,1.225,1.891,-2.519,-0.474
714.0,1.089,7.396,0.655,1.891,-2.519,-0.474
717.0,1.61,8.13,0.655,1.832,-2.343,-0.153
721.0,1.61,8.13,0.655,1.832,-2.343,-0.153
725.0,2.076,8.655,0.081,1.733,-2.132,0.154
729.0,2.076,8.655,0.081,1.733,-2.132,0.154
732.0,2.076,8.655,0.081,1.733,-2.132,0.154
736.0,2.555,8.915,-0.143,1.596,-1.9,0.434
740.0,2.555,8.915,-0.143,1.596,-1.9,0.434
743.0,2.555,8.915,-0.143,1.596,-1.9,0.434
747.0,2.925,9.103,-0.246,1.443,-1.658,0.672
751.0,2.925,9.103,-0.246,1.443,-1.658,0.672
754.0,2.958,9.379,-0.08,1.299,-1.383,0.878
758.0,2.958,9.379,-0.08,1.299,-1.383,0.878
762.0,2.958,9.379,-0.08,1.299,-1.383,0.878
766.0,2.925,9.744,0.309,1.166,-1.1,1.085
769.0,2.925,9.744,0.309,1.166,-1.1,1.085
773.0,2.925,9.744,0.769,1.166,-1.1,1.085
777.0,2.781,10.195,0.769,1.055,-0.832,1.308
780.0,2.781,10.195,0.769,1.055,-0.832,1.308
784.0,2.475,10.676,1.198,0.984,-0.582,1.561
788.0,2.475,10.676,1.198,0.984,-0.582,1.561
792.0,2.475,10.676,1.198,0.984,-0.582,1.561
795.0,2.254,11.046,1.703,0.953,-0.358,1.855
799.0,2.254,11.046,1.703,0.953,-0.358,1.855
803.0,2.254,11.301,2.221,0.953,-0.358,1.855
806.0,2.235,11.301,2.221,0.96,-0.164,2.155
810.0,2.235,11.301,2.221,0.96,-0.164,2.155
814.0,2.271,11.691,2.746,0.989,0.001,2.431
818.0,2.271,11.691,2.746,0.989,0.001,2.431
821.0,2.271,11.691,2.746,0.989,0.001,2.431
825.0,2.256,12.088,3.316,1.029,0.136,2.699
829.0,2.256,12.088,3.316,1.029,0.136,2.699
832.0,2.256,12.088,3.853,1.029,0.136,2.699
836.0,2.255,12.385,3.853,1.072,0.233,2.967
839.0,2.255,12.385,3.853,1.072,0.233,2.967
843.0,2.286,12.545,4.295,1.105,0.301,3.243
847.0,2.286,12.545,4.295,1.105,0.301,3.243
850.0,2.286,12.545,4.295,1.105,0.301,3.243
854.0,2.551,12.522,4.889,1.106,0.348,3.533
858.0,2.551,12.522,4.889,1.106,0.348,3.533
861.0,2.551,12.522,4.889,1.106,0.348,3.533
865.0,2.795,12.364,5.487,1.079,0.383,3.797
869.0,2.795,12.364,5.487,1.079,0.383,3.797
872.0,2.721,12.279,6.039,1.079,0.383,4.015
876.0,2.721,12.279,6.039,1.023,0.397,4.015
880.0,2.721,12.279,6.039,1.023,0.397,4.015
883.0,2.573,12.108,6.711,0.937,0.371,4.22
887.0,2.573,12.108,6.711,0.937,0.371,4.22
891.0,2.573,12.108,6.711,0.937,0.371,4.22
894.0,2.518,11.658,7.321,0.824,0.293,4.444
898.0,2.518,11.658,7.321,0.824,0.293,4.444
901.0,2.518,11.128,7.921,0.824,0.293,4.444
905.0,2.474,11.128,7.921,0.7,0.177,4.683
909.0,2.474,11.128,7.921,0.7,0.177,4.683
912.0,2.45,10.365,8.13,0.593,0.028,4.909
916.0,2.45,10.365,8.13,0.593,0.028,4.909
920.0,2.45,10.365,8.13,0.593,0.028,4.909
923.0,2.577,9.568,7.843,0.494,-0.134,5.01
927.0,2.577,9.568,7.843,0.494,-0.134,5.01
931.0,2.577,9.568,7.843,0.494,-0.134,5.01
934.0,2.782,9.007,7.466,0.376,-0.282,5.013
938.0,2.782,9.007,7.466,0.376,-0.282,5.013
942.0,2.89,8.408,7.081,0.376,-0.42,5.013
945.0,2.89,8.408,7.081,0.229,-0.42,5.013
949.0,2.89,8.408,7.081,0.229,-0.42,5.013
952.0,2.913,7.764,6.678,0.06,-0.545,5.013
956.0,2.913,7.764,6.678,0.06,-0.545,5.013
960.0,2.913,7.764,6.678,0.06,-0.545,5.013
963.0,2.771,7.1,6.256,-0.128,-0.637,5.013
967.0,2.771,7.1,6.256,-0.128,-0.637,5.013
971.0,2.44,6.424,5.87,-0.128,-0.637,5.013
975.0,2.44,6.424,5.87,-0.333,-0.687,5.013
978.0,2.44,6.424,5.87,-0.333,-0.687,5.013
982.0,2.034,5.606,5.321,-0.552,-0.712,5.013
986.0,2.034,5.606,5.321,-0.552,-0.712,5.013
990.0,2.034,5.606,5.321,-0.552,-0.712,5.013
993.0,1.653,4.637,4.668,-0.804,-0.714,5.013
997.0,1.653,4.637,4.668,-0.804,-0.714,5.013
1001.0,1.262,3.494,3.729,-0.804,-0.689,5.013
1005.0,1.262,3.494,3.729,-1.092,-0.689,5.013
1008.0,1.262,3.494,3.729,-1.092,-0.689,5.013
1012.0,1.203,2.03,2.495,-1.425,-0.631,5.013
1016.0,1.203,2.03,2.495,-1.425,-0.631,5.013
1020.0,1.203,2.03,1.266,-1.425,-0.631,5.013
1024.0,1.239,0.529,1.266,-1.79,-0.515,5.013
1027.0,1.239,0.529,1.266,-1.79,-0.515,5.013
1031.0,1.233,-0.833,0.035,-2.184,-0.352,5.013
1035.0,1.233,-0.833,0.035,-2.184,-0.352,5.013
1039.0,1.233,-0.833,0.035,-2.184,-0.352,5.013
1043.0,0.82,-1.583,-0.762,-2.596,-0.144,5.013
1047.0,0.82,-1.583,-0.762,-2.596,-0.144,5.013
1051.0,-0.029,-1.873,-1.51,-2.996,0.077,5.013
1055.0,-0.029,-1.873,-1.51,-2.996,0.077,5.013
1059.0,-0.029,-1.873,-1.51,-2.996,0.077,5.013
1063.0,-1.164,-2.587,-2.149,-3.396,0.313,5.013
1067.0,-1.164,-2.587,-2.149,-3.396,0.313,5.013
1071.0,-2.503,-3.715,-2.569,-3.782,0.539,5.013
1075.0,-2.503,-3.715,-2.569,-3.782,0.539,5.013
1079.0,-2.503,-3.715,-2.925,-3.782,0.539,5.013
1083.0,-3.497,-5.612,-2.925,-4.077,0.729,4.996
1087.0,-3.497,-5.612,-2.925,-4.077,0.729,4.996
1091.0,-4.321,-8.483,-2.76,-4.165,0.908,4.864
1095.0,-4.321,-8.483,-2.76,-4.165,0.908,4.864
1099.0,-4.321,-11.581,-2.62,-4.165,0.908,4.864
1103.0,-5.579,-11.581,-2.62,-3.911,1.063,4.677
1107.0,-5.579,-11.581,-2.62,-3.911,1.063,4.677
1111.0,-6.441,-14.134,-2.194,-3.217,1.163,4.595
1115.0,-6.441,-14.134,-2.194,-3.217,1.163,4.595
1119.0,-5.558,-15.788,-1.606,-2.08,1.235,4.69
1123.0,-5.558,-15.788,-1.606,-2.08,1.235,4.69
1127.0,-5.558,-15.788,-1.606,-2.08,1.235,4.69
1132.0,-3.986,-16.123,-0.436,-0.826,1.257,4.838
1136.0,-3.986,-16.123,-0.436,-0.826,1.257,4.838
1140.0,-2.719,-16.686,0.482,0.195,1.154,4.857
1144.0,-2.719,-16.686,0.482,0.195,1.154,4.857
1148.0,-2.719,-16.686,0.482,0.195,1.154,4.857
1151.0,-1.853,-16.898,0.649,0.844,0.942,4.612
1155.0,-1.853,-16.898,0.649,0.844,0.942,4.612
1159.0,-1.062,-16.206,0.688,1.119,0.702,4.179
1163.0,-1.062,-16.206,0.688,1.119,0.702,4.179
1167.0,-1.062,-16.206,0.688,1.119,0.702,4.179
1171.0,-0.151,-15.406,1.074,1.084,0.477,3.722
1175.0,-0.151,-15.406,1.074,1.084,0.477,3.722
1179.0,0.656,-14.474,1.929,0.835,0.276,3.284
1183.0,0.656,-14.474,1.929,0.835,0.276,3.284
1186.0,0.656,-14.474,1.929,0.835,0.276,3.284
1190.0,1.524,-13.594,2.715,0.47,0.082,2.88
1194.0,1.524,-13.594,2.715,0.47,0.082,2.88
1198.0,2.738,-13.107,3.263,0.47,0.082,2.88
1202.0,2.738,-13.107,3.263,0.045,-0.082,2.516
1206.0,2.738,-13.107,3.263,0.045,-0.082,2.516
1210.0,4.205,-13.122,3.592,-0.398,-0.21,2.168
1214.0,4.205,-13.122,3.592,-0.398,-0.21,2.168
1217.0,5.976,-13.407,3.755,-0.398,-0.21,2.168
1221.0,5.976,-13.407,3.755,-0.816,-0.313,1.825
1225.0,5.976,-13.407,3.755,-0.816,-0.313,1.825
1229.0,7.22,-14.024,3.651,-1.18,-0.318,1.508
1233.0,7.22,-14.024,3.651,-1.18,-0.318,1.508
1237.0,8.073,-14.63,3.644,-1.18,-0.318,1.258
1241.0,8.073,-14.63,3.644,-1.364,-0.344,1.258
1245.0,8.073,-14.63,3.644,-1.364,-0.344,1.258
1249.0,8.572,-15.474,3.853,-1.389,-0.314,1.09
1253.0,8.572,-15.474,3.853,-1.389,-0.314,1.09
1257.0,8.521,-16.306,4.235,-1.389,-0.258,0.942
1261.0,8.521,-16.306,4.235,-1.22,-0.258,0.942
1265.0,8.521,-16.306,4.235,-1.22,-0.258,0.942
1269.0,8.547,-16.771,4.576,-0.865,-0.263,0.798
1273.0,8.547,-16.771,4.576,-0.865,-0.263,0.798
1277.0,8.291,-16.716,4.568,-0.399,-0.263,0.658
1281.0,8.291,-16.716,4.568,-0.399,-0.263,0.658
1285.0,8.291,-16.716,4.568,-0.399,-0.263,0.658
1289.0,7.811,-16.133,4.309,0.089,-0.269,0.529
1293.0,7.811,-16.133,4.309,0.089,-0.269,0.529
1297.0,7.298,-15.143,3.904,0.515,-0.281,0.408
1301.0,7.298,-15.143,3.904,0.515,-0.281,0.408
1305.0,7.298,-15.143,3.904,0.515,-0.281,0.408
1309.0,6.91,-13.956,3.462,0.819,-0.299,0.298
1313.0,6.91,-13.956,3.462,0.819,-0.299,0.298
1317.0,6.636,-12.731,3.059,0.983,-0.3,0.203
1321.0,6.636,-12.731,3.059,0.983,-0.3,0.203
1325.0,6.636,-12.731,3.059,0.983,-0.3,0.203
1328.0,6.327,-11.587,2.834,1.024,-0.278,0.126
1332.0,6.327,-11.587,2.834,1.024,-0.278,0.126
1336.0,5.962,-10.585,2.715,1.024,-0.278,0.061
1340.0,5.962,-10.585,2.715,0.973,-0.242,0.061
1344.0,5.962,-10.585,2.715,0.973,-0.242,0.061
1348.0,5.571,-9.716,2.53,0.871,-0.205,0.006
1352.0,5.571,-9.716,2.53,0.871,-0.205,0.006
1356.0,5.076,-8.851,2.247,0.871,-0.205,0.006
1359.0,5.076,-8.851,2.247,0.757,-0.156,-0.041
1363.0,5.076,-8.851,2.247,0.757,-0.156,-0.041
1367.0,4.508,-7.924,1.92,0.668,-0.089,-0.049
1371.0,4.508,-7.924,1.92,0.668,-0.089,-0.049
1375.0,4.508,-7.924,1.546,0.668,-0.089,-0.049
1379.0,3.999,-7.073,1.546,0.634,-0.003,0.01
1383.0,3.999,-7.073,1.546,0.634,-0.003,0.01
1387.0,3.595,-6.44,1.353,0.655,0.103,0.124
1390.0,3.595,-6.44,1.353,0.655,0.103,0.124
1394.0,3.595,-6.44,1.353,0.655,0.103,0.124
1398.0,3.254,-5.938,1.294,0.73,0.233,0.259
1402.0,3.254,-5.938,1.294,0.73,0.233,0.259
1405.0,2.919,-5.485,1.274,0.73,0.233,0.389
1409.0,2.919,-5.485,1.274,0.846,0.375,0.389
1413.0,2.919,-5.485,1.274,0.846,0.375,0.389
1416.0,2.606,-5.051,1.278,0.985,0.531,0.505
1420.0,2.606,-5.051,1.278,0.985,0.531,0.505
1424.0,2.606,-5.051,1.278,0.985,0.531,0.505
1428.0,2.381,-4.682,1.235,1.135,0.706,0.614
1431.0,2.381,-4.682,1.235,1.135,0.706,0.614
1435.0,2.269,-4.406,1.064,1.135,0.907,0.719
1439.0,2.269,-4.406,1.064,1.285,0.907,0.719
1443.0,2.269,-4.406,1.064,1.285,0.907,0.719
1446.0,2.167,-4.204,0.812,1.428,1.153,0.819
1450.0,2.167,-4.204,0.812,1.428,1.153,0.819
1454.0,2.167,-4.204,0.812,1.428,1.153,0.819
1458.0,2.042,-4.061,0.541,1.566,1.449,0.909
1461.0,2.042,-4.061,0.541,1.566,1.449,0.909
1465.0,1.819,-3.97,0.376,1.703,1.795,0.997
1469.0,1.819,-3.97,0.376,1.703,1.795,0.997
1472.0,1.819,-3.97,0.376,1.703,1.795,0.997
1476.0,1.455,-3.907,0.468,1.848,2.161,1.09
1480.0,1.455,-3.907,0.468,1.848,2.161,1.09
1484.0,1.455,-3.907,0.973,1.848,2.161,1.09
1487.0,0.939,-4.128,0.973,2.003,2.505,1.19
1491.0,0.939,-4.128,0.973,2.003,2.505,1.19
1495.0,0.256,-4.643,1.744,2.161,2.78,1.269
1499.0,0.256,-4.643,1.744,2.161,2.78,1.269
1502.0,0.256,-4.643,1.744,2.161,2.78,1.269
1506.0,-0.462,-5.17,2.292,2.315,2.966,1.294
1510.0,-0.462,-5.17,2.292,2.315,2.966,1.294
1514.0,-1.186,-5.588,2.413,2.315,2.966,1.294
1517.0,-1.186,-5.588,2.413,2.459,3.098,1.276
1521.0,-1.186,-5.588,2.413,2.459,3.098,1.276
1525.0,-1.79,-5.879,2.121,2.59,3.223,1.251
1529.0,-1.79,-5.879,2.121,2.59,3.223,1.251
1533.0,-1.79,-5.879,2.121,2.59,3.223,1.251
1537.0,-2.112,-6.161,1.487,2.708,3.406,1.251
1540.0,-2.112,-6.161,1.487,2.708,3.406,1.251
1544.0,-2.148,-6.395,0.873,2.82,3.697,1.277
1548.0,-2.148,-6.395,0.873,2.82,3.697,1.277
1552.0,-2.148,-6.395,0.873,2.82,3.697,1.277
1556.0,-1.87,-6.544,0.856,2.934,4.082,1.307
1560.0,-1.87,-6.544,0.856,2.934,4.082,1.307
1563.0,-1.333,-6.605,1.713,2.934,4.487,1.309
1567.0,-1.333,-6.605,1.713,3.065,4.487,1.309
1571.0,-1.333,-6.605,1.713,3.065,4.487,1.309
1575.0,-0.855,-6.672,2.53,3.23,4.827,1.276
1579.0,-0.855,-6.672,2.53,3.23,4.827,1.276
1582.0,-0.855,-6.678,2.773,3.23,4.827,1.276
1586.0,-0.743,-6.678,2.773,3.426,5.003,1.226
1590.0,-0.743,-6.678,2.773,3.426,5.003,1.226
1594.0,-1.053,-6.69,2.377,3.637,5.015,1.187
1598.0,-1.053,-6.69,2.377,3.637,5.015,1.187
1602.0,-1.053,-6.69,2.377,3.637,5.015,1.187
1605.0,-1.859,-6.554,1.713,3.84,5.015,1.165
1609.0,-1.859,-6.554,1.713,3.84,5.015,1.165
1613.0,-2.9,-6.312,1.01,4.019,5.015,1.123
1617.0,-2.9,-6.312,1.01,4.019,5.015,1.123
1621.0,-2.9,-6.312,1.01,4.019,5.015,1.123
1624.0,-3.951,-5.958,0.54,4.164,5.015,1.035
1628.0,-3.951,-5.958,0.54,4.164,5.015,1.035
1632.0,-5.067,-5.604,0.499,4.164,5.015,1.035
1636.0,-5.067,-5.604,0.499,4.281,5.015,0.916
1640.0,-5.067,-5.604,0.499,4.281,5.015,0.916
1644.0,-6.32,-5.274,0.628,4.391,5.015,0.788
1647.0,-6.32,-5.274,0.628,4.391,5.015,0.788
1651.0,-6.32,-5.274,0.628,4.391,5.015,0.788
1655.0,-7.63,-5.041,0.774,4.518,5.015,0.65
1659.0,-7.63,-5.041,0.774,4.518,5.015,0.65
1663.0,-9.016,-4.897,0.954,4.681,5.015,0.497
1666.0,-9.016,-4.897,0.954,4.681,5.015,0.497
1670.0,-9.016,-4.897,0.954,4.681,5.015,0.497
1674.0,-10.37,-4.789,1.098,4.881,5.015,0.336
1678.0,-10.37,-4.789,1.098,4.881,5.015,0.336
1682.0,-11.606,-4.67,1.259,4.99,5.015,0.167
1686.0,-11.606,-4.67,1.259,4.99,5.015,0.167
1690.0,-11.606,-4.67,1.259,4.99,5.015,0.167
1694.0,-12.754,-4.473,1.561,4.995,5.015,-0.017
1698.0,-12.754,-4.473,1.561,4.995,5.015,-0.017
1702.0,-13.789,-4.18,1.766,4.995,5.015,-0.21
1706.0,-13.789,-4.18,1.766,4.995,5.015,-0.21
1710.0,-13.789,-4.18,1.766,4.995,5.015,-0.21
1714.0,-14.597,-3.715,1.825,4.995,5.015,-0.404
1718.0,-14.597,-3.715,1.825,4.995,5.015,-0.404
1722.0,-15.287,-3.091,1.811,4.995,5.015,-0.583
1726.0,-15.287,-3.091,1.811,4.995,5.015,-0.583
1730.0,-15.287,-3.091,1.811,4.995,5.015,-0.583
1734.0,-15.76,-2.457,1.665,4.995,5.015,-0.737
1738.0,-15.76,-2.457,1.665,4.995,5.015,-0.737
1742.0,-16.003,-1.714,1.61,4.995,5.015,-0.88
1746.0,-16.003,-1.714,1.61,4.995,5.015,-0.88
1750.0,-16.003,-1.714,1.61,4.995,5.015,-0.88
1754.0,-16.236,-0.908,1.727,4.995,5.015,-1.026
1758.0,-16.236,-0.908,1.727,4.995,5.015,-1.026
1761.0,-16.451,0.07,1.89,4.995,4.873,-1.149
1765.0,-16.451,0.07,1.89,4.995,4.873,-1.149
1769.0,-16.451,0.07,1.89,4.995,4.873,-1.149
1773.0,-16.134,0.757,2.017,4.995,4.37,-1.206
1777.0,-16.134,0.757,2.017,4.995,4.37,-1.206
1781.0,-15.508,1.372,2.131,4.993,3.846,-1.207
1785.0,-15.508,1.372,2.131,4.993,3.846,-1.207
1789.0,-15.508,1.372,2.131,4.993,3.846,-1.207
1793.0,-14.883,1.888,2.075,4.877,3.396,-1.145
1797.0,-14.883,1.888,2.075,4.877,3.396,-1.145
1801.0,-14.363,2.264,1.883,4.553,3.047,-1.022
1804.0,-14.363,2.264,1.883,4.553,3.047,-1.022
1808.0,-14.363,2.264,1.883,4.553,3.047,-1.022
1812.0,-14.127,2.579,1.749,4.156,2.799,-0.863
1816.0,-14.127,2.579,1.749,4.156,2.799,-0.863
1820.0,-14.231,3.025,1.535,3.693,2.636,-0.7
1824.0,-14.231,3.025,1.535,3.693,2.636,-0.7
1828.0,-14.231,3.025,1.535,3.693,2.636,-0.7
1832.0,-14.41,3.636,1.418,3.157,2.539,-0.564
1836.0,-14.41,3.636,1.418,3.157,2.539,-0.564
1840.0,-14.662,4.146,1.489,3.157,2.48,-0.465
1844.0,-14.662,4.146,1.489,2.552,2.48,-0.465
1847.0,-14.662,4.146,1.489,2.552,2.48,-0.465
1851.0,-15.081,4.582,1.774,1.9,2.428,-0.406
1855.0,-15.081,4.582,1.774,1.9,2.428,-0.406
1859.0,-15.73,5.062,2.127,1.9,2.428,-0.406
1863.0,-15.73,5.062,2.127,1.222,2.353,-0.373
1867.0,-15.73,5.062,2.127,1.222,2.353,-0.373
1871.0,-16.321,5.61,2.465,0.51,2.241,-0.356
1875.0,-16.321,5.61,2.465,0.51,2.241,-0.356
1879.0,-16.668,6.223,2.821,0.51,2.241,-0.356
1883.0,-16.668,6.223,2.821,-0.254,2.095,-0.358
1887.0,-16.668,6.223,2.821,-0.254,2.095,-0.358
1891.0,-16.786,6.696,3.102,-1.082,1.921,-0.381
1895.0,-16.786,6.696,3.102,-1.082,1.921,-0.381
1899.0,-16.322,7.39,3.092,-1.082,1.921,-0.381
1903.0,-16.322,7.39,3.092,-1.946,1.737,-0.439
1907.0,-16.322,7.39,3.092,-1.946,1.737,-0.439
1911.0,-15.837,9.013,2.46,-2.866,1.568,-0.489
1915.0,-15.837,9.013,2.46,-2.866,1.568,-0.489
1919.0,-15.099,10.166,1.836,-2.866,1.568,-0.538
1923.0,-15.099,10.166,1.836,-3.894,1.414,-0.538
1927.0,-15.099,10.166,1.836,-3.894,1.414,-0.538
1931.0,-14.407,10.229,1.893,-4.821,1.274,-0.648
1935.0,-14.407,10.229,1.893,-4.821,1.274,-0.648
1939.0,-14.222,8.194,2.106,-5.013,1.09,-0.811
1943.0,-14.222,8.194,2.106,-5.013,1.09,-0.811
1947.0,-14.222,8.194,2.106,-5.013,1.09,-0.811
1951.0,-13.787,6.283,2.396,-5.013,0.872,-0.996
1955.0,-13.787,6.283,2.396,-5.013,0.872,-0.996
1959.0,-13.186,3.176,2.702,-5.013,0.655,-1.173
1963.0,-13.186,3.176,2.702,-5.013,0.655,-1.173
1967.0,-13.186,3.176,2.702,-5.013,0.655,-1.173
1971.0,-12.953,1.018,3.185,-5.013,0.451,-1.331
1975.0,-12.953,1.018,3.185,-5.013,0.451,-1.331
1979.0,-12.948,0.139,3.935,-5.013,0.234,-1.42
1983.0,-12.948,0.139,3.935,-5.013,0.234,-1.42
1987.0,-12.948,0.139,3.935,-5.013,0.234,-1.42
1991.0,-12.508,-0.605,3.943,-5.013,0.008,-1.431
1995.0,-12.508,-0.605,3.943,-5.013,0.008,-1.431
1999.0,-11.97,-1.382,3.864,-5.013,-0.192,-1.382
2003.0,-11.97,-1.382,3.864,-5.013,-0.192,-1.382
2007.0,-11.285,-1.507,3.777,-5.013,-0.192,-1.301
2011.0,-11.285,-1.507,3.777,-5.013,-0.364,-1.301
2016.0,-11.285,-1.507,3.777,-5.013,-0.364,-1.301
2020.0,-10.36,-1.78,3.824,-4.977,-0.488,-1.157
2024.0,-10.36,-1.78,3.824,-4.977,-0.488,-1.157
2028.0,-9.932,-2.109,3.638,-4.565,-0.57,-0.957
2032.0,-9.932,-2.109,3.638,-4.565,-0.57,-0.957
2036.0,-9.932,-2.109,3.558,-4.565,-0.57,-0.957
2040.0,-9.635,-2.657,3.558,-3.925,-0.636,-0.746
2044.0,-9.635,-2.657,3.558,-3.925,-0.636,-0.746
2049.0,-9.455,-2.909,3.406,-3.291,-0.68,-0.555
2053.0,-9.455,-2.909,3.406,-3.291,-0.68,-0.555
2057.0,-9.366,-2.969,3.24,-3.291,-0.68,-0.37
2061.0,-9.366,-2.969,3.24,-2.689,-0.706,-0.37
2065.0,-9.366,-2.969,3.24,-2.689,-0.706,-0.37
2069.0,-9.209,-3.023,3.117,-2.131,-0.733,-0.195
2073.0,-9.209,-3.023,3.117,-2.131,-0.733,-0.195
2077.0,-9.017,-3.051,2.994,-1.623,-0.767,-0.048
2081.0,-9.017,-3.051,2.994,-1.623,-0.767,-0.048
2085.0,-9.017,-3.051,2.994,-1.623,-0.767,-0.048
2089.0,-8.888,-2.958,2.817,-1.171,-0.802,0.058
2093.0,-8.888,-2.958,2.817,-1.171,-0.802,0.058
2097.0,-8.79,-2.712,2.601,-0.788,-0.836,0.129
2101.0,-8.79,-2.712,2.601,-0.788,-0.836,0.129
2105.0,-8.79,-2.712,2.425,-0.788,-0.836,0.129
2109.0,-8.681,-2.433,2.425,-0.482,-0.866,0.183
2113.0,-8.681,-2.433,2.425,-0.482,-0.866,0.183
2117.0,-8.637,-2.226,2.31,-0.248,-0.892,0.223
2121.0,-8.637,-2.226,2.31,-0.248,-0.892,0.223
2125.0,-8.637,-2.036,2.224,-0.248,-0.892,0.223
2129.0,-8.654,-2.036,2.224,-0.081,-0.915,0.252
2133.0,-8.654,-2.036,2.224,-0.081,-0.915,0.252
2137.0,-8.766,-1.89,2.091,0.027,-0.924,0.277
2141.0,-8.766,-1.89,2.091,0.027,-0.924,0.277
2145.0,-8.766,-1.674,2.016,0.027,-0.924,0.277
2149.0,-8.909,-1.674,2.016,0.096,-0.925,0.299
2153.0,-8.909,-1.674,2.016,0.096,-0.925,0.299
2157.0,-9.124,-1.456,1.965,0.135,-0.922,0.325
2161.0,-9.124,-1.456,1.965,0.135,-0.922,0.325
2165.0,-9.124,-1.456,1.964,0.135,-0.922,0.325
2169.0,-9.423,-1.258,1.964,0.147,-0.929,0.351
2172.0,-9.423,-1.258,1.964,0.147,-0.929,0.351
2176.0,-9.778,-1.043,1.915,0.133,-0.943,0.376
2180.0,-9.778,-1.043,1.915,0.133,-0.943,0.376
2184.0,-9.778,-1.043,1.915,0.133,-0.943,0.376
2188.0,-10.129,-0.854,1.869,0.093,-0.966,0.393
2192.0,-10.129,-0.854,1.869,0.093,-0.966,0.393
2196.0,-10.427,-0.674,1.808,0.031,-0.997,0.4
2200.0,-10.427,-0.674,1.808,0.031,-0.997,0.4
2204.0,-10.427,-0.674,1.738,0.031,-0.997,0.4
2208.0,-10.594,-0.505,1.738,-0.05,-1.034,0.395
2212.0,-10.594,-0.505,1.738,-0.05,-1.034,0.395
2216.0,-10.61,-0.351,1.656,-0.147,-1.074,0.372
2220.0,-10.61,-0.351,1.656,-0.147,-1.074,0.372
2224.0,-10.475,-0.234,1.585,-0.147,-1.074,0.334
2228.0,-10.475,-0.234,1.585,-0.26,-1.113,0.334
2233.0,-10.475,-0.234,1.585,-0.26,-1.113,0.334
2237.0,-10.278,-0.114,1.51,-0.384,-1.15,0.282
2241.0,-10.278,-0.114,1.51,-0.384,-1.15,0.282
2245.0,-10.149,-0.011,1.385,-0.52,-1.176,0.221
2249.0,-10.149,-0.011,1.385,-0.52,-1.176,0.221
2253.0,-10.149,-0.011,1.385,-0.52,-1.176,0.221
2257.0,-10.156,0.081,1.181,-0.67,-1.181,0.164
2261.0,-10.156,0.081,1.181,-0.67,-1.181,0.164
2265.0,-10.248,0.099,0.933,-0.835,-1.148,0.114
2269.0,-10.248,0.099,0.933,-0.835,-1.148,0.114
2273.0,-10.248,0.099,0.933,-0.835,-1.148,0.114
2277.0,-10.435,0.033,0.747,-1.011,-1.073,0.069
2281.0,-10.435,0.033,0.747,-1.011,-1.073,0.069
2285.0,-10.619,-0.106,0.684,-1.185,-0.971,0.026
2289.0,-10.619,-0.106,0.684,-1.185,-0.971,0.026
2293.0,-10.619,-0.315,0.715,-1.185,-0.971,0.026
2297.0,-10.784,-0.315,0.715,-1.345,-0.866,-0.018
2301.0,-10.784,-0.315,0.715,-1.345,-0.866,-0.018
2306.0,-10.835,-0.525,0.839,-1.477,-0.775,-0.067
2310.0,-10.835,-0.525,0.839,-1.477,-0.775,-0.067
2314.0,-10.811,-0.702,1.01,-1.573,-0.714,-0.125
2318.0,-10.811,-0.702,1.01,-1.573,-0.714,-0.125
2322.0,-10.811,-0.702,1.01,-1.573,-0.714,-0.125
2326.0,-10.762,-0.834,1.085,-1.635,-0.685,-0.188
2331.0,-10.762,-0.834,1.085,-1.635,-0.685,-0.188
2335.0,-10.603,-0.948,1.07,-1.664,-0.674,-0.251
2339.0,-10.603,-0.948,1.07,-1.664,-0.674,-0.251
2343.0,-10.269,-1.073,1.023,-1.664,-0.672,-0.31
2347.0,-10.269,-1.073,1.023,-1.664,-0.672,-0.31
2351.0,-10.269,-1.073,1.023,-1.664,-0.672,-0.31
2356.0,-9.81,-1.18,0.981,-1.635,-0.661,-0.371
2360.0,-9.81,-1.18,0.981,-1.635,-0.661,-0.371
2364.0,-9.36,-1.259,0.982,-1.577,-0.637,-0.433
2368.0,-9.36,-1.259,0.982,-1.577,-0.637,-0.433
2372.0,-9.36,-1.259,1.028,-1.577,-0.637,-0.433
2376.0,-8.978,-1.294,1.028,-1.487,-0.599,-0.487
2380.0,-8.978,-1.294,1.028,-1.487,-0.599,-0.487
2384.0,-8.734,-1.31,1.107,-1.372,-0.554,-0.522
2388.0,-8.734,-1.31,1.107,-1.372,-0.554,-0.522
2392.0,-8.64,-1.315,1.191,-1.372,-0.554,-0.536
2396.0,-8.64,-1.315,1.191,-1.237,-0.504,-0.536
2400.0,-8.64,-1.315,1.191,-1.237,-0.504,-0.536
2404.0,-8.691,-1.321,1.256,-1.084,-0.451,-0.524
2409.0,-8.691,-1.321,1.256,-1.084,-0.451,-0.524
2413.0,-8.781,-1.337,1.338,-0.917,-0.402,-0.49
2417.0,-8.781,-1.337,1.338,-0.917,-0.402,-0.49
2421.0,-8.781,-1.337,1.338,-0.917,-0.402,-0.49
2425.0,-8.885,-1.366,1.365,-0.744,-0.36,-0.444
2429.0,-8.885,-1.366,1.365,-0.744,-0.36,-0.444
2433.0,-9.032,-1.274,1.435,-0.553,-0.321,-0.387
2437.0,-9.032,-1.274,1.435,-0.553,-0.321,-0.387
2441.0,-9.032,-1.144,1.606,-0.553,-0.321,-0.387
2445.0,-9.252,-1.144,1.606,-0.263,-0.277,-0.297
2449.0,-9.252,-1.144,1.606,-0.263,-0.277,-0.297
2453.0,-9.5,-1.052,1.808,0.205,-0.229,-0.154
2457.0,-9.5,-1.052,1.808,0.205,-0.229,-0.154
2461.0,-9.56,-1.128,1.865,0.205,-0.175,0.045
2465.0,-9.56,-1.128,1.865,0.906,-0.175,0.045
2469.0,-9.56,-1.128,1.865,0.906,-0.175,0.045
2473.0,-9.535,-1.027,1.733,1.664,-0.122,0.24
2477.0,-9.535,-1.027,1.733,1.664,-0.122,0.24
2481.0,-9.278,-0.623,1.542,1.664,-0.122,0.24
2485.0,-9.278,-0.623,1.542,2.241,-0.074,0.367
2489.0,-9.278,-0.623,1.542,2.241,-0.074,0.367
2493.0,-8.989,-0.234,1.295,2.508,-0.035,0.418
2497.0,-8.989,-0.234,1.295,2.508,-0.035,0.418
2500.0,-8.907,0.062,1.187,2.508,-0.035,0.418
2504.0,-8.907,0.062,1.187,2.518,0.008,0.411
2508.0,-8.907,0.062,1.187,2.518,0.008,0.411
2512.0,-9.055,0.376,1.211,2.357,0.054,0.37
2515.0,-9.055,0.376,1.211,2.357,0.054,0.37
2519.0,-9.055,0.376,1.211,2.357,0.054,0.37
2523.0,-9.236,0.697,1.207,2.116,0.094,0.323
2527.0,-9.236,0.697,1.207,2.116,0.094,0.323
2530.0,-9.315,1.076,1.151,2.116,0.094,0.289
2534.0,-9.315,1.076,1.151,1.866,0.121,0.289
2538.0,-9.315,1.076,1.151,1.866,0.121,0.289
2542.0,-9.294,1.388,1.025,1.637,0.137,0.273
2545.0,-9.294,1.388,1.025,1.637,0.137,0.273
2549.0,-9.294,1.388,1.025,1.637,0.137,0.273
2553.0,-9.21,1.637,0.878,1.422,0.145,0.261
2557.0,-9.21,1.637,0.878,1.422,0.145,0.261
2560.0,-8.989,1.853,0.845,1.181,0.154,0.254
2564.0,-8.989,1.853,0.845,1.181,0.154,0.254
2568.0,-8.989,1.853,0.845,1.181,0.154,0.254
2571.0,-8.778,1.988,0.855,0.892,0.16,0.246
2575.0,-8.778,1.988,0.855,0.892,0.16,0.246
2579.0,-8.778,1.988,0.855,0.892,0.16,0.246
2583.0,-8.619,2.041,0.823,0.565,0.16,0.223
2586.0,-8.619,2.041,0.823,0.565,0.16,0.223
2590.0,-8.471,2.027,0.758,0.224,0.154,0.177
2594.0,-8.471,2.027,0.758,0.224,0.154,0.177
2598.0,-8.471,2.027,0.758,0.224,0.154,0.177
2601.0,-8.314,2.04,0.709,-0.122,0.145,0.112
2605.0,-8.314,2.04,0.709,-0.122,0.145,0.112
2609.0,-8.314,2.023,0.615,-0.122,0.145,0.112
2613.0,-8.218,2.023,0.615,-0.471,0.141,0.038
2617.0,-8.218,2.023,0.615,-0.471,0.141,0.038
2620.0,-8.265,2.012,0.483,-0.822,0.157,-0.037
2624.0,-8.265,2.012,0.483,-0.822,0.157,-0.037
2628.0,-8.265,2.012,0.483,-0.822,0.157,-0.037
2632.0,-8.528,1.975,0.396,-1.168,0.207,-0.101
2636.0,-8.528,1.975,0.396,-1.168,0.207,-0.101
2640.0,-9.048,1.878,0.398,-1.5,0.294,-0.135
2644.0,-9.048,1.878,0.398,-1.5,0.294,-0.135
2648.0,-9.048,1.878,0.398,-1.5,0.294,-0.135
2652.0,-9.78,1.69,0.456,-1.816,0.407,-0.132
2656.0,-9.78,1.69,0.456,-1.816,0.407,-0.132
2659.0,-10.723,1.453,0.547,-2.115,0.529,-0.091
2663.0,-10.723,1.453,0.547,-2.115,0.529,-0.091
2667.0,-10.723,1.453,0.547,-2.115,0.529,-0.091
2671.0,-11.871,1.135,0.642,-2.395,0.651,-0.016
2675.0,-11.871,1.135,0.642,-2.395,0.651,-0.016
2679.0,-13.098,0.737,0.797,-2.651,0.761,0.082
2683.0,-13.098,0.737,0.797,-2.651,0.761,0.082
2687.0,-13.098,0.737,0.797,-2.651,0.761,0.082
2691.0,-14.25,0.237,1.018,-2.869,0.838,0.19
2695.0,-14.25,0.237,1.018,-2.869,0.838,0.19
2699.0,-15.028,-0.271,1.298,-3.035,0.863,0.298
2703.0,-15.028,-0.271,1.298,-3.035,0.863,0.298
2707.0,-15.028,-0.271,1.298,-3.035,0.863,0.298
2711.0,-15.255,-0.671,1.61,-3.139,0.821,0.385
2715.0,-15.255,-0.671,1.61,-3.139,0.821,0.385
2719.0,-14.953,-0.913,1.894,-3.161,0.718,0.427
2723.0,-14.953,-0.913,1.894,-3.161,0.718,0.427
2727.0,-14.953,-0.913,1.894,-3.161,0.718,0.427
2731.0,-14.233,-0.854,2.101,-3.107,0.579,0.411
2735.0,-14.233,-0.854,2.101,-3.107,0.579,0.411
2739.0,-13.201,-0.997,2.064,-2.973,0.429,0.341
2743.0,-13.201,-0.997,2.064,-2.973,0.429,0.341
2747.0,-13.201,-0.997,1.801,-2.973,0.429,0.341
2751.0,-11.801,-1.28,1.801,-2.775,0.279,0.252
2755.0,-11.801,-1.28,1.801,-2.775,0.279,0.252
2759.0,-10.531,-1.338,1.615,-2.573,0.15,0.16
2763.0,-10.531,-1.338,1.615,-2.573,0.15,0.16
2767.0,-10.531,-1.28,1.524,-2.573,0.15,0.16
2771.0,-9.608,-1.28,1.524,-2.371,0.073,0.042
2775.0,-9.608,-1.28,1.524,-2.371,0.073,0.042
2779.0,-8.999,-1.182,1.475,-2.16,0.028,-0.08
2783.0,-8.999,-1.182,1.475,-2.16,0.028,-0.08
2787.0,-8.799,-1.073,1.445,-2.16,0.028,-0.08
2791.0,-8.799,-1.073,1.445,-1.937,0.007,-0.165
2795.0,-8.799,-1.073,1.445,-1.937,0.007,-0.165
2799.0,-9.068,-0.949,1.415,-1.709,0.016,-0.184
2803.0,-9.068,-0.949,1.415,-1.709,0.016,-0.184
2807.0,-9.861,-0.938,1.433,-1.709,0.016,-0.184
2811.0,-9.861,-0.938,1.433,-1.478,0.055,-0.13
2815.0,-9.861,-0.938,1.433,-1.478,0.055,-0.13
2819.0,-10.91,-1.141,1.517,-1.243,0.105,-0.013
2823.0,-10.91,-1.141,1.517,-1.243,0.105,-0.013
2827.0,-11.821,-1.503,1.754,-1.003,0.134,0.139
2831.0,-11.821,-1.503,1.754,-1.003,0.134,0.139
2835.0,-11.821,-1.503,1.754,-1.003,0.134,0.139
2839.0,-12.419,-1.876,2.031,-0.757,0.112,0.291
2843.0,-12.419,-1.876,2.031,-0.757,0.112,0.291
2847.0,-12.657,-2.16,2.198,-0.511,0.034,0.418
2851.0,-12.657,-2.16,2.198,-0.511,0.034,0.418
2855.0,-12.657,-2.16,2.198,-0.511,0.034,0.418
2859.0,-12.523,-2.297,2.24,-0.278,-0.079,0.501
2863.0,-12.523,-2.297,2.24,-0.278,-0.079,0.501
2867.0,-12.109,-2.265,2.133,-0.081,-0.202,0.54
2871.0,-12.109,-2.265,2.133,-0.081,-0.202,0.54
2875.0,-12.109,-2.265,2.133,-0.081,-0.202,0.54
2879.0,-11.531,-2.1,2.006,0.067,-0.313,0.536
2883.0,-11.531,-2.1,2.006,0.067,-0.313,0.536
2887.0,-10.944,-1.842,1.857,0.165,-0.401,0.502
2891.0,-10.944,-1.842,1.857,0.165,-0.401,0.502
2895.0,-10.944,-1.842,1.7,0.165,-0.401,0.502
2899.0,-10.433,-1.505,1.7,0.219,-0.464,0.452
2903.0,-10.433,-1.505,1.7,0.219,-0.464,0.452
2907.0,-9.958,-1.183,1.621,0.24,-0.498,0.399
2911.0,-9.958,-1.183,1.621,0.24,-0.498,0.399
2915.0,-9.958,-0.897,1.668,0.24,-0.498,0.399
2919.0,-9.525,-0.897,1.668,0.239,-0.504,0.349
2923.0,-9.525,-0.897,1.668,0.239,-0.504,0.349
2927.0,-9.227,-0.678,1.772,0.227,-0.491,0.313
2930.0,-9.227,-0.678,1.772,0.227,-0.491,0.313
2934.0,-9.227,-0.678,1.942,0.227,-0.491,0.313
2938.0,-9.167,-0.529,1.942,0.211,-0.463,0.301
2942.0,-9.167,-0.529,1.942,0.211,-0.463,0.301
2946.0,-9.383,-0.434,2.173,0.199,-0.43,0.313
2950.0,-9.383,-0.434,2.173,0.199,-0.43,0.313
2954.0,-9.383,-0.434,2.173,0.199,-0.43,0.313
2958.0,-9.799,-0.386,2.436,0.192,-0.41,0.351
2962.0,-9.799,-0.386,2.436,0.192,-0.41,0.351
2966.0,-10.228,-0.409,2.573,0.191,-0.413,0.416
2970.0,-10.228,-0.409,2.573,0.191,-0.413,0.416
2974.0,-10.228,-0.409,2.573,0.191,-0.413,0.416
2978.0,-10.494,-0.501,2.614,0.183,-0.428,0.495
2982.0,-10.494,-0.501,2.614,0.183,-0.428,0.495
2986.0,-10.506,-0.624,2.6,0.16,-0.439,0.572
2990.0,-10.506,-0.624,2.6,0.16,-0.439,0.572
2994.0,-10.506,-0.624,2.545,0.16,-0.439,0.572
2998.0,-10.298,-0.753,2.545,0.118,-0.443,0.635
