deltaTime,Acc_X,Acc_Y,Acc_Z,Gyro_X,Gyro_Y,Gyro_Z
0.0,3.546,4.099,7.319,-0.171,-0.03,-0.348
3.0,3.546,4.099,7.319,-0.171,-0.03,-0.348
6.0,3.546,4.099,7.319,-0.171,-0.03,-0.348
9.0,3.816,4.359,7.388,-0.171,-0.038,-0.361
12.0,3.816,4.359,7.388,-0.108,-0.038,-0.361
15.0,3.816,4.359,7.388,-0.108,-0.038,-0.361
18.0,3.816,4.359,7.388,-0.108,-0.038,-0.361
21.0,3.994,4.751,7.494,-0.072,-0.066,-0.391
24.0,3.994,4.751,7.494,-0.072,-0.066,-0.391
27.0,3.994,4.751,7.494,-0.072,-0.066,-0.391
30.0,4.18,5.17,7.806,-0.084,-0.063,-0.408
33.0,4.18,5.17,7.806,-0.084,-0.063,-0.408
36.0,4.18,5.17,7.806,-0.084,-0.063,-0.408
40.0,4.247,5.208,8.024,-0.105,-0.052,-0.407
43.0,4.247,5.208,8.024,-0.105,-0.052,-0.407
47.0,4.247,5.208,8.024,-0.105,-0.052,-0.407
51.0,4.35,5.151,8.227,-0.103,-0.076,-0.377
55.0,4.35,5.151,8.227,-0.103,-0.076,-0.377
58.0,4.889,5.43,8.471,-0.103,-0.151,-0.354
62.0,4.889,5.43,8.471,-0.087,-0.151,-0.354
66.0,4.889,5.43,8.471,-0.087,-0.151,-0.354
70.0,4.612,5.467,8.484,-0.097,-0.122,-0.36
73.0,4.612,5.467,8.484,-0.097,-0.122,-0.36
77.0,4.612,5.467,8.484,-0.097,-0.122,-0.36
81.0,4.777,5.543,8.165,-0.115,-0.134,-0.355
84.0,4.777,5.543,8.165,-0.115,-0.134,-0.355
88.0,5.024,5.532,8.041,-0.189,-0.111,-0.35
92.0,5.024,5.532,8.041,-0.189,-0.111,-0.35
96.0,5.024,5.532,8.041,-0.189,-0.111,-0.35
99.0,4.699,5.419,8.148,-0.287,-0.048,-0.377
103.0,4.699,5.419,8.148,-0.287,-0.048,-0.377
107.0,4.699,5.419,8.361,-0.287,-0.048,-0.377
111.0,4.02,5.189,8.361,-0.335,-0.0,-0.422
115.0,4.02,5.189,8.361,-0.335,-0.0,-0.422
118.0,3.471,5.195,8.7,-0.315,0.033,-0.453
122.0,3.471,5.195,8.7,-0.315,0.033,-0.453
126.0,3.471,5.195,8.7,-0.315,0.033,-0.453
130.0,2.978,5.052,9.016,-0.255,0.064,-0.473
133.0,2.978,5.052,9.016,-0.255,0.064,-0.473
137.0,2.782,4.972,9.153,-0.255,0.064,-0.478
141.0,2.782,4.972,9.153,-0.16,0.085,-0.478
145.0,2.782,4.972,9.153,-0.16,0.085,-0.478
148.0,2.862,4.807,9.37,-0.061,0.128,-0.486
152.0,2.862,4.807,9.37,-0.061,0.128,-0.486
156.0,2.862,4.807,9.37,-0.061,0.128,-0.486
159.0,2.914,4.507,9.513,0.061,0.173,-0.518
163.0,2.914,4.507,9.513,0.061,0.173,-0.518
167.0,2.872,4.339,9.559,0.061,0.173,-0.579
170.0,2.872,4.339,9.559,0.24,0.183,-0.579
174.0,2.872,4.339,9.559,0.24,0.183,-0.579
178.0,2.469,4.617,9.492,0.478,0.173,-0.638
181.0,2.469,4.617,9.492,0.478,0.173,-0.638
185.0,2.469,4.617,9.492,0.478,0.173,-0.638
189.0,1.397,5.315,9.058,0.7,0.103,-0.709
192.0,1.397,5.315,9.058,0.7,0.103,-0.709
196.0,1.397,5.675,8.395,0.7,0.103,-0.709
200.0,1.664,5.675,8.395,0.834,-0.03,-0.779
203.0,1.664,5.675,8.395,0.834,-0.03,-0.779
207.0,2.011,6.252,7.848,0.874,-0.117,-0.801
211.0,2.011,6.252,7.848,0.874,-0.117,-0.801
214.0,2.011,6.252,7.848,0.874,-0.117,-0.801
218.0,2.003,6.458,7.824,0.787,-0.157,-0.792
222.0,2.003,6.458,7.824,0.787,-0.157,-0.792
226.0,1.802,6.129,8.084,0.787,-0.157,-0.792
229.0,1.802,6.129,8.084,0.61,-0.203,-0.806
233.0,1.802,6.129,8.084,0.61,-0.203,-0.806
237.0,1.51,5.81,8.157,0.426,-0.271,-0.862
241.0,1.51,5.81,8.157,0.426,-0.271,-0.862
244.0,1.51,5.81,8.157,0.426,-0.271,-0.862
248.0,1.426,5.727,8.266,0.26,-0.344,-0.926
252.0,1.426,5.727,8.266,0.26,-0.344,-0.926
256.0,1.547,5.66,8.384,0.26,-0.344,-0.954
259.0,1.547,5.66,8.384,0.134,-0.413,-0.954
263.0,1.547,5.66,8.384,0.134,-0.413,-0.954
267.0,1.714,5.522,8.538,0.059,-0.468,-0.945
270.0,1.714,5.522,8.538,0.059,-0.468,-0.945
274.0,1.714,5.522,8.538,0.059,-0.468,-0.945
278.0,1.8,5.317,8.602,0.031,-0.519,-0.923
282.0,1.8,5.317,8.602,0.031,-0.519,-0.923
285.0,1.896,5.191,8.594,0.031,-0.569,-0.898
289.0,1.896,5.191,8.594,0.032,-0.569,-0.898
293.0,1.896,5.191,8.594,0.032,-0.569,-0.898
297.0,2.023,5.01,8.549,0.047,-0.608,-0.884
300.0,2.023,5.01,8.549,0.047,-0.608,-0.884
304.0,2.023,5.01,8.549,0.047,-0.608,-0.884
308.0,2.187,4.793,8.337,0.093,-0.64,-0.903
312.0,2.187,4.793,8.337,0.093,-0.64,-0.903
315.0,2.341,4.685,8.003,0.171,-0.663,-0.958
319.0,2.341,4.685,8.003,0.171,-0.663,-0.958
323.0,2.341,4.685,8.003,0.171,-0.663,-0.958
326.0,2.426,4.725,7.862,0.261,-0.673,-1.022
330.0,2.426,4.725,7.862,0.261,-0.673,-1.022
334.0,2.426,4.725,7.881,0.261,-0.673,-1.022
338.0,2.422,4.753,7.881,0.357,-0.67,-1.082
341.0,2.422,4.753,7.881,0.357,-0.67,-1.082
345.0,2.205,4.907,7.981,0.462,-0.665,-1.139
349.0,2.205,4.907,7.981,0.462,-0.665,-1.139
353.0,2.205,4.907,7.981,0.462,-0.665,-1.139
356.0,1.893,5.058,8.073,0.569,-0.672,-1.173
360.0,1.893,5.058,8.073,0.569,-0.672,-1.173
364.0,1.624,5.158,8.11,0.569,-0.672,-1.173
368.0,1.624,5.158,8.11,0.665,-0.691,-1.187
371.0,1.624,5.158,8.11,0.665,-0.691,-1.187
375.0,1.342,5.297,7.997,0.747,-0.714,-1.19
379.0,1.342,5.297,7.997,0.747,-0.714,-1.19
382.0,1.342,5.297,7.997,0.747,-0.714,-1.19
386.0,1.246,5.359,7.744,0.803,-0.738,-1.178
390.0,1.246,5.359,7.744,0.803,-0.738,-1.178
394.0,1.226,5.321,7.521,0.803,-0.738,-1.171
397.0,1.226,5.321,7.521,0.825,-0.749,-1.171
401.0,1.226,5.321,7.521,0.825,-0.749,-1.171
405.0,1.189,5.241,7.337,0.823,-0.749,-1.188
409.0,1.189,5.241,7.337,0.823,-0.749,-1.188
412.0,1.189,5.241,7.337,0.823,-0.749,-1.188
416.0,1.068,5.352,7.169,0.805,-0.743,-1.229
420.0,1.068,5.352,7.169,0.805,-0.743,-1.229
424.0,0.727,5.64,7.083,0.805,-0.733,-1.269
427.0,0.727,5.64,7.083,0.786,-0.733,-1.269
431.0,0.727,5.64,7.083,0.786,-0.733,-1.269
435.0,0.445,6.079,7.001,0.775,-0.744,-1.291
438.0,0.445,6.079,7.001,0.775,-0.744,-1.291
442.0,0.445,6.079,7.001,0.775,-0.744,-1.291
446.0,0.283,6.604,6.806,0.772,-0.78,-1.288
450.0,0.283,6.604,6.806,0.772,-0.78,-1.288
453.0,0.412,7.051,6.508,0.772,-0.83,-1.248
457.0,0.412,7.051,6.508,0.772,-0.83,-1.248
461.0,0.412,7.051,6.508,0.772,-0.83,-1.248
465.0,0.808,7.25,6.184,0.763,-0.871,-1.177
468.0,0.808,7.25,6.184,0.763,-0.871,-1.177
472.0,0.808,7.25,5.922,0.763,-0.871,-1.177
476.0,1.178,7.339,5.922,0.742,-0.888,-1.105
480.0,1.178,7.339,5.922,0.742,-0.888,-1.105
483.0,1.408,7.541,5.791,0.71,-0.883,-1.034
487.0,1.408,7.541,5.791,0.71,-0.883,-1.034
491.0,1.408,7.541,5.791,0.71,-0.883,-1.034
494.0,1.548,7.558,5.718,0.667,-0.859,-0.957
498.0,1.548,7.558,5.718,0.667,-0.859,-0.957
502.0,1.548,7.566,5.643,0.667,-0.859,-0.957
506.0,1.518,7.566,5.643,0.624,-0.818,-0.893
509.0,1.518,7.566,5.643,0.624,-0.818,-0.893
513.0,1.365,7.711,5.701,0.589,-0.772,-0.841
517.0,1.365,7.711,5.701,0.589,-0.772,-0.841
521.0,1.365,7.711,5.701,0.589,-0.772,-0.841
524.0,1.113,7.993,5.931,0.567,-0.744,-0.788
528.0,1.113,7.993,5.931,0.567,-0.744,-0.788
532.0,0.901,8.24,6.101,0.567,-0.744,-0.788
535.0,0.901,8.24,6.101,0.554,-0.749,-0.706
539.0,0.901,8.24,6.101,0.554,-0.749,-0.706
543.0,0.922,8.348,6.059,0.535,-0.765,-0.592
547.0,0.922,8.348,6.059,0.535,-0.765,-0.592
550.0,0.922,8.348,6.059,0.535,-0.765,-0.592
554.0,1.058,8.451,5.926,0.504,-0.768,-0.485
558.0,1.058,8.451,5.926,0.504,-0.768,-0.485
562.0,1.113,8.635,5.68,0.504,-0.76,-0.399
565.0,1.113,8.635,5.68,0.46,-0.76,-0.399
569.0,1.113,8.635,5.68,0.46,-0.76,-0.399
573.0,1.204,8.766,5.422,0.398,-0.74,-0.311
577.0,1.204,8.766,5.422,0.398,-0.74,-0.311
580.0,1.204,8.766,5.422,0.398,-0.74,-0.311
584.0,1.302,8.765,5.171,0.328,-0.702,-0.229
588.0,1.302,8.765,5.171,0.328,-0.702,-0.229
591.0,1.329,8.719,4.979,0.263,-0.651,-0.158
595.0,1.329,8.719,4.979,0.263,-0.651,-0.158
599.0,1.329,8.719,4.979,0.263,-0.651,-0.158
603.0,1.317,8.64,5.079,0.208,-0.59,-0.076
606.0,1.317,8.64,5.079,0.208,-0.59,-0.076
610.0,1.317,8.64,5.079,0.208,-0.59,-0.076
614.0,1.304,8.533,5.288,0.173,-0.527,0.029
618.0,1.304,8.533,5.288,0.173,-0.527,0.029
621.0,1.172,8.56,5.566,0.167,-0.476,0.149
625.0,1.172,8.56,5.566,0.167,-0.476,0.149
628.0,1.172,8.56,5.566,0.167,-0.476,0.149
632.0,0.946,8.647,5.743,0.183,-0.457,0.279
636.0,0.946,8.647,5.743,0.183,-0.457,0.279
639.0,0.946,8.647,5.743,0.183,-0.457,0.279
643.0,0.815,8.722,5.815,0.204,-0.464,0.407
647.0,0.815,8.722,5.815,0.204,-0.464,0.407
650.0,0.845,8.716,5.787,0.204,-0.464,0.502
654.0,0.845,8.716,5.787,0.214,-0.488,0.502
658.0,0.845,8.716,5.787,0.214,-0.488,0.502
661.0,1.017,8.659,5.604,0.201,-0.523,0.548
665.0,1.017,8.659,5.604,0.201,-0.523,0.548
669.0,1.017,8.659,5.604,0.201,-0.523,0.548
672.0,1.356,8.665,5.377,0.162,-0.545,0.559
676.0,1.356,8.665,5.377,0.162,-0.545,0.559
680.0,1.356,8.75,5.203,0.162,-0.545,0.559
683.0,1.686,8.75,5.203,0.103,-0.534,0.549
687.0,1.686,8.75,5.203,0.103,-0.534,0.549
690.0,1.68,9.17,5.072,0.049,-0.504,0.53
694.0,1.68,9.17,5.072,0.049,-0.504,0.53
698.0,1.68,9.17,5.072,0.049,-0.504,0.53
701.0,1.603,9.675,4.912,0.003,-0.473,0.566
705.0,1.603,9.675,4.912,0.003,-0.473,0.566
709.0,1.603,9.675,4.912,0.003,-0.473,0.566
712.0,1.619,9.969,4.895,-0.035,-0.428,0.661
716.0,1.619,9.969,4.895,-0.035,-0.428,0.661
720.0,1.495,10.115,4.939,-0.051,-0.365,0.772
724.0,1.495,10.115,4.939,-0.051,-0.365,0.772
727.0,1.495,10.115,4.939,-0.051,-0.365,0.772
731.0,1.461,10.143,5.197,-0.052,-0.287,0.899
735.0,1.461,10.143,5.197,-0.052,-0.287,0.899
739.0,1.373,10.062,5.511,-0.052,-0.287,0.899
743.0,1.373,10.062,5.511,-0.027,-0.209,1.026
747.0,1.373,10.062,5.511,-0.027,-0.209,1.026
750.0,1.095,10.08,5.602,0.029,-0.149,1.157
754.0,1.095,10.08,5.602,0.029,-0.149,1.157
758.0,1.095,10.08,5.602,0.029,-0.149,1.157
762.0,1.04,10.09,5.512,0.09,-0.112,1.311
765.0,1.04,10.09,5.512,0.09,-0.112,1.311
769.0,1.217,10.19,5.474,0.09,-0.091,1.448
773.0,1.217,10.19,5.474,0.13,-0.091,1.448
776.0,1.217,10.19,5.474,0.13,-0.091,1.448
780.0,1.202,10.638,5.366,0.15,-0.084,1.542
784.0,1.202,10.638,5.366,0.15,-0.084,1.542
788.0,1.202,10.638,5.366,0.15,-0.084,1.542
791.0,1.233,11.083,5.136,0.142,-0.078,1.654
795.0,1.233,11.083,5.136,0.142,-0.078,1.654
799.0,1.369,11.325,5.111,0.106,-0.052,1.811
803.0,1.369,11.325,5.111,0.106,-0.052,1.811
806.0,1.369,11.325,5.111,0.106,-0.052,1.811
810.0,1.482,11.477,5.105,0.056,-0.03,1.976
814.0,1.482,11.477,5.105,0.056,-0.03,1.976
818.0,1.482,11.477,5.084,0.056,-0.03,1.976
821.0,1.6,11.461,5.084,-0.007,-0.007,2.153
825.0,1.6,11.461,5.084,-0.007,-0.007,2.153
829.0,1.574,11.199,5.221,-0.07,0.039,2.334
833.0,1.574,11.199,5.221,-0.07,0.039,2.334
836.0,1.574,11.199,5.221,-0.07,0.039,2.334
840.0,1.419,10.955,5.38,-0.114,0.075,2.503
844.0,1.419,10.955,5.38,-0.114,0.075,2.503
848.0,1.309,10.716,5.472,-0.114,0.075,2.503
851.0,1.309,10.716,5.472,-0.142,0.093,2.67
855.0,1.309,10.716,5.472,-0.142,0.093,2.67
859.0,1.172,10.401,5.601,-0.16,0.105,2.828
862.0,1.172,10.401,5.601,-0.16,0.105,2.828
866.0,1.172,10.401,5.601,-0.16,0.105,2.828
870.0,1.043,10.113,5.71,-0.165,0.109,2.972
874.0,1.043,10.113,5.71,-0.165,0.109,2.972
877.0,0.984,9.916,5.882,-0.165,0.109,3.103
881.0,0.984,9.916,5.882,-0.163,0.101,3.103
885.0,0.984,9.916,5.882,-0.163,0.101,3.103
888.0,1.105,9.812,6.106,-0.149,0.086,3.222
892.0,1.105,9.812,6.106,-0.149,0.086,3.222
896.0,1.105,9.812,6.106,-0.149,0.086,3.222
899.0,1.226,9.846,6.405,-0.111,0.073,3.318
903.0,1.226,9.846,6.405,-0.111,0.073,3.318
907.0,1.226,9.986,6.644,-0.111,0.073,3.318
910.0,1.322,9.986,6.644,-0.051,0.042,3.413
914.0,1.322,9.986,6.644,-0.051,0.042,3.413
918.0,1.393,10.109,6.721,0.016,-0.002,3.525
921.0,1.393,10.109,6.721,0.016,-0.002,3.525
925.0,1.393,10.109,6.721,0.016,-0.002,3.525
929.0,1.473,10.032,6.702,0.076,-0.046,3.667
932.0,1.473,10.032,6.702,0.076,-0.046,3.667
936.0,1.473,9.756,6.64,0.076,-0.046,3.667
940.0,1.492,9.756,6.64,0.126,-0.09,3.83
943.0,1.492,9.756,6.64,0.126,-0.09,3.83
947.0,1.58,9.336,6.623,0.162,-0.127,4.0
951.0,1.58,9.336,6.623,0.162,-0.127,4.0
954.0,1.58,9.336,6.623,0.162,-0.127,4.0
958.0,1.697,8.932,6.744,0.189,-0.154,4.157
962.0,1.697,8.932,6.744,0.189,-0.154,4.157
965.0,1.697,8.932,6.744,0.189,-0.154,4.157
969.0,1.89,8.407,6.711,0.21,-0.177,4.291
973.0,1.89,8.407,6.711,0.21,-0.177,4.291
976.0,2.113,7.978,6.826,0.21,-0.19,4.392
980.0,2.113,7.978,6.826,0.216,-0.19,4.392
984.0,2.113,7.978,6.826,0.216,-0.19,4.392
987.0,2.185,7.567,6.974,0.21,-0.208,4.457
991.0,2.185,7.567,6.974,0.21,-0.208,4.457
995.0,2.185,7.567,6.974,0.21,-0.208,4.457
998.0,2.186,7.121,7.027,0.186,-0.236,4.486
1002.0,2.186,7.121,7.027,0.186,-0.236,4.486
1006.0,1.938,6.809,7.073,0.186,-0.236,4.486
1009.0,1.938,6.809,7.073,0.146,-0.262,4.474
1013.0,1.938,6.809,7.073,0.146,-0.262,4.474
1017.0,1.469,6.534,6.917,0.097,-0.298,4.463
1020.0,1.469,6.534,6.917,0.097,-0.298,4.463
1024.0,1.469,6.534,6.917,0.097,-0.298,4.463
1028.0,1.266,6.008,6.73,0.015,-0.343,4.515
1032.0,1.266,6.008,6.73,0.015,-0.343,4.515
1035.0,1.316,5.409,6.724,0.015,-0.389,4.597
1039.0,1.316,5.409,6.724,-0.094,-0.389,4.597
1043.0,1.316,5.409,6.724,-0.094,-0.389,4.597
1047.0,1.383,4.554,6.476,-0.205,-0.444,4.678
1051.0,1.383,4.554,6.476,-0.205,-0.444,4.678
1054.0,1.383,4.554,6.038,-0.205,-0.444,4.678
1058.0,1.504,3.453,6.038,-0.317,-0.471,4.713
1062.0,1.504,3.453,6.038,-0.317,-0.471,4.713
1066.0,1.525,2.429,5.684,-0.424,-0.454,4.668
1070.0,1.525,2.429,5.684,-0.424,-0.454,4.668
1074.0,1.525,2.429,5.684,-0.424,-0.454,4.668
1077.0,1.463,1.603,5.428,-0.507,-0.414,4.55
1081.0,1.463,1.603,5.428,-0.507,-0.414,4.55
1085.0,1.307,0.791,5.263,-0.562,-0.349,4.389
1089.0,1.307,0.791,5.263,-0.562,-0.349,4.389
1093.0,1.307,0.791,5.263,-0.562,-0.349,4.389
1096.0,1.301,-0.02,4.99,-0.614,-0.268,4.209
1100.0,1.301,-0.02,4.99,-0.614,-0.268,4.209
1104.0,1.495,-0.645,4.427,-0.614,-0.268,4.209
1108.0,1.495,-0.645,4.427,-0.676,-0.163,4.0
1112.0,1.495,-0.645,4.427,-0.676,-0.163,4.0
1116.0,1.705,-0.929,3.843,-0.773,-0.01,3.759
1120.0,1.705,-0.929,3.843,-0.773,-0.01,3.759
1124.0,1.705,-0.879,3.669,-0.773,-0.01,3.759
1128.0,1.645,-0.879,3.669,-0.917,0.18,3.518
1131.0,1.645,-0.879,3.669,-0.917,0.18,3.518
1135.0,1.194,-0.751,3.634,-1.098,0.362,3.322
1139.0,1.194,-0.751,3.634,-1.098,0.362,3.322
1143.0,1.194,-0.751,3.634,-1.098,0.362,3.322
1147.0,0.372,-0.516,3.768,-1.295,0.499,3.192
1151.0,0.372,-0.516,3.768,-1.295,0.499,3.192
1154.0,-0.815,-0.383,3.906,-1.494,0.573,3.138
1158.0,-0.815,-0.383,3.906,-1.494,0.573,3.138
1162.0,-0.815,-0.383,3.906,-1.494,0.573,3.138
1166.0,-1.744,-0.675,3.438,-1.686,0.589,3.15
1170.0,-1.744,-0.675,3.438,-1.686,0.589,3.15
1174.0,-2.283,-1.323,2.67,-1.866,0.582,3.211
1178.0,-2.283,-1.323,2.67,-1.866,0.582,3.211
1182.0,-2.283,-1.323,2.67,-1.866,0.582,3.211
1186.0,-2.386,-2.437,2.041,-2.02,0.568,3.298
1190.0,-2.386,-2.437,2.041,-2.02,0.568,3.298
1193.0,-2.246,-3.755,1.481,-2.02,0.538,3.389
1197.0,-2.246,-3.755,1.481,-2.145,0.538,3.389
1201.0,-2.246,-3.755,1.481,-2.145,0.538,3.389
1205.0,-1.936,-5.131,1.0,-2.234,0.488,3.481
1209.0,-1.936,-5.131,1.0,-2.234,0.488,3.481
1213.0,-1.54,-6.42,0.732,-2.234,0.488,3.568
1217.0,-1.54,-6.42,0.732,-2.268,0.44,3.568
1221.0,-1.54,-6.42,0.732,-2.268,0.44,3.568
1225.0,-1.168,-7.505,0.76,-2.232,0.397,3.665
1229.0,-1.168,-7.505,0.76,-2.232,0.397,3.665
1233.0,-0.738,-8.63,0.963,-2.232,0.397,3.665
1236.0,-0.738,-8.63,0.963,-2.134,0.346,3.788
1240.0,-0.738,-8.63,0.963,-2.134,0.346,3.788
1244.0,-0.329,-10.009,1.287,-1.97,0.296,3.923
1248.0,-0.329,-10.009,1.287,-1.97,0.296,3.923
1252.0,0.115,-11.374,1.552,-1.97,0.296,3.923
1256.0,0.115,-11.374,1.552,-1.72,0.227,4.018
1260.0,0.115,-11.374,1.552,-1.72,0.227,4.018
1264.0,0.598,-12.438,1.729,-1.402,0.144,4.034
1268.0,0.598,-12.438,1.729,-1.402,0.144,4.034
1272.0,0.598,-13.263,1.668,-1.402,0.144,4.034
1276.0,1.199,-13.263,1.668,-1.061,0.084,3.981
1280.0,1.199,-13.263,1.668,-1.061,0.084,3.981
1283.0,1.832,-13.663,1.478,-0.77,0.074,3.863
1287.0,1.832,-13.663,1.478,-0.77,0.074,3.863
1291.0,1.832,-13.663,1.413,-0.77,0.074,3.863
1295.0,2.546,-13.713,1.413,-0.598,0.105,3.671
1299.0,2.546,-13.713,1.413,-0.598,0.105,3.671
1303.0,3.196,-13.509,1.535,-0.574,0.149,3.415
1307.0,3.196,-13.509,1.535,-0.574,0.149,3.415
1311.0,3.196,-13.509,1.535,-0.574,0.149,3.415
1315.0,3.767,-13.361,1.935,-0.675,0.201,3.134
1319.0,3.767,-13.361,1.935,-0.675,0.201,3.134
1323.0,4.259,-13.497,2.573,-0.831,0.245,2.873
1326.0,4.259,-13.497,2.573,-0.831,0.245,2.873
1330.0,4.259,-13.497,2.573,-0.831,0.245,2.873
1334.0,4.835,-13.948,3.139,-0.957,0.262,2.645
1338.0,4.835,-13.948,3.139,-0.957,0.262,2.645
1342.0,5.252,-14.864,3.676,-0.986,0.308,2.445
1346.0,5.252,-14.864,3.676,-0.986,0.308,2.445
1350.0,5.252,-14.864,3.676,-0.986,0.308,2.445
1354.0,6.025,-15.465,4.324,-0.838,0.268,2.275
1358.0,6.025,-15.465,4.324,-0.838,0.268,2.275
1362.0,6.815,-15.754,4.89,-0.594,0.188,2.129
1366.0,6.815,-15.754,4.89,-0.594,0.188,2.129
1369.0,6.815,-15.754,4.89,-0.594,0.188,2.129
1373.0,7.193,-15.541,4.918,-0.314,0.106,1.986
1377.0,7.193,-15.541,4.918,-0.314,0.106,1.986
1381.0,7.206,-15.093,4.821,-0.082,0.044,1.879
1385.0,7.206,-15.093,4.821,-0.082,0.044,1.879
1389.0,7.206,-15.093,4.821,-0.082,0.044,1.879
1393.0,6.954,-14.646,4.995,0.045,0.005,1.783
1397.0,6.954,-14.646,4.995,0.045,0.005,1.783
1401.0,6.489,-14.061,5.234,0.045,0.005,1.653
1404.0,6.489,-14.061,5.234,0.053,-0.061,1.653
1408.0,6.489,-14.061,5.234,0.053,-0.061,1.653
1412.0,5.856,-13.365,5.242,-0.04,-0.143,1.485
1416.0,5.856,-13.365,5.242,-0.04,-0.143,1.485
1420.0,5.224,-12.657,5.218,-0.04,-0.143,1.485
1424.0,5.224,-12.657,5.218,-0.204,-0.203,1.318
1428.0,5.224,-12.657,5.218,-0.204,-0.203,1.318
1432.0,4.759,-12.089,5.249,-0.392,-0.241,1.172
1436.0,4.759,-12.089,5.249,-0.392,-0.241,1.172
1440.0,4.449,-11.619,5.31,-0.392,-0.26,1.042
1444.0,4.449,-11.619,5.31,-0.56,-0.26,1.042
1448.0,4.449,-11.619,5.31,-0.56,-0.26,1.042
1452.0,4.321,-11.276,5.244,-0.685,-0.269,0.926
1456.0,4.321,-11.276,5.244,-0.685,-0.269,0.926
1460.0,4.435,-11.067,5.176,-0.756,-0.261,0.825
1464.0,4.435,-11.067,5.176,-0.756,-0.261,0.825
1468.0,4.435,-11.067,5.176,-0.756,-0.261,0.825
1472.0,4.707,-10.997,5.132,-0.766,-0.251,0.743
1476.0,4.707,-10.997,5.132,-0.766,-0.251,0.743
1480.0,4.77,-10.945,4.941,-0.719,-0.239,0.679
1484.0,4.77,-10.945,4.941,-0.719,-0.239,0.679
1488.0,4.77,-10.945,4.941,-0.719,-0.239,0.679
1492.0,4.44,-10.918,4.673,-0.63,-0.219,0.644
1496.0,4.44,-10.918,4.673,-0.63,-0.219,0.644
1500.0,3.952,-10.936,4.551,-0.517,-0.197,0.642
1504.0,3.952,-10.936,4.551,-0.517,-0.197,0.642
1508.0,3.952,-10.936,4.551,-0.517,-0.197,0.642
1512.0,3.559,-10.906,4.472,-0.386,-0.198,0.642
1516.0,3.559,-10.906,4.472,-0.386,-0.198,0.642
1520.0,3.323,-10.893,4.406,-0.232,-0.221,0.628
1524.0,3.323,-10.893,4.406,-0.232,-0.221,0.628
1528.0,3.323,-10.893,4.406,-0.232,-0.221,0.628
1532.0,3.319,-10.905,4.31,-0.059,-0.253,0.623
1536.0,3.319,-10.905,4.31,-0.059,-0.253,0.623
1540.0,3.567,-10.848,4.226,0.13,-0.276,0.622
1544.0,3.567,-10.848,4.226,0.13,-0.276,0.622
1548.0,3.567,-10.848,4.226,0.13,-0.276,0.622
1552.0,3.973,-10.735,4.178,0.318,-0.285,0.607
1556.0,3.973,-10.735,4.178,0.318,-0.285,0.607
1559.0,4.464,-10.621,4.274,0.479,-0.282,0.581
1563.0,4.464,-10.621,4.274,0.479,-0.282,0.581
1567.0,4.464,-10.621,4.274,0.479,-0.282,0.581
1571.0,4.784,-10.589,4.351,0.591,-0.267,0.552
1575.0,4.784,-10.589,4.351,0.591,-0.267,0.552
1579.0,4.75,-10.548,4.302,0.648,-0.251,0.494
1583.0,4.75,-10.548,4.302,0.648,-0.251,0.494
1587.0,4.75,-10.548,4.302,0.648,-0.251,0.494
1591.0,4.348,-10.44,4.083,0.649,-0.238,0.409
1595.0,4.348,-10.44,4.083,0.649,-0.238,0.409
1599.0,3.827,-10.225,3.879,0.599,-0.216,0.32
1602.0,3.827,-10.225,3.879,0.599,-0.216,0.32
1606.0,3.827,-10.225,3.879,0.599,-0.216,0.32
1610.0,3.38,-10.004,3.812,0.51,-0.192,0.239
1614.0,3.38,-10.004,3.812,0.51,-0.192,0.239
1618.0,3.117,-9.798,3.765,0.403,-0.183,0.161
1622.0,3.117,-9.798,3.765,0.403,-0.183,0.161
1626.0,3.117,-9.798,3.765,0.403,-0.183,0.161
1629.0,3.05,-9.559,3.683,0.295,-0.174,0.087
1633.0,3.05,-9.559,3.683,0.295,-0.174,0.087
1637.0,3.142,-9.379,3.664,0.295,-0.174,0.087
1641.0,3.142,-9.379,3.664,0.205,-0.17,0.024
1645.0,3.142,-9.379,3.664,0.205,-0.17,0.024
1649.0,3.292,-9.229,3.694,0.144,-0.173,-0.026
1652.0,3.292,-9.229,3.694,0.144,-0.173,-0.026
1656.0,3.292,-9.229,3.694,0.144,-0.173,-0.026
1660.0,3.395,-9.106,3.726,0.118,-0.177,-0.062
1664.0,3.395,-9.106,3.726,0.118,-0.177,-0.062
1668.0,3.451,-9.022,3.657,0.126,-0.181,-0.081
1672.0,3.451,-9.022,3.657,0.126,-0.181,-0.081
1676.0,3.451,-9.022,3.657,0.126,-0.181,-0.081
1680.0,3.379,-8.887,3.57,0.163,-0.178,-0.089
1684.0,3.379,-8.887,3.57,0.163,-0.178,-0.089
1688.0,3.263,-8.693,3.504,0.219,-0.164,-0.08
1692.0,3.263,-8.693,3.504,0.219,-0.164,-0.08
1695.0,3.263,-8.693,3.504,0.219,-0.164,-0.08
1699.0,3.226,-8.502,3.5,0.277,-0.138,-0.043
1703.0,3.226,-8.502,3.5,0.277,-0.138,-0.043
1707.0,3.334,-8.367,3.596,0.327,-0.105,0.01
1711.0,3.334,-8.367,3.596,0.327,-0.105,0.01
1715.0,3.334,-8.367,3.596,0.327,-0.105,0.01
1719.0,3.391,-8.237,3.66,0.367,-0.08,0.057
1722.0,3.391,-8.237,3.66,0.367,-0.08,0.057
1726.0,3.349,-8.143,3.667,0.367,-0.063,0.1
1730.0,3.349,-8.143,3.667,0.384,-0.063,0.1
1734.0,3.349,-8.143,3.667,0.384,-0.063,0.1
1738.0,3.234,-8.084,3.688,0.379,-0.047,0.138
1742.0,3.234,-8.084,3.688,0.379,-0.047,0.138
1745.0,3.234,-8.084,3.724,0.379,-0.047,0.138
1749.0,3.071,-8.096,3.724,0.352,-0.03,0.172
1753.0,3.071,-8.096,3.724,0.352,-0.03,0.172
1757.0,2.724,-8.151,3.774,0.31,-0.012,0.199
1761.0,2.724,-8.151,3.774,0.31,-0.012,0.199
1764.0,2.724,-8.151,3.774,0.31,-0.012,0.199
1768.0,2.313,-8.139,3.905,0.266,0.002,0.213
1772.0,2.313,-8.139,3.905,0.266,0.002,0.213
1776.0,2.06,-8.08,4.077,0.266,0.004,0.219
1779.0,2.06,-8.08,4.077,0.224,0.004,0.219
1783.0,2.06,-8.08,4.077,0.224,0.004,0.219
1787.0,2.074,-8.037,4.277,0.187,-0.003,0.223
1791.0,2.074,-8.037,4.277,0.187,-0.003,0.223
1795.0,2.074,-8.037,4.538,0.187,-0.003,0.223
1798.0,2.275,-8.188,4.538,0.157,-0.021,0.223
1802.0,2.275,-8.188,4.538,0.157,-0.021,0.223
1806.0,2.437,-8.357,4.616,0.127,-0.045,0.199
1810.0,2.437,-8.357,4.616,0.127,-0.045,0.199
1814.0,2.437,-8.357,4.616,0.127,-0.045,0.199
1818.0,2.355,-8.359,4.543,0.093,-0.061,0.152
1821.0,2.355,-8.359,4.543,0.093,-0.061,0.152
1825.0,2.159,-8.314,4.463,0.093,-0.065,0.112
1829.0,2.159,-8.314,4.463,0.049,-0.065,0.112
1833.0,2.159,-8.314,4.463,0.049,-0.065,0.112
1837.0,2.026,-8.314,4.448,0.001,-0.055,0.089
1840.0,2.026,-8.314,4.448,0.001,-0.055,0.089
1844.0,2.026,-8.302,4.506,0.001,-0.055,0.089
1848.0,1.992,-8.302,4.506,-0.036,-0.043,0.078
1852.0,1.992,-8.302,4.506,-0.036,-0.043,0.078
1856.0,2.081,-8.33,4.564,-0.06,-0.039,0.082
1860.0,2.081,-8.33,4.564,-0.06,-0.039,0.082
1864.0,2.081,-8.33,4.628,-0.06,-0.039,0.082
1868.0,2.282,-8.433,4.628,-0.063,-0.042,0.102
1872.0,2.282,-8.433,4.628,-0.063,-0.042,0.102
1875.0,2.499,-8.535,4.684,-0.041,-0.041,0.13
1879.0,2.499,-8.535,4.684,-0.041,-0.041,0.13
1883.0,2.499,-8.535,4.684,-0.041,-0.041,0.13
1887.0,2.762,-8.602,4.797,0.008,-0.043,0.152
1891.0,2.762,-8.602,4.797,0.008,-0.043,0.152
1895.0,2.939,-8.643,4.812,0.073,-0.044,0.171
1899.0,2.939,-8.643,4.812,0.073,-0.044,0.171
1902.0,2.939,-8.643,4.812,0.073,-0.044,0.171
1906.0,2.919,-8.614,4.799,0.146,-0.034,0.193
1910.0,2.919,-8.614,4.799,0.146,-0.034,0.193
1914.0,2.792,-8.535,4.874,0.146,-0.024,0.218
1918.0,2.792,-8.535,4.874,0.216,-0.024,0.218
1922.0,2.792,-8.535,4.874,0.216,-0.024,0.218
1925.0,2.671,-8.429,4.849,0.271,-0.028,0.245
1929.0,2.671,-8.429,4.849,0.271,-0.028,0.245
1933.0,2.671,-8.429,4.777,0.271,-0.028,0.245
1937.0,2.601,-8.361,4.777,0.306,-0.029,0.276
1941.0,2.601,-8.361,4.777,0.306,-0.029,0.276
1944.0,2.684,-8.336,4.743,0.321,-0.027,0.299
1948.0,2.684,-8.336,4.743,0.321,-0.027,0.299
1952.0,2.684,-8.336,4.743,0.321,-0.027,0.299
1956.0,2.821,-8.289,4.689,0.318,-0.028,0.3
1960.0,2.821,-8.289,4.689,0.318,-0.028,0.3
1964.0,2.786,-8.199,4.615,0.301,-0.025,0.29
1967.0,2.786,-8.199,4.615,0.301,-0.025,0.29
1971.0,2.786,-8.199,4.615,0.301,-0.025,0.29
1975.0,2.575,-8.087,4.552,0.278,-0.022,0.279
1979.0,2.575,-8.087,4.552,0.278,-0.022,0.279
1983.0,2.361,-8.039,4.447,0.278,-0.022,0.279
1986.0,2.361,-8.039,4.447,0.251,-0.02,0.275
1990.0,2.361,-8.039,4.447,0.251,-0.02,0.275
1994.0,2.203,-8.025,4.317,0.226,-0.019,0.275
1998.0,2.203,-8.025,4.317,0.226,-0.019,0.275
2002.0,2.203,-8.025,4.317,0.226,-0.019,0.275
2006.0,2.11,-8.04,4.28,0.205,-0.013,0.278
2009.0,2.11,-8.04,4.28,0.205,-0.013,0.278
2013.0,2.113,-8.113,4.301,0.189,-0.009,0.285
2017.0,2.113,-8.113,4.301,0.189,-0.009,0.285
2021.0,2.113,-8.113,4.301,0.189,-0.009,0.285
2025.0,2.189,-8.143,4.308,0.183,-0.013,0.288
2028.0,2.189,-8.143,4.308,0.183,-0.013,0.288
2032.0,2.233,-8.151,4.225,0.183,-0.018,0.288
2036.0,2.233,-8.151,4.225,0.185,-0.018,0.288
2040.0,2.233,-8.151,4.225,0.185,-0.018,0.288
2044.0,2.221,-8.158,4.146,0.192,-0.012,0.291
2048.0,2.221,-8.158,4.146,0.192,-0.012,0.291
2051.0,2.221,-8.158,4.175,0.192,-0.012,0.291
2055.0,2.16,-8.122,4.175,0.2,-0.003,0.298
2059.0,2.16,-8.122,4.175,0.2,-0.003,0.298
2063.0,2.047,-8.127,4.169,0.206,0.001,0.309
2067.0,2.047,-8.127,4.169,0.206,0.001,0.309
2070.0,2.047,-8.127,4.169,0.206,0.001,0.309
2074.0,1.906,-8.166,4.149,0.204,0.002,0.325
2078.0,1.906,-8.166,4.149,0.204,0.002,0.325
2081.0,1.753,-8.205,4.155,0.204,0.002,0.337
2085.0,1.753,-8.205,4.155,0.198,-0.001,0.337
2089.0,1.753,-8.205,4.155,0.198,-0.001,0.337
2093.0,1.609,-8.195,4.201,0.188,-0.01,0.338
2097.0,1.609,-8.195,4.201,0.188,-0.01,0.338
2100.0,1.609,-8.195,4.201,0.188,-0.01,0.338
2104.0,1.506,-8.209,4.214,0.168,-0.018,0.335
2108.0,1.506,-8.209,4.214,0.168,-0.018,0.335
2112.0,1.504,-8.198,4.239,0.14,-0.018,0.328
2116.0,1.504,-8.198,4.239,0.14,-0.018,0.328
2120.0,1.504,-8.198,4.239,0.14,-0.018,0.328
2123.0,1.665,-8.116,4.308,0.107,-0.016,0.304
2127.0,1.665,-8.116,4.308,0.107,-0.016,0.304
2131.0,1.981,-7.947,4.433,0.107,-0.019,0.264
2135.0,1.981,-7.947,4.433,0.076,-0.019,0.264
2139.0,1.981,-7.947,4.433,0.076,-0.019,0.264
2143.0,2.311,-7.838,4.468,0.052,-0.025,0.234
2146.0,2.311,-7.838,4.468,0.052,-0.025,0.234
2150.0,2.311,-7.828,4.433,0.052,-0.025,0.234
2154.0,2.532,-7.828,4.433,0.044,-0.028,0.219
2158.0,2.532,-7.828,4.433,0.044,-0.028,0.219
2162.0,2.449,-7.878,4.293,0.051,-0.026,0.213
2165.0,2.449,-7.878,4.293,0.051,-0.026,0.213
2169.0,2.449,-7.878,4.293,0.051,-0.026,0.213
2173.0,2.178,-7.982,4.103,0.067,-0.015,0.222
2177.0,2.178,-7.982,4.103,0.067,-0.015,0.222
2181.0,1.868,-8.2,3.992,0.083,0.012,0.252
2184.0,1.868,-8.2,3.992,0.083,0.012,0.252
2188.0,1.868,-8.2,3.992,0.083,0.012,0.252
2192.0,1.718,-8.493,3.97,0.097,0.049,0.29
2196.0,1.718,-8.493,3.97,0.097,0.049,0.29
2199.0,1.718,-8.493,4.134,0.097,0.049,0.29
2203.0,1.659,-8.698,4.134,0.118,0.076,0.308
2207.0,1.659,-8.698,4.134,0.118,0.076,0.308
2211.0,1.57,-8.75,4.295,0.144,0.077,0.306
2214.0,1.57,-8.75,4.295,0.144,0.077,0.306
2218.0,1.57,-8.75,4.295,0.144,0.077,0.306
2222.0,1.4,-8.711,4.309,0.161,0.07,0.303
2225.0,1.4,-8.711,4.309,0.161,0.07,0.303
2229.0,1.21,-8.674,4.231,0.161,0.07,0.303
2233.0,1.21,-8.674,4.231,0.161,0.082,0.301
2237.0,1.21,-8.674,4.231,0.161,0.082,0.301
2240.0,1.137,-8.677,4.158,0.144,0.122,0.287
2244.0,1.137,-8.677,4.158,0.144,0.122,0.287
2248.0,1.137,-8.677,4.158,0.144,0.122,0.287
2252.0,1.223,-8.67,4.317,0.111,0.177,0.257
2255.0,1.223,-8.67,4.317,0.111,0.177,0.257
2259.0,1.463,-8.67,4.591,0.111,0.177,0.21
2263.0,1.463,-8.67,4.591,0.077,0.215,0.21
2267.0,1.463,-8.67,4.591,0.077,0.215,0.21
2270.0,1.759,-8.718,4.75,0.058,0.229,0.165
2274.0,1.759,-8.718,4.75,0.058,0.229,0.165
2278.0,1.759,-8.718,4.75,0.058,0.229,0.165
2281.0,1.936,-8.916,4.723,0.057,0.231,0.136
2285.0,1.936,-8.916,4.723,0.057,0.231,0.136
2289.0,1.895,-9.203,4.738,0.057,0.225,0.111
2293.0,1.895,-9.203,4.738,0.068,0.225,0.111
2296.0,1.895,-9.203,4.738,0.068,0.225,0.111
2300.0,1.553,-9.446,4.676,0.083,0.214,0.079
2304.0,1.553,-9.446,4.676,0.083,0.214,0.079
2308.0,1.553,-9.446,4.676,0.083,0.214,0.079
2311.0,0.998,-9.57,4.511,0.086,0.211,0.04
2315.0,0.998,-9.57,4.511,0.086,0.211,0.04
2319.0,0.608,-9.675,4.451,0.065,0.229,0.015
2323.0,0.608,-9.675,4.451,0.065,0.229,0.015
2326.0,0.608,-9.675,4.451,0.065,0.229,0.015
2330.0,0.488,-9.76,4.513,0.027,0.263,-0.004
2334.0,0.488,-9.76,4.513,0.027,0.263,-0.004
2338.0,0.488,-9.822,4.776,0.027,0.263,-0.004
2341.0,0.66,-9.822,4.776,-0.017,0.307,-0.03
2345.0,0.66,-9.822,4.776,-0.017,0.307,-0.03
2349.0,1.11,-9.882,5.154,-0.047,0.34,-0.071
2353.0,1.11,-9.882,5.154,-0.047,0.34,-0.071
2357.0,1.11,-9.882,5.154,-0.047,0.34,-0.071
2361.0,1.71,-9.919,5.461,-0.048,0.358,-0.122
2365.0,1.71,-9.919,5.461,-0.048,0.358,-0.122
2369.0,2.175,-10.031,5.642,-0.016,0.377,-0.167
2373.0,2.175,-10.031,5.642,-0.016,0.377,-0.167
2377.0,2.175,-10.031,5.642,-0.016,0.377,-0.167
2381.0,2.129,-10.157,5.694,0.041,0.389,-0.209
2385.0,2.129,-10.157,5.694,0.041,0.389,-0.209
2389.0,1.568,-10.201,5.668,0.11,0.394,-0.261
2393.0,1.568,-10.201,5.668,0.11,0.394,-0.261
2396.0,1.568,-10.201,5.668,0.11,0.394,-0.261
2400.0,0.942,-10.13,5.687,0.174,0.394,-0.308
2404.0,0.942,-10.13,5.687,0.174,0.394,-0.308
2408.0,0.612,-10.054,5.828,0.228,0.369,-0.353
2412.0,0.612,-10.054,5.828,0.228,0.369,-0.353
2416.0,0.612,-10.054,5.828,0.228,0.369,-0.353
2420.0,0.543,-9.983,5.99,0.278,0.325,-0.403
2424.0,0.543,-9.983,5.99,0.278,0.325,-0.403
2427.0,0.648,-9.832,6.122,0.328,0.275,-0.46
2431.0,0.648,-9.832,6.122,0.328,0.275,-0.46
2435.0,0.648,-9.832,6.122,0.328,0.275,-0.46
2439.0,0.936,-9.505,6.096,0.379,0.219,-0.531
2443.0,0.936,-9.505,6.096,0.379,0.219,-0.531
2447.0,1.255,-9.132,6.008,0.379,0.219,-0.531
2450.0,1.255,-9.132,6.008,0.426,0.178,-0.603
2454.0,1.255,-9.132,6.008,0.426,0.178,-0.603
2458.0,1.513,-8.77,6.102,0.471,0.149,-0.658
2462.0,1.513,-8.77,6.102,0.471,0.149,-0.658
2466.0,1.513,-8.77,6.102,0.471,0.149,-0.658
2470.0,1.641,-8.442,6.26,0.516,0.103,-0.705
2473.0,1.641,-8.442,6.26,0.516,0.103,-0.705
2477.0,1.577,-8.164,6.258,0.55,0.045,-0.745
2481.0,1.577,-8.164,6.258,0.55,0.045,-0.745
2485.0,1.577,-8.164,6.258,0.55,0.045,-0.745
2489.0,1.463,-7.938,6.129,0.566,-0.005,-0.772
2493.0,1.463,-7.938,6.129,0.566,-0.005,-0.772
2496.0,1.402,-7.758,5.975,0.566,-0.044,-0.785
2500.0,1.402,-7.758,5.975,0.566,-0.044,-0.785
2504.0,1.402,-7.758,5.975,0.566,-0.044,-0.785
2508.0,1.443,-7.638,5.916,0.559,-0.074,-0.79
2512.0,1.443,-7.638,5.916,0.559,-0.074,-0.79
2516.0,1.529,-7.574,5.937,0.559,-0.1,-0.798
2520.0,1.529,-7.574,5.937,0.552,-0.1,-0.798
2524.0,1.529,-7.574,5.937,0.552,-0.1,-0.798
2528.0,1.647,-7.51,5.903,0.539,-0.126,-0.812
2532.0,1.647,-7.51,5.903,0.539,-0.126,-0.812
2535.0,1.785,-7.345,5.818,0.539,-0.126,-0.825
2539.0,1.785,-7.345,5.818,0.519,-0.131,-0.825
2543.0,1.785,-7.345,5.818,0.519,-0.131,-0.825
2547.0,2.183,-7.164,5.893,0.495,-0.113,-0.826
2551.0,2.183,-7.164,5.893,0.495,-0.113,-0.826
2555.0,2.964,-7.072,6.098,0.495,-0.113,-0.826
2559.0,2.964,-7.072,6.098,0.477,-0.096,-0.821
2563.0,2.964,-7.072,6.098,0.477,-0.096,-0.821
2567.0,3.47,-7.062,6.284,0.465,-0.097,-0.825
2571.0,3.47,-7.062,6.284,0.465,-0.097,-0.825
2575.0,3.47,-6.983,6.197,0.465,-0.097,-0.825
2578.0,3.211,-6.983,6.197,0.442,-0.125,-0.835
2582.0,3.211,-6.983,6.197,0.442,-0.125,-0.835
2586.0,2.382,-6.847,6.099,0.388,-0.151,-0.817
2590.0,2.382,-6.847,6.099,0.388,-0.151,-0.817
2594.0,2.382,-6.847,6.258,0.388,-0.151,-0.817
2598.0,1.644,-6.832,6.258,0.31,-0.178,-0.769
2602.0,1.644,-6.832,6.258,0.31,-0.178,-0.769
2606.0,1.273,-6.933,6.232,0.233,-0.228,-0.729
2610.0,1.273,-6.933,6.232,0.233,-0.228,-0.729
2614.0,1.273,-6.933,6.232,0.233,-0.228,-0.729
2618.0,1.292,-6.756,5.864,0.172,-0.274,-0.722
2621.0,1.292,-6.756,5.864,0.172,-0.274,-0.722
2625.0,2.005,-6.539,5.54,0.141,-0.255,-0.718
2629.0,2.005,-6.539,5.54,0.141,-0.255,-0.718
2633.0,2.005,-6.539,5.54,0.141,-0.255,-0.718
2637.0,3.305,-6.378,5.784,0.17,-0.2,-0.726
2641.0,3.305,-6.378,5.784,0.17,-0.2,-0.726
2645.0,4.668,-6.201,6.072,0.274,-0.205,-0.784
2649.0,4.668,-6.201,6.072,0.274,-0.205,-0.784
2653.0,4.668,-6.201,6.072,0.274,-0.205,-0.784
2657.0,5.379,-5.971,5.849,0.421,-0.26,-0.853
2660.0,5.379,-5.971,5.849,0.421,-0.26,-0.853
2664.0,5.052,-5.791,5.176,0.545,-0.29,-0.829
2668.0,5.052,-5.791,5.176,0.545,-0.29,-0.829
2672.0,5.052,-5.791,5.176,0.545,-0.29,-0.829
2676.0,3.946,-5.907,4.551,0.614,-0.247,-0.677
2680.0,3.946,-5.907,4.551,0.614,-0.247,-0.677
2684.0,2.981,-6.383,4.167,0.644,-0.136,-0.458
2688.0,2.981,-6.383,4.167,0.644,-0.136,-0.458
2692.0,2.981,-6.383,4.167,0.644,-0.136,-0.458
2696.0,2.592,-6.879,4.207,0.665,0.007,-0.269
2699.0,2.592,-6.879,4.207,0.665,0.007,-0.269
2703.0,2.941,-7.118,4.57,0.665,0.007,-0.181
2707.0,2.941,-7.118,4.57,0.695,0.118,-0.181
2711.0,2.941,-7.118,4.57,0.695,0.118,-0.181
2715.0,3.594,-7.062,4.762,0.727,0.178,-0.177
2719.0,3.594,-7.062,4.762,0.727,0.178,-0.177
2722.0,3.594,-7.062,4.795,0.727,0.178,-0.177
2726.0,3.887,-6.759,4.795,0.735,0.234,-0.16
2730.0,3.887,-6.759,4.795,0.735,0.234,-0.16
2734.0,3.911,-6.632,4.848,0.721,0.302,-0.091
2738.0,3.911,-6.632,4.848,0.721,0.302,-0.091
2741.0,3.911,-6.632,4.848,0.721,0.302,-0.091
2745.0,3.732,-6.547,4.861,0.689,0.352,-0.02
2749.0,3.732,-6.547,4.861,0.689,0.352,-0.02
2753.0,3.277,-6.461,4.893,0.689,0.397,0.047
2757.0,3.277,-6.461,4.893,0.62,0.397,0.047
2760.0,3.277,-6.461,4.893,0.62,0.397,0.047
2764.0,2.794,-6.58,5.188,0.516,0.439,0.139
2768.0,2.794,-6.58,5.188,0.516,0.439,0.139
2772.0,2.794,-6.58,5.188,0.516,0.439,0.139
2775.0,2.465,-6.776,5.684,0.409,0.447,0.225
2779.0,2.465,-6.776,5.684,0.409,0.447,0.225
2783.0,2.234,-7.024,6.168,0.315,0.42,0.285
2787.0,2.234,-7.024,6.168,0.315,0.42,0.285
2790.0,2.234,-7.024,6.168,0.315,0.42,0.285
2794.0,1.973,-7.434,6.522,0.232,0.362,0.312
2798.0,1.973,-7.434,6.522,0.232,0.362,0.312
2801.0,1.973,-7.434,6.625,0.232,0.362,0.312
2805.0,1.585,-7.647,6.625,0.157,0.287,0.295
2809.0,1.585,-7.647,6.625,0.157,0.287,0.295
2813.0,1.142,-7.616,6.64,0.073,0.222,0.253
2816.0,1.142,-7.616,6.64,0.073,0.222,0.253
2820.0,1.142,-7.616,6.64,0.073,0.222,0.253
2824.0,0.932,-7.42,6.736,-0.017,0.184,0.203
2828.0,0.932,-7.42,6.736,-0.017,0.184,0.203
2831.0,1.156,-7.202,7.015,-0.017,0.184,0.203
2835.0,1.156,-7.202,7.015,-0.097,0.147,0.135
2839.0,1.156,-7.202,7.015,-0.097,0.147,0.135
2843.0,1.731,-6.97,7.322,-0.163,0.085,0.029
2847.0,1.731,-6.97,7.322,-0.163,0.085,0.029
2851.0,1.731,-6.97,7.322,-0.163,0.085,0.029
2854.0,2.265,-6.683,7.357,-0.216,0.012,-0.099
2858.0,2.265,-6.683,7.357,-0.216,0.012,-0.099
2862.0,2.608,-6.237,7.197,-0.265,-0.05,-0.203
2866.0,2.608,-6.237,7.197,-0.265,-0.05,-0.203
2870.0,2.608,-6.237,7.197,-0.265,-0.05,-0.203
2874.0,2.891,-6.126,7.092,-0.312,-0.082,-0.245
2878.0,2.891,-6.126,7.092,-0.312,-0.082,-0.245
2882.0,3.048,-6.311,6.91,-0.352,-0.101,-0.254
2886.0,3.048,-6.311,6.91,-0.352,-0.101,-0.254
2890.0,3.048,-6.311,6.416,-0.352,-0.101,-0.254
2894.0,2.947,-6.43,6.416,-0.384,-0.1,-0.25
2898.0,2.947,-6.43,6.416,-0.384,-0.1,-0.25
2902.0,2.747,-6.465,6.075,-0.406,-0.05,-0.222
2906.0,2.747,-6.465,6.075,-0.406,-0.05,-0.222
2910.0,2.747,-6.634,5.85,-0.406,-0.05,-0.222
2914.0,2.763,-6.634,5.85,-0.409,0.031,-0.178
2918.0,2.763,-6.634,5.85,-0.409,0.031,-0.178
2922.0,3.001,-6.79,5.589,-0.389,0.109,-0.143
2926.0,3.001,-6.79,5.589,-0.389,0.109,-0.143
2930.0,3.001,-6.79,5.163,-0.389,0.109,-0.143
2934.0,3.238,-6.997,5.163,-0.362,0.185,-0.115
2938.0,3.238,-6.997,5.163,-0.362,0.185,-0.115
2941.0,3.357,-7.327,4.86,-0.334,0.272,-0.086
2945.0,3.357,-7.327,4.86,-0.334,0.272,-0.086
2949.0,3.357,-7.327,4.86,-0.334,0.272,-0.086
2953.0,3.355,-7.854,4.599,-0.285,0.365,-0.056
2957.0,3.355,-7.854,4.599,-0.285,0.365,-0.056
2961.0,3.086,-8.743,4.56,-0.194,0.46,-0.039
2965.0,3.086,-8.743,4.56,-0.194,0.46,-0.039
2969.0,3.086,-8.743,4.56,-0.194,0.46,-0.039
2973.0,2.761,-9.135,4.577,-0.056,0.534,-0.045
2977.0,2.761,-9.135,4.577,-0.056,0.534,-0.045
2981.0,2.428,-9.542,5.043,0.134,0.588,-0.037
2984.0,2.428,-9.542,5.043,0.134,0.588,-0.037
2988.0,2.428,-9.542,5.043,0.134,0.588,-0.037
2992.0,2.209,-9.59,5.89,0.379,0.588,-0.04
2996.0,2.209,-9.59,5.89,0.379,0.588,-0.04
3000.0,2.338,-9.122,6.474,0.379,0.512,-0.059
