deltaTime,Acc_X,Acc_Y,Acc_Z,Gyro_X,Gyro_Y,Gyro_Z
0.0,-4.67,-2.26,7.012,0.246,-0.383,-0.158
3.0,-4.67,-2.26,7.012,0.246,-0.383,-0.158
6.0,-4.67,-2.26,7.012,0.246,-0.383,-0.158
9.0,-4.67,-2.276,7.028,0.246,-0.383,-0.158
12.0,-4.728,-2.276,7.028,0.218,-0.356,-0.137
15.0,-4.728,-2.276,7.028,0.218,-0.356,-0.137
18.0,-4.728,-2.276,7.028,0.218,-0.356,-0.137
21.0,-4.865,-2.168,7.158,0.187,-0.318,-0.125
24.0,-4.865,-2.168,7.158,0.187,-0.318,-0.125
27.0,-4.865,-2.168,7.158,0.187,-0.318,-0.125
30.0,-5.122,-2.177,7.547,0.144,-0.284,-0.119
33.0,-5.122,-2.177,7.547,0.144,-0.284,-0.119
37.0,-5.122,-2.177,7.547,0.144,-0.284,-0.119
41.0,-5.376,-2.245,7.634,0.116,-0.285,-0.111
44.0,-5.376,-2.245,7.634,0.116,-0.285,-0.111
48.0,-5.376,-2.252,7.708,0.116,-0.285,-0.111
52.0,-5.462,-2.252,7.708,0.094,-0.311,-0.103
56.0,-5.462,-2.252,7.708,0.094,-0.311,-0.103
60.0,-5.454,-2.335,7.701,0.076,-0.347,-0.096
64.0,-5.454,-2.335,7.701,0.076,-0.347,-0.096
67.0,-5.454,-2.335,7.701,0.076,-0.347,-0.096
71.0,-5.438,-2.474,7.45,0.071,-0.388,-0.088
75.0,-5.438,-2.474,7.45,0.071,-0.388,-0.088
79.0,-5.317,-2.426,7.448,0.074,-0.413,-0.076
83.0,-5.317,-2.426,7.448,0.074,-0.413,-0.076
86.0,-5.317,-2.426,7.448,0.074,-0.413,-0.076
90.0,-5.203,-2.311,7.304,0.072,-0.431,-0.063
94.0,-5.203,-2.311,7.304,0.072,-0.431,-0.063
98.0,-5.035,-2.168,7.159,0.072,-0.431,-0.063
102.0,-5.035,-2.168,7.159,0.051,-0.443,-0.057
106.0,-5.035,-2.168,7.159,0.051,-0.443,-0.057
110.0,-4.821,-1.973,7.175,0.019,-0.437,-0.066
113.0,-4.821,-1.973,7.175,0.019,-0.437,-0.066
117.0,-4.821,-1.842,6.872,0.019,-0.437,-0.066
121.0,-4.627,-1.842,6.872,-0.011,-0.426,-0.08
125.0,-4.627,-1.842,6.872,-0.011,-0.426,-0.08
129.0,-4.621,-1.772,6.976,-0.042,-0.446,-0.107
133.0,-4.621,-1.772,6.976,-0.042,-0.446,-0.107
137.0,-4.106,-1.189,7.061,-0.042,-0.446,-0.107
141.0,-4.106,-1.189,7.061,-0.056,-0.427,-0.132
145.0,-4.106,-1.189,7.061,-0.056,-0.427,-0.132
149.0,-4.534,-1.028,7.164,-0.135,-0.305,-0.146
153.0,-4.534,-1.028,7.164,-0.135,-0.305,-0.146
157.0,-4.679,-0.961,7.468,-0.135,-0.305,-0.146
161.0,-4.679,-0.961,7.468,-0.223,-0.292,-0.125
165.0,-4.679,-0.961,7.468,-0.223,-0.292,-0.125
169.0,-4.6,-1.259,7.831,-0.326,-0.31,-0.079
173.0,-4.6,-1.259,7.831,-0.326,-0.31,-0.079
177.0,-4.723,-1.554,8.124,-0.326,-0.295,-0.034
181.0,-4.723,-1.554,8.124,-0.381,-0.295,-0.034
185.0,-4.723,-1.554,8.124,-0.381,-0.295,-0.034
189.0,-4.763,-1.8,8.551,-0.405,-0.32,-0.002
193.0,-4.763,-1.8,8.551,-0.405,-0.32,-0.002
197.0,-4.707,-2.027,8.71,-0.384,-0.375,0.016
201.0,-4.707,-2.027,8.71,-0.384,-0.375,0.016
205.0,-4.707,-2.027,8.71,-0.384,-0.375,0.016
209.0,-4.506,-2.083,8.66,-0.319,-0.431,0.017
213.0,-4.506,-2.083,8.66,-0.319,-0.431,0.017
217.0,-4.341,-1.958,8.501,-0.319,-0.481,0.012
221.0,-4.341,-1.958,8.501,-0.234,-0.481,0.012
225.0,-4.341,-1.958,8.501,-0.234,-0.481,0.012
228.0,-4.189,-1.782,8.197,-0.148,-0.523,0.018
232.0,-4.189,-1.782,8.197,-0.148,-0.523,0.018
236.0,-3.855,-1.543,7.832,-0.148,-0.523,0.033
240.0,-3.855,-1.543,7.832,-0.085,-0.545,0.033
244.0,-3.855,-1.543,7.832,-0.085,-0.545,0.033
248.0,-3.508,-1.186,7.846,-0.056,-0.537,0.05
252.0,-3.508,-1.186,7.846,-0.056,-0.537,0.05
256.0,-3.361,-0.966,7.851,-0.056,-0.537,0.05
260.0,-3.361,-0.966,7.851,-0.042,-0.524,0.07
264.0,-3.361,-0.966,7.851,-0.042,-0.524,0.07
267.0,-3.126,-0.765,7.761,-0.044,-0.509,0.092
271.0,-3.126,-0.765,7.761,-0.044,-0.509,0.092
275.0,-3.126,-0.765,8.029,-0.044,-0.509,0.092
279.0,-2.977,-0.663,8.029,-0.062,-0.474,0.119
283.0,-2.977,-0.663,8.029,-0.062,-0.474,0.119
287.0,-2.995,-0.759,8.052,-0.059,-0.441,0.162
291.0,-2.995,-0.759,8.052,-0.059,-0.441,0.162
295.0,-2.995,-0.759,8.052,-0.059,-0.441,0.162
299.0,-2.994,-0.793,7.887,-0.054,-0.404,0.206
303.0,-2.994,-0.793,7.887,-0.054,-0.404,0.206
307.0,-2.971,-0.727,7.868,-0.064,-0.343,0.245
310.0,-2.971,-0.727,7.868,-0.064,-0.343,0.245
314.0,-2.971,-0.727,7.868,-0.064,-0.343,0.245
318.0,-2.94,-0.594,8.054,-0.075,-0.276,0.284
322.0,-2.94,-0.594,8.054,-0.075,-0.276,0.284
326.0,-3.263,-0.684,8.288,-0.086,-0.212,0.307
330.0,-3.263,-0.684,8.288,-0.086,-0.212,0.307
334.0,-3.263,-0.684,8.288,-0.086,-0.212,0.307
338.0,-3.227,-0.909,8.34,-0.049,-0.178,0.344
342.0,-3.227,-0.909,8.34,-0.049,-0.178,0.344
346.0,-3.499,-0.676,8.519,0.003,-0.141,0.383
349.0,-3.499,-0.676,8.519,0.003,-0.141,0.383
353.0,-3.499,-0.676,8.519,0.003,-0.141,0.383
357.0,-3.583,-0.825,8.502,-0.025,-0.121,0.393
361.0,-3.583,-0.825,8.502,-0.025,-0.121,0.393
365.0,-3.543,-1.144,8.547,-0.025,-0.116,0.395
369.0,-3.543,-1.144,8.547,-0.039,-0.116,0.395
373.0,-3.543,-1.144,8.547,-0.039,-0.116,0.395
377.0,-3.382,-1.376,8.554,0.019,-0.114,0.386
380.0,-3.382,-1.376,8.554,0.019,-0.114,0.386
384.0,-3.281,-1.328,8.423,0.019,-0.114,0.386
388.0,-3.281,-1.328,8.423,0.126,-0.123,0.371
392.0,-3.281,-1.328,8.423,0.126,-0.123,0.371
396.0,-3.245,-1.109,8.388,0.214,-0.142,0.35
400.0,-3.245,-1.109,8.388,0.214,-0.142,0.35
403.0,-3.245,-1.109,8.388,0.214,-0.142,0.35
407.0,-3.031,-0.44,8.459,0.268,-0.172,0.33
411.0,-3.031,-0.44,8.459,0.268,-0.172,0.33
415.0,-2.802,0.066,8.381,0.246,-0.205,0.304
419.0,-2.802,0.066,8.381,0.246,-0.205,0.304
422.0,-2.802,0.066,8.381,0.246,-0.205,0.304
426.0,-2.576,0.288,8.331,0.16,-0.245,0.277
430.0,-2.576,0.288,8.331,0.16,-0.245,0.277
433.0,-2.428,0.419,8.224,0.16,-0.245,0.277
437.0,-2.428,0.419,8.224,0.055,-0.292,0.251
441.0,-2.428,0.419,8.224,0.055,-0.292,0.251
445.0,-2.264,0.37,8.083,-0.049,-0.337,0.229
448.0,-2.264,0.37,8.083,-0.049,-0.337,0.229
452.0,-2.264,0.37,8.083,-0.049,-0.337,0.229
456.0,-2.106,0.334,8.055,-0.136,-0.364,0.211
460.0,-2.106,0.334,8.055,-0.136,-0.364,0.211
464.0,-2.072,0.233,8.015,-0.189,-0.373,0.198
468.0,-2.072,0.233,8.015,-0.189,-0.373,0.198
471.0,-2.072,0.233,8.015,-0.189,-0.373,0.198
475.0,-2.273,0.194,8.16,-0.222,-0.363,0.188
479.0,-2.273,0.194,8.16,-0.222,-0.363,0.188
483.0,-2.593,0.275,8.502,-0.222,-0.363,0.188
487.0,-2.593,0.275,8.502,-0.24,-0.35,0.174
490.0,-2.593,0.275,8.502,-0.24,-0.35,0.174
494.0,-2.921,0.341,8.918,-0.226,-0.344,0.143
498.0,-2.921,0.341,8.918,-0.226,-0.344,0.143
502.0,-2.921,0.341,8.918,-0.226,-0.344,0.143
506.0,-3.158,0.726,9.464,-0.196,-0.344,0.091
510.0,-3.158,0.726,9.464,-0.196,-0.344,0.091
513.0,-3.481,1.174,10.165,-0.184,-0.352,0.02
517.0,-3.481,1.174,10.165,-0.184,-0.352,0.02
521.0,-3.481,1.174,10.165,-0.184,-0.352,0.02
525.0,-3.655,1.267,10.776,-0.188,-0.377,-0.049
529.0,-3.655,1.267,10.776,-0.188,-0.377,-0.049
533.0,-3.909,1.366,11.21,-0.173,-0.407,-0.096
537.0,-3.909,1.366,11.21,-0.173,-0.407,-0.096
541.0,-3.909,1.366,11.21,-0.173,-0.407,-0.096
545.0,-4.223,1.501,11.643,-0.143,-0.438,-0.106
549.0,-4.223,1.501,11.643,-0.143,-0.438,-0.106
553.0,-4.457,1.608,12.263,-0.107,-0.464,-0.098
557.0,-4.457,1.608,12.263,-0.107,-0.464,-0.098
561.0,-4.457,1.608,12.263,-0.107,-0.464,-0.098
565.0,-4.759,1.63,12.66,-0.062,-0.501,-0.078
569.0,-4.759,1.63,12.66,-0.062,-0.501,-0.078
573.0,-4.942,1.563,13.086,-0.011,-0.563,-0.043
577.0,-4.942,1.563,13.086,-0.011,-0.563,-0.043
581.0,-4.942,1.563,13.086,-0.011,-0.563,-0.043
585.0,-4.764,1.401,13.518,0.038,-0.656,-0.019
589.0,-4.764,1.401,13.518,0.038,-0.656,-0.019
593.0,-4.318,1.08,13.964,0.087,-0.764,-0.02
597.0,-4.318,1.08,13.964,0.087,-0.764,-0.02
601.0,-4.318,1.08,13.964,0.087,-0.764,-0.02
605.0,-3.724,0.598,14.289,0.149,-0.864,-0.05
608.0,-3.724,0.598,14.289,0.149,-0.864,-0.05
612.0,-3.148,0.227,14.685,0.231,-0.932,-0.1
616.0,-3.148,0.227,14.685,0.231,-0.932,-0.1
620.0,-3.148,0.227,14.685,0.231,-0.932,-0.1
624.0,-2.929,-0.042,15.239,0.341,-0.972,-0.154
628.0,-2.929,-0.042,15.239,0.341,-0.972,-0.154
632.0,-3.175,-0.306,15.622,0.476,-1.022,-0.196
636.0,-3.175,-0.306,15.622,0.476,-1.022,-0.196
640.0,-3.175,-0.306,15.622,0.476,-1.022,-0.196
644.0,-3.61,-0.459,15.902,0.614,-1.107,-0.235
648.0,-3.61,-0.459,15.902,0.614,-1.107,-0.235
652.0,-3.911,-0.677,16.022,0.732,-1.223,-0.283
656.0,-3.911,-0.677,16.022,0.732,-1.223,-0.283
660.0,-3.911,-0.677,16.022,0.732,-1.223,-0.283
664.0,-4.045,-0.936,16.053,0.827,-1.348,-0.341
668.0,-4.045,-0.936,16.053,0.827,-1.348,-0.341
672.0,-4.126,-1.582,15.958,0.893,-1.471,-0.379
676.0,-4.126,-1.582,15.958,0.893,-1.471,-0.379
680.0,-4.126,-1.582,15.677,0.893,-1.471,-0.379
684.0,-4.15,-2.457,15.677,0.94,-1.574,-0.387
688.0,-4.15,-2.457,15.677,0.94,-1.574,-0.387
692.0,-4.022,-3.221,15.348,0.987,-1.641,-0.376
696.0,-4.022,-3.221,15.348,0.987,-1.641,-0.376
700.0,-3.794,-3.908,15.13,0.987,-1.641,-0.376
704.0,-3.794,-3.908,15.13,1.035,-1.683,-0.38
708.0,-3.794,-3.908,15.13,1.035,-1.683,-0.38
712.0,-3.328,-4.381,14.793,1.078,-1.728,-0.439
716.0,-3.328,-4.381,14.793,1.078,-1.728,-0.439
720.0,-2.635,-4.691,14.387,1.078,-1.728,-0.56
724.0,-2.635,-4.691,14.387,1.104,-1.772,-0.56
728.0,-2.635,-4.691,14.387,1.104,-1.772,-0.56
732.0,-1.841,-4.977,14.234,1.11,-1.798,-0.734
736.0,-1.841,-4.977,14.234,1.11,-1.798,-0.734
740.0,-1.373,-5.203,14.322,1.11,-1.804,-0.948
744.0,-1.373,-5.203,14.322,1.125,-1.804,-0.948
748.0,-1.373,-5.203,14.322,1.125,-1.804,-0.948
752.0,-1.409,-5.585,14.336,1.184,-1.831,-1.175
756.0,-1.409,-5.585,14.336,1.184,-1.831,-1.175
760.0,-1.61,-5.891,13.694,1.298,-1.901,-1.394
764.0,-1.61,-5.891,13.694,1.298,-1.901,-1.394
768.0,-1.61,-5.891,13.694,1.298,-1.901,-1.394
772.0,-1.784,-6.327,12.61,1.432,-1.974,-1.559
776.0,-1.784,-6.327,12.61,1.432,-1.974,-1.559
780.0,-1.668,-6.718,11.712,1.534,-2.007,-1.652
784.0,-1.668,-6.718,11.712,1.534,-2.007,-1.652
788.0,-1.668,-6.718,11.712,1.534,-2.007,-1.652
792.0,-1.173,-7.248,11.098,1.599,-1.99,-1.701
796.0,-1.173,-7.248,11.098,1.599,-1.99,-1.701
800.0,-0.674,-7.933,10.662,1.649,-1.92,-1.789
804.0,-0.674,-7.933,10.662,1.649,-1.92,-1.789
808.0,-0.674,-7.933,10.662,1.649,-1.92,-1.789
812.0,-0.426,-8.536,10.152,1.704,-1.811,-1.981
816.0,-0.426,-8.536,10.152,1.704,-1.811,-1.981
820.0,-0.307,-8.909,9.394,1.772,-1.676,-2.286
824.0,-0.307,-8.909,9.394,1.772,-1.676,-2.286
828.0,-0.307,-8.909,9.394,1.772,-1.676,-2.286
831.0,-0.217,-9.055,8.496,1.866,-1.503,-2.671
835.0,-0.217,-9.055,8.496,1.866,-1.503,-2.671
839.0,-0.184,-8.899,7.538,1.987,-1.29,-3.084
843.0,-0.184,-8.899,7.538,1.987,-1.29,-3.084
847.0,-0.184,-8.899,7.538,1.987,-1.29,-3.084
851.0,-0.23,-8.462,6.709,2.132,-1.049,-3.471
855.0,-0.23,-8.462,6.709,2.132,-1.049,-3.471
859.0,-0.316,-7.877,5.971,2.285,-0.806,-3.809
863.0,-0.316,-7.877,5.971,2.285,-0.806,-3.809
867.0,-0.316,-7.877,5.971,2.285,-0.806,-3.809
871.0,-0.539,-6.977,5.335,2.424,-0.585,-4.1
874.0,-0.539,-6.977,5.335,2.424,-0.585,-4.1
878.0,-0.639,-6.14,4.915,2.529,-0.412,-4.336
882.0,-0.639,-6.14,4.915,2.529,-0.412,-4.336
886.0,-0.639,-6.14,4.915,2.529,-0.412,-4.336
890.0,-0.617,-5.597,4.647,2.591,-0.265,-4.553
894.0,-0.617,-5.597,4.647,2.591,-0.265,-4.553
898.0,-1.036,-5.08,4.804,2.591,-0.15,-4.773
902.0,-1.036,-5.08,4.804,2.623,-0.15,-4.773
906.0,-1.036,-5.08,4.804,2.623,-0.15,-4.773
910.0,-1.857,-3.914,5.238,2.646,-0.113,-4.956
913.0,-1.857,-3.914,5.238,2.646,-0.113,-4.956
917.0,-2.684,-2.284,6.092,2.646,-0.113,-4.995
921.0,-2.684,-2.284,6.092,2.679,-0.174,-4.995
925.0,-2.684,-2.284,6.092,2.679,-0.174,-4.995
929.0,-3.613,-0.526,7.595,2.726,-0.355,-4.995
933.0,-3.613,-0.526,7.595,2.726,-0.355,-4.995
937.0,-4.234,1.185,8.264,2.726,-0.355,-4.995
941.0,-4.234,1.185,8.264,2.792,-0.664,-4.99
945.0,-4.234,1.185,8.264,2.792,-0.664,-4.99
948.0,-4.418,3.005,8.375,2.856,-1.027,-4.873
952.0,-4.418,3.005,8.375,2.856,-1.027,-4.873
956.0,-4.418,3.005,8.375,2.856,-1.027,-4.873
960.0,-4.239,4.548,8.709,2.883,-1.403,-4.59
964.0,-4.239,4.548,8.709,2.883,-1.403,-4.59
967.0,-3.703,6.056,8.66,2.872,-1.77,-4.24
971.0,-3.703,6.056,8.66,2.872,-1.77,-4.24
975.0,-3.703,6.056,8.66,2.872,-1.77,-4.24
979.0,-2.955,7.503,8.663,2.828,-2.074,-3.851
983.0,-2.955,7.503,8.663,2.828,-2.074,-3.851
987.0,-2.127,8.682,8.704,2.828,-2.325,-3.431
990.0,-2.127,8.682,8.704,2.742,-2.325,-3.431
994.0,-2.127,8.682,8.704,2.742,-2.325,-3.431
998.0,-1.167,9.663,8.786,2.61,-2.537,-3.003
1002.0,-1.167,9.663,8.786,2.61,-2.537,-3.003
1006.0,-1.167,10.299,8.746,2.61,-2.537,-3.003
1010.0,-0.363,10.299,8.746,2.417,-2.705,-2.595
1014.0,-0.363,10.299,8.746,2.417,-2.705,-2.595
1018.0,0.013,10.799,8.349,2.131,-2.836,-2.233
1022.0,0.013,10.799,8.349,2.131,-2.836,-2.233
1026.0,0.013,11.292,7.88,2.131,-2.836,-2.233
1029.0,0.054,11.292,7.88,1.732,-2.94,-1.942
1033.0,0.054,11.292,7.88,1.732,-2.94,-1.942
1037.0,-0.15,11.569,7.226,1.25,-3.024,-1.749
1041.0,-0.15,11.569,7.226,1.25,-3.024,-1.749
1045.0,-0.15,11.532,6.428,1.25,-3.024,-1.749
1049.0,-0.425,11.532,6.428,0.742,-3.082,-1.65
1053.0,-0.425,11.532,6.428,0.742,-3.082,-1.65
1057.0,-0.395,11.078,5.548,0.268,-3.104,-1.578
1061.0,-0.395,11.078,5.548,0.268,-3.104,-1.578
1065.0,-0.026,10.116,4.705,0.268,-3.104,-1.578
1069.0,-0.026,10.116,4.705,-0.13,-3.064,-1.481
1073.0,-0.026,10.116,4.705,-0.13,-3.064,-1.481
1077.0,0.406,9.091,4.025,-0.413,-2.956,-1.379
1081.0,0.406,9.091,4.025,-0.413,-2.956,-1.379
1085.0,0.552,8.342,3.697,-0.413,-2.956,-1.275
1089.0,0.552,8.342,3.697,-0.562,-2.801,-1.275
1093.0,0.552,8.342,3.697,-0.562,-2.801,-1.275
1097.0,0.354,7.749,3.606,-0.586,-2.629,-1.155
1101.0,0.354,7.749,3.606,-0.586,-2.629,-1.155
1105.0,0.107,7.286,3.643,-0.586,-2.629,-1.155
1109.0,0.107,7.286,3.643,-0.504,-2.456,-1.016
1113.0,0.107,7.286,3.643,-0.504,-2.456,-1.016
1116.0,-0.141,6.879,3.607,-0.334,-2.278,-0.862
1120.0,-0.141,6.879,3.607,-0.334,-2.278,-0.862
1124.0,-0.101,6.703,3.413,-0.334,-2.278,-0.862
1128.0,-0.101,6.703,3.413,-0.107,-2.098,-0.697
1132.0,-0.101,6.703,3.413,-0.107,-2.098,-0.697
1136.0,0.244,6.468,3.146,0.123,-1.903,-0.507
1140.0,0.244,6.468,3.146,0.123,-1.903,-0.507
1144.0,0.244,6.303,2.808,0.123,-1.903,-0.507
1148.0,0.683,6.303,2.808,0.323,-1.692,-0.319
1152.0,0.683,6.303,2.808,0.323,-1.692,-0.319
1155.0,1.12,6.386,2.576,0.475,-1.479,-0.145
1159.0,1.12,6.386,2.576,0.475,-1.479,-0.145
1163.0,1.12,6.386,2.576,0.475,-1.479,-0.145
1167.0,1.369,6.399,2.448,0.558,-1.252,0.031
1171.0,1.369,6.399,2.448,0.558,-1.252,0.031
1174.0,1.459,6.589,2.457,0.586,-1.029,0.187
1178.0,1.459,6.589,2.457,0.586,-1.029,0.187
1182.0,1.459,6.589,2.457,0.586,-1.029,0.187
1186.0,1.67,6.959,2.686,0.572,-0.823,0.336
1189.0,1.67,6.959,2.686,0.572,-0.823,0.336
1193.0,1.67,6.959,2.902,0.572,-0.823,0.336
1197.0,1.938,7.047,2.902,0.525,-0.614,0.492
1201.0,1.938,7.047,2.902,0.525,-0.614,0.492
1204.0,2.363,6.949,3.211,0.462,-0.413,0.627
1208.0,2.363,6.949,3.211,0.462,-0.413,0.627
1212.0,2.363,6.949,3.211,0.462,-0.413,0.627
1215.0,2.601,7.018,3.683,0.388,-0.222,0.733
1219.0,2.601,7.018,3.683,0.388,-0.222,0.733
1223.0,2.601,7.371,4.252,0.388,-0.222,0.733
1227.0,2.441,7.371,4.252,0.313,-0.051,0.836
1230.0,2.441,7.371,4.252,0.313,-0.051,0.836
1234.0,2.321,7.601,4.909,0.243,0.074,0.976
1238.0,2.321,7.601,4.909,0.243,0.074,0.976
1241.0,2.321,7.601,4.909,0.243,0.074,0.976
1245.0,2.384,7.497,5.657,0.186,0.166,1.138
1249.0,2.384,7.497,5.657,0.186,0.166,1.138
1252.0,2.384,7.497,6.442,0.186,0.166,1.138
1256.0,2.555,7.464,6.442,0.147,0.244,1.301
1260.0,2.555,7.464,6.442,0.147,0.244,1.301
1263.0,2.701,7.313,7.274,0.132,0.325,1.465
1267.0,2.701,7.313,7.274,0.132,0.325,1.465
1271.0,2.701,7.313,7.274,0.132,0.325,1.465
1274.0,2.801,6.723,8.492,0.142,0.393,1.617
1278.0,2.801,6.723,8.492,0.142,0.393,1.617
1282.0,2.801,6.723,8.492,0.142,0.393,1.617
1285.0,3.034,6.17,9.603,0.171,0.418,1.739
1289.0,3.034,6.17,9.603,0.171,0.418,1.739
1292.0,3.201,5.83,10.528,0.171,0.418,1.848
1296.0,3.201,5.83,10.528,0.197,0.418,1.848
1300.0,3.201,5.83,10.528,0.197,0.418,1.848
1304.0,3.392,5.666,11.167,0.222,0.384,1.942
1307.0,3.392,5.666,11.167,0.222,0.384,1.942
1311.0,3.392,5.666,11.167,0.222,0.384,1.942
1315.0,3.727,6.034,11.602,0.264,0.315,2.002
1319.0,3.727,6.034,11.602,0.264,0.315,2.002
1322.0,3.982,6.977,11.8,0.264,0.226,2.033
1326.0,3.982,6.977,11.8,0.336,0.226,2.033
1330.0,3.982,6.977,11.8,0.336,0.226,2.033
1334.0,4.2,7.877,11.41,0.425,0.125,2.064
1337.0,4.2,7.877,11.41,0.425,0.125,2.064
1341.0,4.2,7.877,11.41,0.425,0.125,2.064
1345.0,4.619,8.924,10.994,0.521,0.033,2.068
1348.0,4.619,8.924,10.994,0.521,0.033,2.068
1352.0,4.913,9.935,10.566,0.643,-0.034,2.06
1356.0,4.913,9.935,10.566,0.643,-0.034,2.06
1360.0,4.913,9.935,10.566,0.643,-0.034,2.06
1364.0,5.11,10.633,10.065,0.768,-0.062,2.143
1368.0,5.11,10.633,10.065,0.768,-0.062,2.143
1371.0,5.436,10.914,9.781,0.768,-0.062,2.372
1375.0,5.436,10.914,9.781,0.876,-0.012,2.372
1379.0,5.436,10.914,9.781,0.876,-0.012,2.372
1383.0,5.603,10.929,9.927,1.009,0.129,2.641
1387.0,5.603,10.929,9.927,1.009,0.129,2.641
1390.0,5.603,10.929,9.927,1.009,0.129,2.641
1394.0,5.305,10.984,10.485,1.202,0.316,2.85
1398.0,5.305,10.984,10.485,1.202,0.316,2.85
1402.0,4.792,11.246,11.218,1.428,0.483,3.027
1406.0,4.792,11.246,11.218,1.428,0.483,3.027
1409.0,4.792,11.246,11.218,1.428,0.483,3.027
1413.0,4.75,11.431,11.923,1.629,0.651,3.224
1417.0,4.75,11.431,11.923,1.629,0.651,3.224
1421.0,4.04,11.451,12.516,1.629,0.651,3.323
1425.0,4.04,11.451,12.516,1.823,0.837,3.323
1428.0,4.04,11.451,12.516,1.823,0.837,3.323
1432.0,2.858,11.517,12.163,1.993,0.932,3.343
1436.0,2.858,11.517,12.163,1.993,0.932,3.343
1440.0,2.858,11.517,11.253,1.993,0.932,3.343
1444.0,2.026,11.377,11.253,2.048,0.991,3.4
1448.0,2.026,11.377,11.253,2.048,0.991,3.4
1451.0,1.698,10.99,10.281,1.972,1.072,3.495
1455.0,1.698,10.99,10.281,1.972,1.072,3.495
1459.0,1.698,10.99,10.281,1.972,1.072,3.495
1463.0,1.519,10.625,9.399,1.815,1.181,3.6
1467.0,1.519,10.625,9.399,1.815,1.181,3.6
1470.0,1.451,10.241,8.754,1.815,1.323,3.745
1474.0,1.451,10.241,8.754,1.611,1.323,3.745
1478.0,1.451,10.241,8.754,1.611,1.323,3.745
1482.0,1.282,9.881,8.447,1.407,1.48,3.936
1485.0,1.282,9.881,8.447,1.407,1.48,3.936
1489.0,1.282,9.881,8.447,1.407,1.48,3.936
1492.0,1.067,9.357,8.241,1.232,1.629,4.156
1496.0,1.067,9.357,8.241,1.232,1.629,4.156
1500.0,0.662,8.948,8.196,1.232,1.629,4.387
1503.0,0.662,8.948,8.196,1.085,1.765,4.387
1507.0,0.662,8.948,8.196,1.085,1.765,4.387
1511.0,0.083,8.506,8.122,0.95,1.894,4.654
1514.0,0.083,8.506,8.122,0.95,1.894,4.654
1518.0,0.083,8.506,8.122,0.95,1.894,4.654
1522.0,-0.492,8.243,7.992,0.813,2.028,4.922
1525.0,-0.492,8.243,7.992,0.813,2.028,4.922
1529.0,-0.982,7.993,7.777,0.813,2.028,4.922
1533.0,-0.982,7.993,7.777,0.681,2.17,5.012
1537.0,-0.982,7.993,7.777,0.681,2.17,5.012
1540.0,-1.299,7.534,7.612,0.56,2.31,5.013
1544.0,-1.299,7.534,7.612,0.56,2.31,5.013
1548.0,-1.299,7.534,7.612,0.56,2.31,5.013
1551.0,-1.516,6.958,7.677,0.442,2.433,5.013
1555.0,-1.516,6.958,7.677,0.442,2.433,5.013
1559.0,-1.74,6.15,7.68,0.442,2.433,5.013
1563.0,-1.74,6.15,7.68,0.316,2.518,5.013
1566.0,-1.74,6.15,7.68,0.316,2.518,5.013
1570.0,-2.194,5.576,7.759,0.166,2.562,5.013
1574.0,-2.194,5.576,7.759,0.166,2.562,5.013
1578.0,-2.194,5.576,7.759,0.166,2.562,5.013
1581.0,-2.8,5.104,7.69,-0.012,2.568,5.013
1585.0,-2.8,5.104,7.69,-0.012,2.568,5.013
1589.0,-3.445,4.434,7.641,-0.232,2.557,5.013
1593.0,-3.445,4.434,7.641,-0.232,2.557,5.013
1597.0,-3.445,4.434,7.641,-0.232,2.557,5.013
1600.0,-4.062,3.574,7.522,-0.509,2.537,5.013
1604.0,-4.062,3.574,7.522,-0.509,2.537,5.013
1608.0,-4.949,2.646,7.351,-0.509,2.537,5.013
1612.0,-4.949,2.646,7.351,-0.862,2.53,5.013
1616.0,-4.949,2.646,7.351,-0.862,2.53,5.013
1620.0,-6.449,1.423,7.281,-1.313,2.539,5.013
1623.0,-6.449,1.423,7.281,-1.313,2.539,5.013
1627.0,-6.449,1.423,7.281,-1.313,2.539,5.013
1631.0,-8.559,0.455,6.758,-1.872,2.547,5.013
1635.0,-8.559,0.455,6.758,-1.872,2.547,5.013
1639.0,-10.867,-0.3,5.953,-2.541,2.532,5.013
1643.0,-10.867,-0.3,5.953,-2.541,2.532,5.013
1647.0,-10.867,-0.3,5.953,-2.541,2.532,5.013
1651.0,-13.455,-1.19,5.746,-3.311,2.449,5.013
1655.0,-13.455,-1.19,5.746,-3.311,2.449,5.013
1659.0,-15.928,-2.563,5.275,-4.158,2.196,5.013
1663.0,-15.928,-2.563,5.275,-4.158,2.196,5.013
1667.0,-15.928,-2.563,5.275,-4.158,2.196,5.013
1671.0,-17.661,-4.146,4.154,-4.874,1.77,5.013
1675.0,-17.661,-4.146,4.154,-4.874,1.77,5.013
1679.0,-18.415,-6.388,3.602,-5.013,1.189,5.013
1683.0,-18.415,-6.388,3.602,-5.013,1.189,5.013
1687.0,-18.415,-6.388,3.602,-5.013,1.189,5.013
1691.0,-17.859,-9.858,3.199,-5.013,0.426,5.013
1695.0,-17.859,-9.858,3.199,-5.013,0.426,5.013
1699.0,-15.269,-14.355,2.492,-5.013,-0.37,4.862
1703.0,-15.269,-14.355,2.492,-5.013,-0.37,4.862
1707.0,-11.948,-16.864,2.014,-5.013,-0.37,4.862
1711.0,-11.948,-16.864,2.014,-4.941,-0.965,4.1
1715.0,-11.948,-16.864,2.014,-4.941,-0.965,4.1
1719.0,-8.357,-16.877,0.637,-4.069,-1.307,3.354
1723.0,-8.357,-16.877,0.637,-4.069,-1.307,3.354
1728.0,-4.341,-16.239,0.096,-2.749,-1.44,2.782
1732.0,-4.341,-16.239,0.096,-2.749,-1.44,2.782
1736.0,-4.341,-16.239,0.096,-2.749,-1.44,2.782
1740.0,-0.507,-15.254,1.017,-1.612,-1.43,2.245
1744.0,-0.507,-15.254,1.017,-1.612,-1.43,2.245
1748.0,2.552,-13.939,1.921,-0.718,-1.335,1.755
1752.0,2.552,-13.939,1.921,-0.718,-1.335,1.755
1756.0,2.552,-13.939,2.492,-0.718,-1.335,1.755
1760.0,4.222,-12.878,2.492,-0.047,-1.171,1.383
1764.0,4.222,-12.878,2.492,-0.047,-1.171,1.383
1768.0,5.057,-12.071,3.24,0.449,-0.986,1.122
1772.0,5.057,-12.071,3.24,0.449,-0.986,1.122
1776.0,5.057,-11.509,3.65,0.449,-0.986,1.122
1780.0,5.36,-11.509,3.65,0.829,-0.833,0.931
1784.0,5.36,-11.509,3.65,0.829,-0.833,0.931
1787.0,5.158,-10.987,3.648,1.108,-0.702,0.773
1791.0,5.158,-10.987,3.648,1.108,-0.702,0.773
1795.0,5.158,-10.987,3.569,1.108,-0.702,0.773
1799.0,4.598,-10.461,3.569,1.286,-0.585,0.63
1803.0,4.598,-10.461,3.569,1.286,-0.585,0.63
1807.0,4.01,-9.929,3.639,1.364,-0.477,0.506
1811.0,4.01,-9.929,3.639,1.364,-0.477,0.506
1815.0,4.01,-9.929,3.639,1.364,-0.477,0.506
1818.0,3.522,-9.366,3.75,1.354,-0.392,0.403
1822.0,3.522,-9.366,3.75,1.354,-0.392,0.403
1826.0,3.115,-8.759,3.88,1.276,-0.328,0.313
1830.0,3.115,-8.759,3.88,1.276,-0.328,0.313
1834.0,3.115,-8.759,3.88,1.276,-0.328,0.313
1838.0,2.938,-8.077,4.148,1.148,-0.288,0.248
1841.0,2.938,-8.077,4.148,1.148,-0.288,0.248
1845.0,2.981,-7.534,4.366,1.148,-0.288,0.228
1849.0,2.981,-7.534,4.366,0.982,-0.268,0.228
1853.0,2.981,-7.534,4.366,0.982,-0.268,0.228
1857.0,3.098,-7.144,4.527,0.799,-0.256,0.227
1860.0,3.098,-7.144,4.527,0.799,-0.256,0.227
1864.0,3.098,-7.144,4.527,0.799,-0.256,0.227
1868.0,3.283,-6.843,4.807,0.619,-0.241,0.222
1872.0,3.283,-6.843,4.807,0.619,-0.241,0.222
1876.0,3.536,-6.639,5.145,0.449,-0.229,0.215
1880.0,3.536,-6.639,5.145,0.449,-0.229,0.215
1883.0,3.536,-6.639,5.145,0.449,-0.229,0.215
1887.0,3.784,-6.52,5.352,0.292,-0.218,0.194
1891.0,3.784,-6.52,5.352,0.292,-0.218,0.194
1895.0,3.834,-6.468,5.373,0.292,-0.209,0.13
1899.0,3.834,-6.468,5.373,0.164,-0.209,0.13
1902.0,3.834,-6.468,5.373,0.164,-0.209,0.13
1906.0,3.723,-6.333,5.34,0.071,-0.211,0.028
1910.0,3.723,-6.333,5.34,0.071,-0.211,0.028
1914.0,3.723,-6.104,5.325,0.071,-0.211,0.028
1918.0,3.497,-6.104,5.325,0.014,-0.219,-0.085
1922.0,3.497,-6.104,5.325,0.014,-0.219,-0.085
1926.0,3.26,-5.887,5.33,-0.014,-0.218,-0.179
1930.0,3.26,-5.887,5.33,-0.014,-0.218,-0.179
1934.0,3.26,-5.887,5.373,-0.014,-0.218,-0.179
1938.0,3.051,-5.693,5.373,-0.014,-0.209,-0.256
1942.0,3.051,-5.693,5.373,-0.014,-0.209,-0.256
1946.0,3.036,-5.512,5.366,0.012,-0.192,-0.326
1949.0,3.036,-5.512,5.366,0.012,-0.192,-0.326
1953.0,3.036,-5.512,5.351,0.012,-0.192,-0.326
1957.0,3.261,-5.361,5.351,0.054,-0.165,-0.384
1961.0,3.261,-5.361,5.351,0.054,-0.165,-0.384
1965.0,3.63,-5.246,5.497,0.108,-0.134,-0.419
1969.0,3.63,-5.246,5.497,0.108,-0.134,-0.419
1973.0,3.63,-5.246,5.497,0.108,-0.134,-0.419
1977.0,4.056,-5.134,5.707,0.165,-0.106,-0.435
1981.0,4.056,-5.134,5.707,0.165,-0.106,-0.435
1985.0,4.409,-5.02,5.865,0.222,-0.07,-0.426
1988.0,4.409,-5.02,5.865,0.222,-0.07,-0.426
1992.0,4.409,-5.02,5.865,0.222,-0.07,-0.426
1996.0,4.662,-4.929,6.071,0.28,-0.019,-0.393
2000.0,4.662,-4.929,6.071,0.28,-0.019,-0.393
2004.0,4.875,-4.848,6.4,0.329,0.034,-0.342
2008.0,4.875,-4.848,6.4,0.329,0.034,-0.342
2012.0,4.875,-4.848,6.4,0.329,0.034,-0.342
2016.0,5.209,-4.719,6.653,0.366,0.077,-0.278
2019.0,5.209,-4.719,6.653,0.366,0.077,-0.278
2023.0,5.605,-4.659,6.866,0.388,0.12,-0.202
2027.0,5.605,-4.659,6.866,0.388,0.12,-0.202
2031.0,5.605,-4.659,6.866,0.388,0.12,-0.202
2035.0,5.904,-4.614,7.187,0.405,0.167,-0.126
2038.0,5.904,-4.614,7.187,0.405,0.167,-0.126
2042.0,5.904,-4.583,7.493,0.405,0.167,-0.126
2046.0,6.15,-4.583,7.493,0.413,0.204,-0.044
2050.0,6.15,-4.583,7.493,0.413,0.204,-0.044
2054.0,6.391,-4.582,7.799,0.406,0.243,0.036
2057.0,6.391,-4.582,7.799,0.406,0.243,0.036
2061.0,6.391,-4.582,7.799,0.406,0.243,0.036
2065.0,6.577,-4.571,8.093,0.392,0.275,0.101
2069.0,6.577,-4.571,8.093,0.392,0.275,0.101
2072.0,6.727,-4.559,8.408,0.392,0.288,0.153
2076.0,6.727,-4.559,8.408,0.369,0.288,0.153
2080.0,6.727,-4.559,8.408,0.369,0.288,0.153
2084.0,6.872,-4.546,8.607,0.333,0.283,0.207
2087.0,6.872,-4.546,8.607,0.333,0.283,0.207
2091.0,6.872,-4.546,8.607,0.333,0.283,0.207
2095.0,6.922,-4.557,8.752,0.286,0.278,0.279
2099.0,6.922,-4.557,8.752,0.286,0.278,0.279
2102.0,6.946,-4.659,8.574,0.228,0.284,0.376
2106.0,6.946,-4.659,8.574,0.228,0.284,0.376
2110.0,6.946,-4.659,8.574,0.228,0.284,0.376
2113.0,6.83,-4.731,8.193,0.163,0.308,0.477
2117.0,6.83,-4.731,8.193,0.163,0.308,0.477
2121.0,6.83,-4.731,7.667,0.163,0.308,0.477
2125.0,6.616,-4.853,7.667,0.096,0.361,0.587
2128.0,6.616,-4.853,7.667,0.096,0.361,0.587
2132.0,6.057,-4.998,7.238,0.037,0.46,0.702
2136.0,6.057,-4.998,7.238,0.037,0.46,0.702
2140.0,6.057,-4.998,7.238,0.037,0.46,0.702
2143.0,5.191,-5.103,6.679,-0.003,0.588,0.827
2147.0,5.191,-5.103,6.679,-0.003,0.588,0.827
2151.0,4.4,-5.157,5.963,-0.003,0.588,0.827
2155.0,4.4,-5.157,5.963,-0.011,0.737,0.95
2159.0,4.4,-5.157,5.963,-0.011,0.737,0.95
2162.0,3.799,-5.062,5.213,0.031,0.923,1.073
2166.0,3.799,-5.062,5.213,0.031,0.923,1.073
2170.0,3.799,-5.062,5.213,0.031,0.923,1.073
2174.0,3.488,-4.782,4.402,0.142,1.151,1.222
2177.0,3.488,-4.782,4.402,0.142,1.151,1.222
2181.0,3.757,-4.395,3.538,0.142,1.433,1.424
2185.0,3.757,-4.395,3.538,0.333,1.433,1.424
2189.0,3.757,-4.395,3.538,0.333,1.433,1.424
2192.0,4.637,-4.181,2.974,0.627,1.828,1.694
2196.0,4.637,-4.181,2.974,0.627,1.828,1.694
2200.0,4.637,-4.181,2.974,0.627,1.828,1.694
2203.0,5.463,-4.423,3.535,1.063,2.336,2.05
2207.0,5.463,-4.423,3.535,1.063,2.336,2.05
2211.0,5.364,-5.691,5.053,1.697,2.837,2.473
2215.0,5.364,-5.691,5.053,1.697,2.837,2.473
2218.0,5.364,-5.691,5.053,1.697,2.837,2.473
2222.0,3.797,-8.125,6.192,2.579,3.192,2.812
2226.0,3.797,-8.125,6.192,2.579,3.192,2.812
2230.0,3.797,-8.125,6.684,2.579,3.192,2.812
2233.0,1.073,-10.764,6.684,3.707,3.377,2.924
2237.0,1.073,-10.764,6.684,3.707,3.377,2.924
2241.0,-1.896,-12.647,5.789,4.782,3.401,2.782
2245.0,-1.896,-12.647,5.789,4.782,3.401,2.782
2249.0,-1.896,-12.647,5.789,4.782,3.401,2.782
2253.0,-4.633,-13.442,3.424,4.995,3.365,2.421
2257.0,-4.633,-13.442,3.424,4.995,3.365,2.421
2261.0,-7.49,-12.525,-0.596,4.995,3.414,1.931
2265.0,-7.49,-12.525,-0.596,4.995,3.414,1.931
2269.0,-7.49,-12.525,-0.596,4.995,3.414,1.931
2272.0,-10.323,-10.812,-2.67,4.995,3.658,1.414
2277.0,-10.323,-10.812,-2.67,4.995,3.658,1.414
2281.0,-9.226,-9.769,-3.373,4.995,3.817,0.877
2285.0,-9.226,-9.769,-3.373,4.995,3.817,0.877
2288.0,-9.226,-9.769,-3.373,4.995,3.817,0.877
2292.0,-7.004,-8.861,-4.19,4.995,3.873,0.228
2296.0,-7.004,-8.861,-4.19,4.995,3.873,0.228
2300.0,-5.761,-7.814,-5.256,4.995,3.987,-0.611
2304.0,-5.761,-7.814,-5.256,4.995,3.987,-0.611
2308.0,-5.761,-7.814,-5.256,4.995,3.987,-0.611
2312.0,-5.831,-6.366,-6.128,4.995,4.166,-1.579
2316.0,-5.831,-6.366,-6.128,4.995,4.166,-1.579
2320.0,-7.162,-4.57,-6.593,4.995,4.345,-2.57
2324.0,-7.162,-4.57,-6.593,4.995,4.345,-2.57
2328.0,-7.162,-4.57,-6.593,4.995,4.345,-2.57
2332.0,-9.313,-2.71,-6.598,4.995,4.457,-3.485
2336.0,-9.313,-2.71,-6.598,4.995,4.457,-3.485
2340.0,-11.441,-1.285,-6.265,4.995,4.471,-4.268
2344.0,-11.441,-1.285,-6.265,4.995,4.471,-4.268
2348.0,-11.441,-0.65,-5.704,4.995,4.471,-4.268
2352.0,-12.875,-0.65,-5.704,4.995,4.399,-4.851
2356.0,-12.875,-0.65,-5.704,4.995,4.399,-4.851
2361.0,-14.157,-0.201,-4.709,4.995,4.248,-4.995
2365.0,-14.157,-0.201,-4.709,4.995,4.248,-4.995
2369.0,-15.049,-0.55,-4.08,4.995,4.015,-4.995
2373.0,-15.049,-0.55,-4.08,4.995,4.015,-4.995
2377.0,-15.049,-0.55,-4.08,4.995,4.015,-4.995
2381.0,-15.642,-0.948,-3.711,4.995,3.728,-4.995
2385.0,-15.642,-0.948,-3.711,4.995,3.728,-4.995
2389.0,-16.534,-0.851,-3.306,4.995,3.405,-4.995
2393.0,-16.534,-0.851,-3.306,4.995,3.405,-4.995
2397.0,-16.534,-0.851,-3.306,4.995,3.405,-4.995
2401.0,-17.058,-0.665,-2.745,4.995,3.055,-4.995
2405.0,-17.058,-0.665,-2.745,4.995,3.055,-4.995
2409.0,-16.983,-0.3,-1.63,4.995,2.702,-4.995
2414.0,-16.983,-0.3,-1.63,4.995,2.702,-4.995
2418.0,-16.573,-0.028,0.123,4.995,2.702,-4.995
2422.0,-16.573,-0.028,0.123,4.995,2.361,-4.995
2426.0,-16.573,-0.028,0.123,4.995,2.361,-4.995
2430.0,-16.329,0.05,1.799,4.995,2.04,-4.995
2434.0,-16.329,0.05,1.799,4.995,2.04,-4.995
2437.0,-16.229,0.214,2.845,4.995,2.04,-4.99
2441.0,-16.229,0.214,2.845,4.995,1.745,-4.99
2445.0,-16.229,0.214,2.845,4.995,1.745,-4.99
2449.0,-16.115,0.452,3.549,4.995,1.444,-4.989
2453.0,-16.115,0.452,3.549,4.995,1.444,-4.989
2457.0,-16.313,0.675,3.453,4.995,1.444,-4.989
2461.0,-16.313,0.675,3.453,4.995,1.112,-4.995
2465.0,-16.313,0.675,3.453,4.995,1.112,-4.995
2469.0,-16.975,1.086,2.791,4.995,0.776,-4.995
2473.0,-16.975,1.086,2.791,4.995,0.776,-4.995
2476.0,-16.975,1.618,1.884,4.995,0.776,-4.995
2480.0,-17.554,1.618,1.884,4.995,0.455,-4.995
2484.0,-17.554,1.618,1.884,4.995,0.455,-4.995
2488.0,-17.806,2.323,1.273,4.995,0.162,-4.995
2492.0,-17.806,2.323,1.273,4.995,0.162,-4.995
2496.0,-17.806,2.323,1.273,4.995,0.162,-4.995
2500.0,-17.825,2.967,0.887,4.994,-0.11,-4.995
2504.0,-17.825,2.967,0.887,4.994,-0.11,-4.995
2508.0,-17.728,3.353,0.446,4.868,-0.36,-4.995
2512.0,-17.728,3.353,0.446,4.868,-0.36,-4.995
2516.0,-17.728,3.353,0.12,4.868,-0.36,-4.995
2520.0,-17.497,3.547,0.12,4.442,-0.563,-4.965
2524.0,-17.497,3.547,0.12,4.442,-0.563,-4.965
2528.0,-17.551,3.69,0.023,3.924,-0.717,-4.86
2532.0,-17.551,3.69,0.023,3.924,-0.717,-4.86
2536.0,-17.624,3.819,-0.026,3.924,-0.717,-4.86
2540.0,-17.624,3.819,-0.026,3.382,-0.85,-4.78
2544.0,-17.624,3.819,-0.026,3.382,-0.85,-4.78
2548.0,-17.484,3.855,-0.011,2.83,-0.983,-4.725
2552.0,-17.484,3.855,-0.011,2.83,-0.983,-4.725
2556.0,-17.047,3.77,0.22,2.281,-1.119,-4.656
2560.0,-17.047,3.77,0.22,2.281,-1.119,-4.656
2564.0,-17.047,3.77,0.22,2.281,-1.119,-4.656
2568.0,-16.655,3.498,0.636,1.747,-1.262,-4.563
2572.0,-16.655,3.498,0.636,1.747,-1.262,-4.563
2576.0,-16.629,3.071,0.793,1.242,-1.403,-4.475
2580.0,-16.629,3.071,0.793,1.242,-1.403,-4.475
2584.0,-16.629,3.071,0.793,1.242,-1.403,-4.475
2588.0,-16.731,2.669,0.968,0.772,-1.522,-4.408
2592.0,-16.731,2.669,0.968,0.772,-1.522,-4.408
2596.0,-16.833,2.243,1.35,0.346,-1.639,-4.35
2600.0,-16.833,2.243,1.35,0.346,-1.639,-4.35
2604.0,-16.833,2.243,1.35,0.346,-1.639,-4.35
2608.0,-17.016,1.784,1.866,-0.034,-1.789,-4.283
2612.0,-17.016,1.784,1.866,-0.034,-1.789,-4.283
2616.0,-17.27,1.155,2.359,-0.37,-1.983,-4.195
2620.0,-17.27,1.155,2.359,-0.37,-1.983,-4.195
2624.0,-17.27,1.155,2.592,-0.37,-1.983,-4.195
2629.0,-17.229,0.668,2.592,-0.663,-2.187,-4.092
2633.0,-17.229,0.668,2.592,-0.663,-2.187,-4.092
2637.0,-16.787,0.309,2.755,-0.909,-2.365,-3.961
2641.0,-16.787,0.309,2.755,-0.909,-2.365,-3.961
2645.0,-15.943,-0.054,2.599,-0.909,-2.488,-3.799
2649.0,-15.943,-0.054,2.599,-1.112,-2.488,-3.799
2653.0,-15.943,-0.054,2.599,-1.112,-2.488,-3.799
2657.0,-15.174,-0.367,2.317,-1.279,-2.539,-3.616
2662.0,-15.174,-0.367,2.317,-1.279,-2.539,-3.616
2666.0,-14.693,-0.581,2.032,-1.411,-2.541,-3.436
2670.0,-14.693,-0.581,2.032,-1.411,-2.541,-3.436
2674.0,-14.36,-0.949,1.528,-1.411,-2.541,-3.436
2678.0,-14.36,-0.949,1.528,-1.517,-2.531,-3.277
2682.0,-14.36,-0.949,1.528,-1.517,-2.531,-3.277
2687.0,-13.952,-1.336,1.11,-1.633,-2.525,-3.166
2691.0,-13.952,-1.336,1.11,-1.633,-2.525,-3.166
2695.0,-13.454,-1.558,0.845,-1.779,-2.512,-3.102
2699.0,-13.454,-1.558,0.845,-1.779,-2.512,-3.102
2703.0,-13.454,-1.558,0.845,-1.779,-2.512,-3.102
2707.0,-12.746,-1.93,0.887,-1.947,-2.465,-3.047
2712.0,-12.746,-1.93,0.887,-1.947,-2.465,-3.047
2716.0,-11.965,-2.398,1.126,-2.12,-2.366,-2.978
2720.0,-11.965,-2.398,1.126,-2.12,-2.366,-2.978
2724.0,-11.207,-3.071,1.631,-2.28,-2.214,-2.863
2728.0,-11.207,-3.071,1.631,-2.28,-2.214,-2.863
2732.0,-11.207,-3.071,1.631,-2.28,-2.214,-2.863
2737.0,-10.469,-3.891,2.402,-2.419,-2.015,-2.693
2741.0,-10.469,-3.891,2.402,-2.419,-2.015,-2.693
2745.0,-9.835,-4.826,3.248,-2.531,-1.773,-2.468
2749.0,-9.835,-4.826,3.248,-2.531,-1.773,-2.468
2753.0,-9.435,-5.856,3.946,-2.531,-1.773,-2.468
2757.0,-9.435,-5.856,3.946,-2.62,-1.501,-2.194
2761.0,-9.435,-5.856,3.946,-2.62,-1.501,-2.194
2765.0,-9.193,-6.837,4.496,-2.695,-1.227,-1.879
2769.0,-9.193,-6.837,4.496,-2.695,-1.227,-1.879
2773.0,-9.099,-7.84,4.898,-2.753,-0.982,-1.552
2778.0,-9.099,-7.84,4.898,-2.753,-0.982,-1.552
2782.0,-9.099,-7.84,4.898,-2.753,-0.982,-1.552
2786.0,-9.136,-8.817,5.216,-2.79,-0.782,-1.256
2790.0,-9.136,-8.817,5.216,-2.79,-0.782,-1.256
2794.0,-9.128,-9.412,5.359,-2.798,-0.628,-1.005
2798.0,-9.128,-9.412,5.359,-2.798,-0.628,-1.005
2802.0,-9.128,-9.412,5.359,-2.798,-0.628,-1.005
2806.0,-9.004,-9.688,5.317,-2.771,-0.504,-0.778
2810.0,-9.004,-9.688,5.317,-2.771,-0.504,-0.778
2814.0,-8.716,-9.832,5.2,-2.713,-0.394,-0.556
2818.0,-8.716,-9.832,5.2,-2.713,-0.394,-0.556
2822.0,-8.3,-9.945,5.128,-2.713,-0.394,-0.322
2826.0,-8.3,-9.945,5.128,-2.623,-0.283,-0.322
2831.0,-8.3,-9.945,5.128,-2.623,-0.283,-0.322
2835.0,-8.07,-9.997,5.256,-2.498,-0.176,-0.065
2839.0,-8.07,-9.997,5.256,-2.498,-0.176,-0.065
2843.0,-8.24,-10.283,5.211,-2.336,-0.086,0.211
2847.0,-8.24,-10.283,5.211,-2.336,-0.086,0.211
2851.0,-8.24,-10.283,5.211,-2.336,-0.086,0.211
2855.0,-8.334,-10.609,5.003,-2.14,-0.015,0.493
2859.0,-8.334,-10.609,5.003,-2.14,-0.015,0.493
2863.0,-8.063,-10.715,4.598,-1.912,0.028,0.746
2867.0,-8.063,-10.715,4.598,-1.912,0.028,0.746
2871.0,-8.063,-10.715,4.25,-1.912,0.028,0.746
2875.0,-7.65,-10.419,4.25,-1.689,0.058,0.924
2879.0,-7.65,-10.419,4.25,-1.689,0.058,0.924
2883.0,-7.362,-9.707,4.134,-1.487,0.068,1.056
2887.0,-7.362,-9.707,4.134,-1.487,0.068,1.056
2891.0,-7.362,-9.707,3.934,-1.487,0.068,1.056
2895.0,-7.167,-8.763,3.934,-1.298,0.047,1.199
2899.0,-7.167,-8.763,3.934,-1.298,0.047,1.199
2903.0,-6.904,-7.937,3.549,-1.123,0.005,1.378
2907.0,-6.904,-7.937,3.549,-1.123,0.005,1.378
2911.0,-6.904,-7.937,3.549,-1.123,0.005,1.378
2914.0,-6.572,-7.373,3.014,-0.983,-0.053,1.588
2918.0,-6.572,-7.373,3.014,-0.983,-0.053,1.588
2922.0,-6.319,-7.37,2.451,-0.903,-0.126,1.808
2926.0,-6.319,-7.37,2.451,-0.903,-0.126,1.808
2930.0,-6.319,-7.37,1.768,-0.903,-0.126,1.808
2934.0,-6.321,-7.657,1.768,-0.902,-0.211,2.008
2938.0,-6.321,-7.657,1.768,-0.902,-0.211,2.008
2942.0,-6.466,-7.899,1.214,-0.97,-0.297,2.175
2946.0,-6.466,-7.899,1.214,-0.97,-0.297,2.175
2950.0,-6.466,-8.085,0.863,-0.97,-0.297,2.175
2954.0,-6.58,-8.085,0.863,-1.072,-0.394,2.301
2958.0,-6.58,-8.085,0.863,-1.072,-0.394,2.301
2962.0,-6.802,-8.177,0.505,-1.161,-0.507,2.376
2966.0,-6.802,-8.177,0.505,-1.161,-0.507,2.376
2970.0,-7.051,-8.051,-0.025,-1.161,-0.507,2.376
2974.0,-7.051,-8.051,-0.025,-1.216,-0.626,2.411
2978.0,-7.051,-8.051,-0.025,-1.216,-0.626,2.411
2983.0,-7.136,-7.762,-0.571,-1.24,-0.735,2.434
2987.0,-7.136,-7.762,-0.571,-1.24,-0.735,2.434
2991.0,-7.083,-7.492,-0.952,-1.241,-0.823,2.462
2995.0,-7.083,-7.492,-0.952,-1.241,-0.823,2.462
2999.0,-7.083,-7.492,-0.952,-1.241,-0.823,2.462
