deltaTime,Acc_X,Acc_Y,Acc_Z,Gyro_X,Gyro_Y,Gyro_Z
0.0,-1.406,-0.564,7.35,-0.206,-0.299,0.095
3.0,-1.406,-0.564,7.35,-0.206,-0.299,0.095
6.0,-1.779,-0.457,7.067,-0.248,-0.131,0.124
9.0,-1.779,-0.457,7.067,-0.248,-0.131,0.124
12.0,-1.779,-0.457,7.067,-0.248,-0.131,0.124
15.0,-1.75,-0.136,6.91,-0.248,-0.131,0.134
18.0,-1.75,-0.136,6.91,-0.251,-0.112,0.134
21.0,-1.75,-0.136,6.91,-0.251,-0.112,0.134
24.0,-1.75,-0.136,6.91,-0.251,-0.112,0.134
27.0,-1.744,0.139,6.91,-0.273,-0.102,0.133
30.0,-1.744,0.139,6.91,-0.273,-0.102,0.133
33.0,-1.744,0.139,6.91,-0.273,-0.102,0.133
37.0,-1.741,0.308,7.086,-0.292,-0.099,0.128
41.0,-1.741,0.308,7.086,-0.292,-0.099,0.128
45.0,-1.741,0.495,7.207,-0.292,-0.099,0.128
48.0,-1.724,0.495,7.207,-0.295,-0.119,0.14
52.0,-1.724,0.495,7.207,-0.295,-0.119,0.14
56.0,-1.774,0.684,7.191,-0.307,-0.148,0.176
60.0,-1.774,0.684,7.191,-0.307,-0.148,0.176
63.0,-1.774,0.684,7.191,-0.307,-0.148,0.176
67.0,-1.777,0.644,6.945,-0.318,-0.194,0.237
71.0,-1.777,0.644,6.945,-0.318,-0.194,0.237
75.0,-1.747,0.38,6.699,-0.318,-0.194,0.237
78.0,-1.747,0.38,6.699,-0.303,-0.239,0.31
82.0,-1.747,0.38,6.699,-0.303,-0.239,0.31
86.0,-1.825,0.141,6.496,-0.238,-0.266,0.377
89.0,-1.825,0.141,6.496,-0.238,-0.266,0.377
93.0,-1.825,0.141,6.496,-0.238,-0.266,0.377
97.0,-1.994,0.069,6.228,-0.142,-0.282,0.425
101.0,-1.994,0.069,6.228,-0.142,-0.282,0.425
104.0,-2.165,0.302,5.922,-0.142,-0.297,0.451
108.0,-2.165,0.302,5.922,-0.058,-0.297,0.451
112.0,-2.165,0.302,5.922,-0.058,-0.297,0.451
116.0,-2.232,0.526,5.585,-0.024,-0.309,0.465
120.0,-2.232,0.526,5.585,-0.024,-0.309,0.465
124.0,-2.232,0.462,5.425,-0.024,-0.309,0.465
127.0,-2.29,0.462,5.425,-0.037,-0.295,0.484
131.0,-2.29,0.462,5.425,-0.037,-0.295,0.484
135.0,-2.429,0.126,5.419,-0.034,-0.265,0.528
139.0,-2.429,0.126,5.419,-0.034,-0.265,0.528
143.0,-2.429,0.126,5.419,-0.034,-0.265,0.528
146.0,-2.409,0.044,5.38,0.012,-0.233,0.588
150.0,-2.409,0.044,5.38,0.012,-0.233,0.588
154.0,-2.362,0.242,5.453,0.044,-0.192,0.633
158.0,-2.362,0.242,5.453,0.044,-0.192,0.633
161.0,-2.362,0.242,5.453,0.044,-0.192,0.633
165.0,-2.321,0.356,5.532,0.03,-0.149,0.653
169.0,-2.321,0.356,5.532,0.03,-0.149,0.653
173.0,-2.321,0.356,5.532,0.03,-0.149,0.653
176.0,-2.203,0.388,5.574,-0.028,-0.098,0.645
180.0,-2.203,0.388,5.574,-0.028,-0.098,0.645
184.0,-2.088,0.415,5.84,-0.116,-0.031,0.611
188.0,-2.088,0.415,5.84,-0.116,-0.031,0.611
192.0,-2.088,0.415,5.84,-0.116,-0.031,0.611
195.0,-2.136,0.321,6.319,-0.194,0.036,0.57
199.0,-2.136,0.321,6.319,-0.194,0.036,0.57
203.0,-2.338,0.325,7.015,-0.194,0.036,0.528
207.0,-2.338,0.325,7.015,-0.219,0.091,0.528
210.0,-2.338,0.325,7.015,-0.219,0.091,0.528
214.0,-2.703,0.485,7.71,-0.192,0.122,0.505
218.0,-2.703,0.485,7.71,-0.192,0.122,0.505
222.0,-2.703,0.485,7.71,-0.192,0.122,0.505
225.0,-2.777,0.924,8.148,-0.179,0.127,0.506
229.0,-2.777,0.924,8.148,-0.179,0.127,0.506
233.0,-2.46,1.214,8.726,-0.179,0.135,0.499
236.0,-2.46,1.214,8.726,-0.229,0.135,0.499
240.0,-2.46,1.214,8.726,-0.229,0.135,0.499
244.0,-2.082,1.085,9.364,-0.3,0.157,0.469
248.0,-2.082,1.085,9.364,-0.3,0.157,0.469
251.0,-2.082,1.085,9.364,-0.3,0.157,0.469
255.0,-1.972,0.913,10.024,-0.318,0.187,0.407
259.0,-1.972,0.913,10.024,-0.318,0.187,0.407
263.0,-2.091,0.789,10.975,-0.253,0.223,0.34
267.0,-2.091,0.789,10.975,-0.253,0.223,0.34
270.0,-2.091,0.789,10.975,-0.253,0.223,0.34
274.0,-2.379,0.79,11.974,-0.109,0.279,0.294
278.0,-2.379,0.79,11.974,-0.109,0.279,0.294
282.0,-2.888,1.085,12.92,-0.109,0.279,0.249
286.0,-2.888,1.085,12.92,0.06,0.33,0.249
289.0,-2.888,1.085,12.92,0.06,0.33,0.249
293.0,-3.51,0.803,14.023,0.209,0.331,0.204
297.0,-3.51,0.803,14.023,0.209,0.331,0.204
301.0,-3.51,0.803,14.023,0.209,0.331,0.204
304.0,-3.581,0.71,14.469,0.408,0.259,0.181
308.0,-3.581,0.71,14.469,0.408,0.259,0.181
312.0,-2.989,1.148,14.158,0.408,0.142,0.126
316.0,-2.989,1.148,14.158,0.593,0.142,0.126
319.0,-2.989,1.148,14.158,0.593,0.142,0.126
323.0,-2.496,1.545,13.816,0.673,0.037,0.014
327.0,-2.496,1.545,13.816,0.673,0.037,0.014
331.0,-2.496,1.545,13.816,0.673,0.037,0.014
334.0,-1.895,1.813,13.583,0.645,0.015,-0.117
338.0,-1.895,1.813,13.583,0.645,0.015,-0.117
342.0,-1.475,2.099,13.597,0.527,0.085,-0.235
346.0,-1.475,2.099,13.597,0.527,0.085,-0.235
350.0,-1.475,2.099,13.597,0.527,0.085,-0.235
353.0,-1.493,2.325,14.049,0.321,0.177,-0.326
357.0,-1.493,2.325,14.049,0.321,0.177,-0.326
361.0,-1.636,2.766,14.529,0.321,0.177,-0.406
365.0,-1.636,2.766,14.529,0.062,0.225,-0.406
369.0,-1.636,2.766,14.529,0.062,0.225,-0.406
372.0,-2.111,2.691,14.742,-0.247,0.224,-0.492
376.0,-2.111,2.691,14.742,-0.247,0.224,-0.492
380.0,-2.111,2.066,14.81,-0.247,0.224,-0.492
384.0,-2.441,2.066,14.81,-0.525,0.22,-0.593
388.0,-2.441,2.066,14.81,-0.525,0.22,-0.593
392.0,-2.453,1.303,15.017,-0.693,0.243,-0.689
396.0,-2.453,1.303,15.017,-0.693,0.243,-0.689
400.0,-2.453,1.303,15.02,-0.693,0.243,-0.689
404.0,-2.487,0.545,15.02,-0.752,0.264,-0.778
408.0,-2.487,0.545,15.02,-0.752,0.264,-0.778
411.0,-2.976,-0.202,14.929,-0.723,0.301,-0.841
415.0,-2.976,-0.202,14.929,-0.723,0.301,-0.841
419.0,-2.976,-0.202,14.913,-0.723,0.301,-0.841
423.0,-3.682,-1.288,14.913,-0.613,0.352,-0.849
427.0,-3.682,-1.288,14.913,-0.613,0.352,-0.849
431.0,-4.484,-2.276,15.176,-0.444,0.381,-0.799
435.0,-4.484,-2.276,15.176,-0.444,0.381,-0.799
439.0,-4.484,-3.266,15.294,-0.444,0.381,-0.799
443.0,-4.856,-3.266,15.294,-0.232,0.35,-0.698
447.0,-4.856,-3.266,15.294,-0.232,0.35,-0.698
451.0,-4.539,-4.137,15.485,0.014,0.262,-0.588
455.0,-4.539,-4.137,15.485,0.014,0.262,-0.588
459.0,-4.539,-4.67,15.727,0.014,0.262,-0.588
463.0,-3.91,-4.67,15.727,0.298,0.141,-0.523
467.0,-3.91,-4.67,15.727,0.298,0.141,-0.523
471.0,-3.712,-4.944,15.568,0.61,0.021,-0.524
475.0,-3.712,-4.944,15.568,0.61,0.021,-0.524
479.0,-3.712,-4.944,14.913,0.61,0.021,-0.524
483.0,-3.972,-5.25,14.913,0.906,-0.092,-0.559
487.0,-3.972,-5.25,14.913,0.906,-0.092,-0.559
491.0,-4.254,-5.789,14.384,1.131,-0.193,-0.575
495.0,-4.254,-5.789,14.384,1.131,-0.193,-0.575
499.0,-4.254,-5.789,14.369,1.131,-0.193,-0.575
503.0,-4.292,-6.565,14.369,1.264,-0.264,-0.552
507.0,-4.292,-6.565,14.369,1.264,-0.264,-0.552
511.0,-4.381,-7.359,14.83,1.326,-0.28,-0.513
515.0,-4.381,-7.359,14.83,1.326,-0.28,-0.513
519.0,-4.851,-7.936,15.567,1.326,-0.28,-0.513
523.0,-4.851,-7.936,15.567,1.367,-0.266,-0.514
527.0,-4.851,-7.936,15.567,1.367,-0.266,-0.514
531.0,-5.554,-8.243,16.091,1.418,-0.285,-0.588
535.0,-5.554,-8.243,16.091,1.418,-0.285,-0.588
539.0,-6.019,-8.334,16.297,1.418,-0.285,-0.727
543.0,-6.019,-8.334,16.297,1.472,-0.362,-0.727
547.0,-6.019,-8.334,16.297,1.472,-0.362,-0.727
551.0,-5.758,-8.353,16.149,1.53,-0.479,-0.902
555.0,-5.758,-8.353,16.149,1.53,-0.479,-0.902
559.0,-4.894,-8.417,15.739,1.53,-0.586,-1.113
563.0,-4.894,-8.417,15.739,1.618,-0.586,-1.113
567.0,-4.894,-8.417,15.739,1.618,-0.586,-1.113
571.0,-4.074,-8.389,15.263,1.769,-0.654,-1.348
575.0,-4.074,-8.389,15.263,1.769,-0.654,-1.348
579.0,-3.543,-8.167,14.812,1.993,-0.703,-1.592
582.0,-3.543,-8.167,14.812,1.993,-0.703,-1.592
586.0,-3.543,-8.167,14.812,1.993,-0.703,-1.592
590.0,-3.182,-7.713,14.195,2.283,-0.749,-1.828
594.0,-3.182,-7.713,14.195,2.283,-0.749,-1.828
598.0,-2.993,-7.033,13.767,2.622,-0.797,-2.056
602.0,-2.993,-7.033,13.767,2.622,-0.797,-2.056
606.0,-2.993,-7.033,13.767,2.622,-0.797,-2.056
610.0,-3.249,-5.904,13.745,2.974,-0.881,-2.264
614.0,-3.249,-5.904,13.745,2.974,-0.881,-2.264
618.0,-3.554,-4.825,13.515,3.305,-1.034,-2.419
622.0,-3.554,-4.825,13.515,3.305,-1.034,-2.419
626.0,-3.554,-4.825,13.515,3.305,-1.034,-2.419
630.0,-3.52,-3.96,13.03,3.588,-1.236,-2.518
634.0,-3.52,-3.96,13.03,3.588,-1.236,-2.518
638.0,-3.166,-3.252,12.285,3.811,-1.44,-2.582
642.0,-3.166,-3.252,12.285,3.811,-1.44,-2.582
646.0,-3.166,-3.252,12.285,3.811,-1.44,-2.582
650.0,-2.691,-2.695,11.304,3.977,-1.614,-2.639
654.0,-2.691,-2.695,11.304,3.977,-1.614,-2.639
658.0,-2.388,-2.069,10.1,4.095,-1.758,-2.714
662.0,-2.388,-2.069,10.1,4.095,-1.758,-2.714
666.0,-2.388,-2.069,9.008,4.095,-1.758,-2.714
670.0,-2.131,-1.387,9.008,4.158,-1.877,-2.803
674.0,-2.131,-1.387,9.008,4.158,-1.877,-2.803
678.0,-1.823,-0.768,8.119,4.151,-1.977,-2.894
682.0,-1.823,-0.768,8.119,4.151,-1.977,-2.894
686.0,-1.823,-0.768,8.119,4.151,-1.977,-2.894
690.0,-1.601,-0.28,7.377,4.072,-2.069,-2.986
694.0,-1.601,-0.28,7.377,4.072,-2.069,-2.986
698.0,-1.509,0.181,6.634,3.938,-2.154,-3.081
701.0,-1.509,0.181,6.634,3.938,-2.154,-3.081
705.0,-1.509,0.181,6.634,3.938,-2.154,-3.081
709.0,-1.517,0.491,5.843,3.762,-2.227,-3.165
713.0,-1.517,0.491,5.843,3.762,-2.227,-3.165
717.0,-1.443,0.73,5.049,3.552,-2.297,-3.232
721.0,-1.443,0.73,5.049,3.552,-2.297,-3.232
724.0,-1.443,0.73,5.049,3.552,-2.297,-3.232
728.0,-1.155,0.59,4.116,3.32,-2.357,-3.296
732.0,-1.155,0.59,4.116,3.32,-2.357,-3.296
736.0,-0.747,0.217,3.248,3.32,-2.357,-3.296
740.0,-0.747,0.217,3.248,3.081,-2.382,-3.389
743.0,-0.747,0.217,3.248,3.081,-2.382,-3.389
747.0,-0.478,-0.092,2.442,2.854,-2.367,-3.509
751.0,-0.478,-0.092,2.442,2.854,-2.367,-3.509
755.0,-0.478,-0.092,2.442,2.854,-2.367,-3.509
759.0,-0.487,-0.286,1.731,2.648,-2.327,-3.629
763.0,-0.487,-0.286,1.731,2.648,-2.327,-3.629
767.0,-0.66,-0.337,1.106,2.467,-2.279,-3.723
771.0,-0.66,-0.337,1.106,2.467,-2.279,-3.723
775.0,-0.66,-0.337,1.106,2.467,-2.279,-3.723
779.0,-0.88,-0.185,0.569,2.31,-2.233,-3.766
782.0,-0.88,-0.185,0.569,2.31,-2.233,-3.766
786.0,-1.06,0.053,0.011,2.174,-2.194,-3.742
790.0,-1.06,0.053,0.011,2.174,-2.194,-3.742
794.0,-1.06,0.053,0.011,2.174,-2.194,-3.742
798.0,-1.081,0.291,-0.579,2.046,-2.157,-3.654
802.0,-1.081,0.291,-0.579,2.046,-2.157,-3.654
806.0,-1.01,0.452,-1.122,1.907,-2.118,-3.526
809.0,-1.01,0.452,-1.122,1.907,-2.118,-3.526
813.0,-1.01,0.452,-1.122,1.907,-2.118,-3.526
817.0,-0.913,0.617,-1.479,1.736,-2.078,-3.39
821.0,-0.913,0.617,-1.479,1.736,-2.078,-3.39
825.0,-0.784,0.785,-1.747,1.736,-2.032,-3.273
829.0,-0.784,0.785,-1.747,1.519,-2.032,-3.273
833.0,-0.784,0.785,-1.747,1.519,-2.032,-3.273
837.0,-0.638,1.024,-1.861,1.258,-1.968,-3.186
841.0,-0.638,1.024,-1.861,1.258,-1.968,-3.186
845.0,-0.529,1.181,-1.84,1.258,-1.968,-3.151
849.0,-0.529,1.181,-1.84,0.972,-1.881,-3.151
852.0,-0.529,1.181,-1.84,0.972,-1.881,-3.151
856.0,-0.878,1.665,-1.625,0.732,-1.777,-3.217
860.0,-0.878,1.665,-1.625,0.732,-1.777,-3.217
864.0,-1.568,2.824,-1.361,0.732,-1.777,-3.217
868.0,-1.568,2.824,-1.361,0.591,-1.677,-3.334
872.0,-1.568,2.824,-1.361,0.591,-1.677,-3.334
876.0,-2.093,4.375,-0.89,0.547,-1.589,-3.343
880.0,-2.093,4.375,-0.89,0.547,-1.589,-3.343
884.0,-2.093,5.666,-0.424,0.547,-1.589,-3.343
888.0,-2.339,5.666,-0.424,0.589,-1.489,-3.155
892.0,-2.339,5.666,-0.424,0.589,-1.489,-3.155
895.0,-2.429,6.549,0.136,0.704,-1.356,-2.811
899.0,-2.429,6.549,0.136,0.704,-1.356,-2.811
903.0,-2.429,6.549,0.136,0.704,-1.356,-2.811
907.0,-2.453,7.239,0.985,0.876,-1.196,-2.424
911.0,-2.453,7.239,0.985,0.876,-1.196,-2.424
915.0,-2.545,7.769,2.151,1.096,-1.017,-2.069
918.0,-2.545,7.769,2.151,1.096,-1.017,-2.069
922.0,-2.545,7.769,2.151,1.096,-1.017,-2.069
926.0,-2.402,8.476,3.573,1.313,-0.828,-1.753
930.0,-2.402,8.476,3.573,1.313,-0.828,-1.753
934.0,-2.142,9.443,5.584,1.313,-0.625,-1.477
937.0,-2.142,9.443,5.584,1.457,-0.625,-1.477
941.0,-2.142,9.443,5.584,1.457,-0.625,-1.477
945.0,-2.597,10.924,7.785,1.475,-0.446,-1.283
949.0,-2.597,10.924,7.785,1.475,-0.446,-1.283
953.0,-3.334,12.629,9.108,1.475,-0.446,-1.283
957.0,-3.334,12.629,9.108,1.321,-0.326,-1.158
961.0,-3.334,12.629,9.108,1.321,-0.326,-1.158
965.0,-3.479,14.268,9.594,0.983,-0.259,-1.061
969.0,-3.479,14.268,9.594,0.983,-0.259,-1.061
972.0,-3.479,14.268,9.492,0.983,-0.259,-1.061
976.0,-2.77,15.564,9.492,0.525,-0.203,-0.964
980.0,-2.77,15.564,9.492,0.525,-0.203,-0.964
984.0,-2.249,16.554,9.45,0.001,-0.088,-0.883
988.0,-2.249,16.554,9.45,0.001,-0.088,-0.883
992.0,-2.249,16.554,9.45,0.001,-0.088,-0.883
996.0,-1.979,16.744,9.712,-0.539,0.057,-0.8
1000.0,-1.979,16.744,9.712,-0.539,0.057,-0.8
1004.0,-1.573,16.013,10.467,-1.006,0.198,-0.725
1008.0,-1.573,16.013,10.467,-1.006,0.198,-0.725
1012.0,-1.573,16.013,11.533,-1.006,0.198,-0.725
1016.0,-1.195,14.804,11.533,-1.292,0.336,-0.733
1020.0,-1.195,14.804,11.533,-1.292,0.336,-0.733
1024.0,-1.331,13.676,12.794,-1.319,0.46,-0.827
1028.0,-1.331,13.676,12.794,-1.319,0.46,-0.827
1032.0,-1.966,12.687,13.963,-1.319,0.539,-0.905
1036.0,-1.966,12.687,13.963,-1.084,0.539,-0.905
1040.0,-1.966,12.687,13.963,-1.084,0.539,-0.905
1045.0,-2.737,11.783,14.449,-0.654,0.566,-0.895
1049.0,-2.737,11.783,14.449,-0.654,0.566,-0.895
1053.0,-3.281,11.022,14.127,-0.125,0.55,-0.766
1057.0,-3.281,11.022,14.127,-0.125,0.55,-0.766
1061.0,-3.281,11.022,14.127,-0.125,0.55,-0.766
1065.0,-3.367,10.219,13.365,0.376,0.509,-0.507
1069.0,-3.367,10.219,13.365,0.376,0.509,-0.507
1073.0,-2.927,9.52,12.562,0.746,0.468,-0.186
1077.0,-2.927,9.52,12.562,0.746,0.468,-0.186
1081.0,-2.927,9.52,12.562,0.746,0.468,-0.186
1085.0,-2.247,9.028,12.171,0.963,0.451,0.097
1088.0,-2.247,9.028,12.171,0.963,0.451,0.097
1092.0,-2.11,8.804,11.876,1.056,0.443,0.309
1096.0,-2.11,8.804,11.876,1.056,0.443,0.309
1100.0,-2.11,8.804,11.876,1.056,0.443,0.309
1104.0,-2.249,8.882,11.386,1.058,0.419,0.504
1108.0,-2.249,8.882,11.386,1.058,0.419,0.504
1111.0,-2.104,8.874,10.947,1.058,0.381,0.74
1115.0,-2.104,8.874,10.947,0.976,0.381,0.74
1119.0,-2.104,8.874,10.947,0.976,0.381,0.74
1123.0,-2.051,8.824,10.348,0.827,0.352,0.998
1127.0,-2.051,8.824,10.348,0.827,0.352,0.998
1130.0,-2.051,8.736,9.66,0.827,0.352,0.998
1134.0,-2.219,8.736,9.66,0.65,0.35,1.22
1138.0,-2.219,8.736,9.66,0.65,0.35,1.22
1142.0,-2.237,8.545,9.279,0.478,0.374,1.378
1145.0,-2.237,8.545,9.279,0.478,0.374,1.378
1149.0,-2.237,8.545,9.279,0.478,0.374,1.378
1153.0,-2.341,8.356,9.091,0.353,0.42,1.464
1157.0,-2.341,8.356,9.091,0.353,0.42,1.464
1160.0,-2.798,8.59,9.014,0.353,0.42,1.464
1164.0,-2.798,8.59,9.014,0.328,0.488,1.479
1168.0,-2.798,8.59,9.014,0.328,0.488,1.479
1172.0,-3.385,9.151,8.851,0.425,0.577,1.466
1175.0,-3.385,9.151,8.851,0.425,0.577,1.466
1179.0,-3.385,9.151,8.851,0.425,0.577,1.466
1183.0,-3.98,9.955,8.618,0.609,0.705,1.488
1186.0,-3.98,9.955,8.618,0.609,0.705,1.488
1190.0,-4.624,10.885,8.293,0.609,0.878,1.572
1194.0,-4.624,10.885,8.293,0.835,0.878,1.572
1198.0,-4.624,10.885,8.293,0.835,0.878,1.572
1202.0,-5.339,11.871,8.072,1.058,1.077,1.718
1205.0,-5.339,11.871,8.072,1.058,1.077,1.718
1209.0,-5.339,11.871,7.996,1.058,1.077,1.718
1213.0,-6.044,12.667,7.996,1.226,1.275,1.919
1217.0,-6.044,12.667,7.996,1.226,1.275,1.919
1221.0,-6.548,13.248,8.224,1.298,1.461,2.151
1225.0,-6.548,13.248,8.224,1.298,1.461,2.151
1228.0,-6.548,13.248,8.224,1.298,1.461,2.151
1232.0,-7.115,13.656,8.627,1.277,1.61,2.389
1236.0,-7.115,13.656,8.627,1.277,1.61,2.389
1240.0,-7.845,13.849,8.886,1.17,1.692,2.659
1244.0,-7.845,13.849,8.886,1.17,1.692,2.659
1248.0,-7.845,13.849,8.886,1.17,1.692,2.659
1251.0,-8.67,13.851,8.731,1.002,1.714,3.001
1255.0,-8.67,13.851,8.731,1.002,1.714,3.001
1259.0,-9.751,13.723,8.225,1.002,1.714,3.001
1263.0,-9.751,13.723,8.225,0.788,1.697,3.429
1267.0,-9.751,13.723,8.225,0.788,1.697,3.429
1270.0,-10.905,13.523,7.372,0.53,1.645,3.935
1274.0,-10.905,13.523,7.372,0.53,1.645,3.935
1278.0,-10.905,13.523,7.372,0.53,1.645,3.935
1282.0,-11.816,13.137,6.693,0.237,1.557,4.491
1286.0,-11.816,13.137,6.693,0.237,1.557,4.491
1290.0,-12.53,12.513,6.218,-0.048,1.424,4.94
1294.0,-12.53,12.513,6.218,-0.048,1.424,4.94
1298.0,-12.53,12.513,6.218,-0.048,1.424,4.94
1302.0,-12.892,11.829,5.98,-0.286,1.247,5.013
1306.0,-12.892,11.829,5.98,-0.286,1.247,5.013
1310.0,-12.815,10.993,5.76,-0.464,1.039,5.013
1314.0,-12.815,10.993,5.76,-0.464,1.039,5.013
1318.0,-12.815,10.993,5.718,-0.464,1.039,5.013
1322.0,-12.507,10.12,5.718,-0.591,0.832,5.013
1326.0,-12.507,10.12,5.718,-0.591,0.832,5.013
1330.0,-12.331,9.013,5.914,-0.677,0.644,5.013
1334.0,-12.331,9.013,5.914,-0.677,0.644,5.013
1338.0,-12.331,7.682,6.193,-0.677,0.644,5.013
1342.0,-12.375,7.682,6.193,-0.734,0.457,5.013
1346.0,-12.375,7.682,6.193,-0.734,0.457,5.013
1349.0,-12.377,6.334,6.142,-0.78,0.244,5.013
1353.0,-12.377,6.334,6.142,-0.78,0.244,5.013
1357.0,-12.377,6.334,5.694,-0.78,0.244,5.013
1361.0,-12.089,5.189,5.694,-0.842,0.013,5.013
1365.0,-12.089,5.189,5.694,-0.842,0.013,5.013
1369.0,-11.445,4.284,4.993,-0.935,-0.211,5.013
1373.0,-11.445,4.284,4.993,-0.935,-0.211,5.013
1377.0,-11.445,4.284,4.993,-0.935,-0.211,5.013
1381.0,-10.589,3.714,4.19,-1.053,-0.419,5.013
1385.0,-10.589,3.714,4.19,-1.053,-0.419,5.013
1389.0,-9.835,3.34,3.243,-1.192,-0.599,5.013
1393.0,-9.835,3.34,3.243,-1.192,-0.599,5.013
1397.0,-9.835,3.34,2.42,-1.192,-0.599,5.013
1401.0,-9.316,2.917,2.42,-1.327,-0.72,5.013
1405.0,-9.316,2.917,2.42,-1.327,-0.72,5.013
1408.0,-8.718,2.283,1.682,-1.443,-0.769,5.013
1412.0,-8.718,2.283,1.682,-1.443,-0.769,5.013
1416.0,-8.718,2.283,1.682,-1.443,-0.769,5.013
1420.0,-7.983,1.567,1.422,-1.527,-0.756,5.013
1424.0,-7.983,1.567,1.422,-1.527,-0.756,5.013
1428.0,-7.071,0.691,1.367,-1.549,-0.711,5.013
1432.0,-7.071,0.691,1.367,-1.549,-0.711,5.013
1436.0,-7.071,0.691,1.367,-1.549,-0.711,5.013
1440.0,-6.109,0.065,1.426,-1.518,-0.628,5.013
1444.0,-6.109,0.065,1.426,-1.518,-0.628,5.013
1448.0,-5.07,-0.345,1.357,-1.471,-0.494,5.013
1452.0,-5.07,-0.345,1.357,-1.471,-0.494,5.013
1455.0,-5.07,-0.345,1.357,-1.471,-0.494,5.013
1459.0,-3.977,-0.929,1.061,-1.446,-0.287,5.013
1463.0,-3.977,-0.929,1.061,-1.446,-0.287,5.013
1467.0,-2.742,-1.56,0.882,-1.446,0.005,5.013
1471.0,-2.742,-1.56,0.882,-1.446,0.005,5.013
1475.0,-2.742,-1.56,0.882,-1.446,0.005,5.013
1479.0,-1.455,-2.023,1.137,-1.444,0.38,5.013
1483.0,-1.455,-2.023,1.137,-1.444,0.38,5.013
1487.0,-0.415,-2.598,1.863,-1.423,0.805,5.013
1491.0,-0.415,-2.598,1.863,-1.423,0.805,5.013
1495.0,-0.415,-2.598,1.863,-1.423,0.805,5.013
1499.0,0.349,-3.352,2.487,-1.397,1.249,5.013
1503.0,0.349,-3.352,2.487,-1.397,1.249,5.013
1506.0,0.758,-3.96,3.933,-1.36,1.723,5.013
1510.0,0.758,-3.96,3.933,-1.36,1.723,5.013
1514.0,0.758,-3.96,3.933,-1.36,1.723,5.013
1518.0,0.741,-5.23,6.436,-1.306,2.129,5.013
1522.0,0.741,-5.23,6.436,-1.306,2.129,5.013
1525.0,0.192,-6.812,8.724,-1.306,2.129,5.013
1529.0,0.192,-6.812,8.724,-1.245,2.315,5.013
1533.0,0.192,-6.812,8.724,-1.245,2.315,5.013
1537.0,-0.726,-8.437,8.977,-1.175,2.2,5.013
1541.0,-0.726,-8.437,8.977,-1.175,2.2,5.013
1545.0,-0.726,-8.437,8.977,-1.175,2.2,5.013
1549.0,-1.677,-9.711,7.431,-1.098,1.828,5.013
1553.0,-1.677,-9.711,7.431,-1.098,1.828,5.013
1556.0,-2.799,-10.142,5.344,-1.017,1.34,5.013
1560.0,-2.799,-10.142,5.344,-1.017,1.34,5.013
1564.0,-2.799,-10.142,5.344,-1.017,1.34,5.013
1568.0,-3.952,-10.21,4.128,-0.929,0.818,5.013
1572.0,-3.952,-10.21,4.128,-0.929,0.818,5.013
1576.0,-4.048,-10.764,4.446,-0.797,0.228,5.011
1580.0,-4.048,-10.764,4.446,-0.797,0.228,5.011
1584.0,-4.048,-10.764,5.162,-0.797,0.228,5.011
1588.0,-2.531,-11.738,5.162,-0.553,-0.464,4.88
1592.0,-2.531,-11.738,5.162,-0.553,-0.464,4.88
1597.0,-0.296,-12.091,5.134,-0.173,-1.142,4.531
1601.0,-0.296,-12.091,5.134,-0.173,-1.142,4.531
1605.0,2.07,-11.846,4.621,-0.173,-1.142,4.208
1609.0,2.07,-11.846,4.621,0.268,-1.619,4.208
1613.0,2.07,-11.846,4.621,0.268,-1.619,4.208
1617.0,4.759,-11.457,4.381,0.725,-1.827,3.95
1620.0,4.759,-11.457,4.381,0.725,-1.827,3.95
1624.0,7.945,-11.015,4.479,0.725,-1.827,3.95
1628.0,7.945,-11.015,4.479,1.181,-1.826,3.718
1632.0,7.945,-11.015,4.479,1.181,-1.826,3.718
1636.0,11.441,-10.686,4.58,1.568,-1.654,3.513
1640.0,11.441,-10.686,4.58,1.568,-1.654,3.513
1644.0,13.598,-10.836,5.353,1.568,-1.654,3.513
1648.0,13.598,-10.836,5.353,1.81,-1.325,3.218
1652.0,13.598,-10.836,5.353,1.81,-1.325,3.218
1656.0,12.842,-10.601,5.824,1.897,-0.96,2.719
1660.0,12.842,-10.601,5.824,1.897,-0.96,2.719
1664.0,9.675,-10.066,6.205,1.897,-0.96,2.184
1668.0,9.675,-10.066,6.205,1.774,-0.625,2.184
1672.0,9.675,-10.066,6.205,1.774,-0.625,2.184
1676.0,6.36,-9.601,6.558,1.488,-0.361,1.708
1680.0,6.36,-9.601,6.558,1.488,-0.361,1.708
1683.0,4.323,-8.937,6.799,1.488,-0.361,1.708
1687.0,4.323,-8.937,6.799,1.117,-0.248,1.262
1691.0,4.323,-8.937,6.799,1.117,-0.248,1.262
1695.0,3.48,-8.182,6.708,0.677,-0.282,0.893
1699.0,3.48,-8.182,6.708,0.677,-0.282,0.893
1702.0,3.48,-8.182,6.708,0.677,-0.282,0.893
1706.0,4.022,-7.677,5.812,0.178,-0.394,0.64
1710.0,4.022,-7.677,5.812,0.178,-0.394,0.64
1714.0,5.536,-7.393,4.975,-0.363,-0.461,0.476
1718.0,5.536,-7.393,4.975,-0.363,-0.461,0.476
1722.0,5.536,-7.393,4.975,-0.363,-0.461,0.476
1726.0,6.813,-7.632,5.225,-0.897,-0.389,0.383
1730.0,6.813,-7.632,5.225,-0.897,-0.389,0.383
1733.0,6.896,-8.409,6.064,-1.35,-0.223,0.321
1737.0,6.896,-8.409,6.064,-1.35,-0.223,0.321
1741.0,6.896,-8.409,6.064,-1.35,-0.223,0.321
1745.0,6.208,-9.139,6.342,-1.633,-0.067,0.155
1749.0,6.208,-9.139,6.342,-1.633,-0.067,0.155
1753.0,5.997,-9.089,6.3,-1.633,0.05,-0.143
1757.0,5.997,-9.089,6.3,-1.718,0.05,-0.143
1761.0,5.997,-9.089,6.3,-1.718,0.05,-0.143
1765.0,6.299,-8.632,6.617,-1.661,0.208,-0.376
1769.0,6.299,-8.632,6.617,-1.661,0.208,-0.376
1773.0,6.404,-8.49,7.195,-1.661,0.208,-0.432
1776.0,6.404,-8.49,7.195,-1.496,0.452,-0.432
1780.0,6.404,-8.49,7.195,-1.496,0.452,-0.432
1784.0,5.891,-8.587,8.024,-1.237,0.725,-0.396
1788.0,5.891,-8.587,8.024,-1.237,0.725,-0.396
1792.0,4.999,-8.722,8.879,-1.237,0.725,-0.396
1796.0,4.999,-8.722,8.879,-0.92,0.934,-0.307
1800.0,4.999,-8.722,8.879,-0.92,0.934,-0.307
1804.0,4.074,-8.851,9.343,-0.58,1.037,-0.172
1808.0,4.074,-8.851,9.343,-0.58,1.037,-0.172
1812.0,4.074,-8.715,9.381,-0.58,1.037,-0.172
1815.0,3.447,-8.715,9.381,-0.236,1.047,-0.035
1819.0,3.447,-8.715,9.381,-0.236,1.047,-0.035
1823.0,3.169,-8.212,9.189,0.085,0.994,0.097
1827.0,3.169,-8.212,9.189,0.085,0.994,0.097
1831.0,3.169,-8.212,9.189,0.085,0.994,0.097
1834.0,3.207,-7.491,8.687,0.345,0.918,0.221
1838.0,3.207,-7.491,8.687,0.345,0.918,0.221
1842.0,3.44,-6.703,8.306,0.52,0.862,0.332
1846.0,3.44,-6.703,8.306,0.52,0.862,0.332
1849.0,3.44,-6.703,8.306,0.52,0.862,0.332
1853.0,3.747,-5.996,8.112,0.612,0.844,0.426
1857.0,3.747,-5.996,8.112,0.612,0.844,0.426
1861.0,3.747,-5.996,8.112,0.612,0.844,0.426
1864.0,4.171,-5.374,8.107,0.625,0.842,0.502
1868.0,4.171,-5.374,8.107,0.625,0.842,0.502
1872.0,4.51,-4.938,8.246,0.572,0.847,0.568
1876.0,4.51,-4.938,8.246,0.572,0.847,0.568
1879.0,4.51,-4.938,8.246,0.572,0.847,0.568
1883.0,4.664,-4.699,8.233,0.467,0.848,0.623
1887.0,4.664,-4.699,8.233,0.467,0.848,0.623
1890.0,4.664,-4.699,8.018,0.467,0.848,0.623
1894.0,4.613,-4.636,8.018,0.334,0.85,0.671
1898.0,4.613,-4.636,8.018,0.334,0.85,0.671
1902.0,4.32,-4.758,7.78,0.193,0.863,0.701
1905.0,4.32,-4.758,7.78,0.193,0.863,0.701
1909.0,4.32,-4.758,7.78,0.193,0.863,0.701
1913.0,3.764,-4.993,7.566,0.07,0.873,0.706
1917.0,3.764,-4.993,7.566,0.07,0.873,0.706
1920.0,3.115,-5.307,7.229,0.07,0.873,0.706
1924.0,3.115,-5.307,7.229,-0.015,0.861,0.683
1928.0,3.115,-5.307,7.229,-0.015,0.861,0.683
1932.0,2.45,-5.588,6.853,-0.052,0.837,0.635
1936.0,2.45,-5.588,6.853,-0.052,0.837,0.635
1939.0,2.45,-5.588,6.853,-0.052,0.837,0.635
1943.0,1.995,-5.704,6.246,-0.048,0.802,0.57
1947.0,1.995,-5.704,6.246,-0.048,0.802,0.57
1951.0,1.628,-5.607,5.682,-0.024,0.779,0.488
1955.0,1.628,-5.607,5.682,-0.024,0.779,0.488
1958.0,1.628,-5.607,5.682,-0.024,0.779,0.488
1962.0,1.392,-5.411,5.275,0.003,0.772,0.407
1966.0,1.392,-5.411,5.275,0.003,0.772,0.407
1970.0,1.323,-5.209,5.054,0.003,0.772,0.407
1973.0,1.323,-5.209,5.054,0.03,0.767,0.342
1977.0,1.323,-5.209,5.054,0.03,0.767,0.342
1981.0,1.406,-4.996,4.852,0.056,0.755,0.292
1985.0,1.406,-4.996,4.852,0.056,0.755,0.292
1988.0,1.406,-4.996,4.852,0.056,0.755,0.292
1992.0,1.414,-4.779,4.574,0.087,0.731,0.241
1996.0,1.414,-4.779,4.574,0.087,0.731,0.241
2000.0,1.327,-4.588,4.115,0.087,0.731,0.184
2003.0,1.327,-4.588,4.115,0.118,0.696,0.184
2007.0,1.327,-4.588,4.115,0.118,0.696,0.184
2011.0,1.144,-4.403,3.586,0.147,0.678,0.127
2015.0,1.144,-4.403,3.586,0.147,0.678,0.127
2018.0,1.144,-4.403,3.586,0.147,0.678,0.127
2022.0,0.916,-4.264,3.117,0.175,0.691,0.07
2026.0,0.916,-4.264,3.117,0.175,0.691,0.07
2029.0,0.731,-4.13,2.83,0.21,0.728,0.018
2033.0,0.731,-4.13,2.83,0.21,0.728,0.018
2037.0,0.731,-4.13,2.83,0.21,0.728,0.018
2041.0,0.659,-4.029,2.847,0.252,0.777,-0.018
2044.0,0.659,-4.029,2.847,0.252,0.777,-0.018
2048.0,0.659,-4.029,2.836,0.252,0.777,-0.018
2052.0,0.74,-4.017,2.836,0.296,0.826,-0.023
2056.0,0.74,-4.017,2.836,0.296,0.826,-0.023
2060.0,0.916,-4.022,2.745,0.345,0.865,-0.017
2064.0,0.916,-4.022,2.745,0.345,0.865,-0.017
2067.0,0.916,-4.022,2.745,0.345,0.865,-0.017
2071.0,0.95,-4.003,2.709,0.408,0.911,-0.02
2075.0,0.95,-4.003,2.709,0.408,0.911,-0.02
2079.0,0.88,-3.967,2.618,0.485,0.959,-0.022
2083.0,0.88,-3.967,2.618,0.485,0.959,-0.022
2086.0,0.88,-3.967,2.618,0.485,0.959,-0.022
2090.0,0.745,-3.921,2.441,0.572,1.003,-0.019
2094.0,0.745,-3.921,2.441,0.572,1.003,-0.019
2098.0,0.538,-3.843,2.451,0.572,1.003,-0.019
2102.0,0.538,-3.843,2.451,0.669,1.059,-0.026
2106.0,0.538,-3.843,2.451,0.669,1.059,-0.026
2109.0,0.328,-3.752,2.594,0.774,1.116,-0.04
2113.0,0.328,-3.752,2.594,0.774,1.116,-0.04
2117.0,0.328,-3.752,2.594,0.774,1.116,-0.04
2121.0,0.293,-3.706,2.675,0.879,1.149,-0.042
2125.0,0.293,-3.706,2.675,0.879,1.149,-0.042
2128.0,0.437,-3.632,2.716,0.981,1.177,-0.036
2132.0,0.437,-3.632,2.716,0.981,1.177,-0.036
2136.0,0.437,-3.632,2.716,0.981,1.177,-0.036
2140.0,0.632,-3.565,2.888,1.086,1.238,-0.021
2144.0,0.632,-3.565,2.888,1.086,1.238,-0.021
2148.0,0.803,-3.549,3.18,1.086,1.238,0.015
2151.0,0.803,-3.549,3.18,1.19,1.334,0.015
2155.0,0.803,-3.549,3.18,1.19,1.334,0.015
2159.0,0.811,-3.592,3.587,1.297,1.455,0.072
2163.0,0.811,-3.592,3.587,1.297,1.455,0.072
2166.0,0.811,-3.592,3.587,1.297,1.455,0.072
2170.0,0.522,-3.681,4.162,1.413,1.592,0.139
2174.0,0.522,-3.681,4.162,1.413,1.592,0.139
2177.0,0.007,-3.941,4.8,1.413,1.727,0.215
2181.0,0.007,-3.941,4.8,1.54,1.727,0.215
2185.0,0.007,-3.941,4.8,1.54,1.727,0.215
2189.0,-0.66,-4.304,5.359,1.68,1.861,0.293
2192.0,-0.66,-4.304,5.359,1.68,1.861,0.293
2196.0,-0.66,-4.304,5.78,1.68,1.861,0.293
2200.0,-1.372,-4.662,5.78,1.834,2.006,0.364
2204.0,-1.372,-4.662,5.78,1.834,2.006,0.364
2208.0,-2.177,-4.901,5.917,1.996,2.183,0.425
2212.0,-2.177,-4.901,5.917,1.996,2.183,0.425
2215.0,-2.177,-4.901,5.917,1.996,2.183,0.425
2219.0,-3.349,-4.869,5.763,2.161,2.401,0.496
2223.0,-3.349,-4.869,5.763,2.161,2.401,0.496
2227.0,-4.911,-4.577,5.416,2.161,2.659,0.592
2231.0,-4.911,-4.577,5.416,2.312,2.659,0.592
2234.0,-4.911,-4.577,5.416,2.312,2.659,0.592
2238.0,-6.104,-4.273,5.222,2.447,2.959,0.714
2242.0,-6.104,-4.273,5.222,2.447,2.959,0.714
2246.0,-6.104,-3.782,5.837,2.447,2.959,0.714
2250.0,-6.671,-3.782,5.837,2.611,3.269,0.871
2254.0,-6.671,-3.782,5.837,2.611,3.269,0.871
2257.0,-6.894,-3.357,7.205,2.862,3.509,1.068
2261.0,-6.894,-3.357,7.205,2.862,3.509,1.068
2265.0,-6.894,-3.357,7.205,2.862,3.509,1.068
2269.0,-6.636,-2.842,7.878,3.207,3.663,1.271
2273.0,-6.636,-2.842,7.878,3.207,3.663,1.271
2276.0,-5.999,-2.358,7.834,3.633,3.855,1.435
2280.0,-5.999,-2.358,7.834,3.633,3.855,1.435
2284.0,-5.999,-2.358,7.834,3.633,3.855,1.435
2288.0,-5.393,-1.877,7.193,4.113,4.143,1.507
2292.0,-5.393,-1.877,7.193,4.113,4.143,1.507
2296.0,-5.295,-1.429,6.412,4.113,4.143,1.458
2299.0,-5.295,-1.429,6.412,4.623,4.505,1.458
2303.0,-5.295,-1.429,6.412,4.623,4.505,1.458
2307.0,-7.001,-0.893,7.731,4.963,4.848,1.327
2311.0,-7.001,-0.893,7.731,4.963,4.848,1.327
2315.0,-7.001,-0.893,7.731,4.963,4.848,1.327
2319.0,-9.574,-0.266,8.588,4.995,4.899,1.179
2322.0,-9.574,-0.266,8.588,4.995,4.899,1.179
2326.0,-11.04,0.403,7.025,4.995,4.703,1.034
2330.0,-11.04,0.403,7.025,4.995,4.703,1.034
2334.0,-11.04,0.403,7.025,4.995,4.703,1.034
2338.0,-11.931,1.863,4.568,4.995,4.593,0.813
2341.0,-11.931,1.863,4.568,4.995,4.593,0.813
2345.0,-12.266,3.294,2.897,4.995,4.689,0.544
2349.0,-12.266,3.294,2.897,4.995,4.689,0.544
2353.0,-12.266,3.294,2.897,4.995,4.689,0.544
2357.0,-11.513,4.068,2.599,4.995,4.883,0.228
2361.0,-11.513,4.068,2.599,4.995,4.883,0.228
2364.0,-11.513,4.524,3.097,4.995,4.883,0.228
2368.0,-10.744,4.524,3.097,4.995,5.006,-0.156
2372.0,-10.744,4.524,3.097,4.995,5.006,-0.156
2376.0,-10.952,4.978,3.666,4.995,5.015,-0.544
2380.0,-10.952,4.978,3.666,4.995,5.015,-0.544
2384.0,-10.952,4.978,3.666,4.995,5.015,-0.544
2388.0,-11.981,5.378,3.734,4.995,5.015,-0.845
2392.0,-11.981,5.378,3.734,4.995,5.015,-0.845
2396.0,-13.26,5.59,3.564,4.995,5.015,-1.048
2399.0,-13.26,5.59,3.564,4.995,5.015,-1.048
2403.0,-13.26,5.59,3.564,4.995,5.015,-1.048
2407.0,-14.646,5.794,3.118,4.987,5.015,-1.21
2411.0,-14.646,5.794,3.118,4.987,5.015,-1.21
2415.0,-16.167,5.938,2.437,4.856,5.014,-1.331
2419.0,-16.167,5.938,2.437,4.856,5.014,-1.331
2423.0,-16.167,5.938,2.437,4.856,5.014,-1.331
2427.0,-17.785,5.868,1.876,4.59,4.932,-1.397
2431.0,-17.785,5.868,1.876,4.59,4.932,-1.397
2435.0,-19.233,5.454,1.485,4.284,4.713,-1.435
2438.0,-19.233,5.454,1.485,4.284,4.713,-1.435
2442.0,-19.233,5.454,1.485,4.284,4.713,-1.435
2446.0,-19.6,4.924,1.396,3.984,4.474,-1.498
2450.0,-19.6,4.924,1.396,3.984,4.474,-1.498
2454.0,-19.35,4.457,1.683,3.723,4.257,-1.63
2458.0,-19.35,4.457,1.683,3.723,4.257,-1.63
2462.0,-19.35,4.457,1.683,3.723,4.257,-1.63
2466.0,-17.895,4.239,2.017,3.525,4.07,-1.838
2470.0,-17.895,4.239,2.017,3.525,4.07,-1.838
2474.0,-16.665,4.367,1.978,3.525,3.915,-2.062
2478.0,-16.665,4.367,1.978,3.386,3.915,-2.062
2481.0,-16.665,4.367,1.978,3.386,3.915,-2.062
2485.0,-16.156,4.68,1.741,3.279,3.799,-2.226
2489.0,-16.156,4.68,1.741,3.279,3.799,-2.226
2493.0,-15.975,4.924,1.467,3.279,3.799,-2.315
2497.0,-15.975,4.924,1.467,3.176,3.698,-2.315
2501.0,-15.975,4.924,1.467,3.176,3.698,-2.315
2505.0,-15.797,5.117,1.328,3.059,3.583,-2.351
2509.0,-15.797,5.117,1.328,3.059,3.583,-2.351
2513.0,-15.239,5.296,1.21,3.059,3.583,-2.351
2517.0,-15.239,5.296,1.21,2.935,3.452,-2.375
2521.0,-15.239,5.296,1.21,2.935,3.452,-2.375
2524.0,-14.615,5.534,1.119,2.766,3.29,-2.408
2528.0,-14.615,5.534,1.119,2.766,3.29,-2.408
2532.0,-14.615,5.594,1.041,2.766,3.29,-2.408
2536.0,-14.082,5.594,1.041,2.516,3.113,-2.448
2540.0,-14.082,5.594,1.041,2.516,3.113,-2.448
2544.0,-13.58,5.535,0.971,2.225,2.941,-2.496
2548.0,-13.58,5.535,0.971,2.225,2.941,-2.496
2552.0,-13.58,5.535,1.451,2.225,2.941,-2.496
2556.0,-13.316,5.246,1.451,1.897,2.746,-2.522
2560.0,-13.316,5.246,1.451,1.897,2.746,-2.522
2563.0,-12.602,4.915,0.68,1.529,2.525,-2.527
2567.0,-12.602,4.915,0.68,1.529,2.525,-2.527
2571.0,-12.602,4.915,0.68,1.529,2.525,-2.527
2575.0,-12.083,4.619,0.607,1.13,2.353,-2.516
2579.0,-12.083,4.619,0.607,1.13,2.353,-2.516
2583.0,-11.649,4.259,0.516,0.683,2.191,-2.482
2587.0,-11.649,4.259,0.516,0.683,2.191,-2.482
2591.0,-11.649,4.259,0.516,0.683,2.191,-2.482
2595.0,-11.054,3.949,0.413,0.222,2.066,-2.419
2599.0,-11.054,3.949,0.413,0.222,2.066,-2.419
2603.0,-10.414,3.68,0.599,-0.219,1.979,-2.324
2607.0,-10.414,3.68,0.599,-0.219,1.979,-2.324
2611.0,-10.414,3.68,0.599,-0.219,1.979,-2.324
2615.0,-9.887,3.398,0.881,-0.619,1.91,-2.223
2618.0,-9.887,3.398,0.881,-0.619,1.91,-2.223
2622.0,-9.45,3.251,1.196,-0.956,1.858,-2.14
2626.0,-9.45,3.251,1.196,-0.956,1.858,-2.14
2630.0,-9.45,3.251,1.196,-0.956,1.858,-2.14
2634.0,-9.014,3.257,1.445,-1.205,1.809,-2.088
2638.0,-9.014,3.257,1.445,-1.205,1.809,-2.088
2642.0,-8.518,3.435,1.541,-1.364,1.745,-2.058
2646.0,-8.518,3.435,1.541,-1.364,1.745,-2.058
2650.0,-8.518,3.435,1.541,-1.364,1.745,-2.058
2654.0,-7.915,3.652,1.514,-1.454,1.661,-2.019
2657.0,-7.915,3.652,1.514,-1.454,1.661,-2.019
2661.0,-7.262,3.785,1.437,-1.507,1.559,-1.951
2665.0,-7.262,3.785,1.437,-1.507,1.559,-1.951
2669.0,-7.262,3.785,1.437,-1.507,1.559,-1.951
2673.0,-6.623,3.869,1.304,-1.542,1.457,-1.857
2677.0,-6.623,3.869,1.304,-1.542,1.457,-1.857
2681.0,-5.974,3.937,1.136,-1.542,1.371,-1.751
2685.0,-5.974,3.937,1.136,-1.564,1.371,-1.751
2689.0,-5.974,3.937,1.136,-1.564,1.371,-1.751
2693.0,-5.372,4.474,0.935,-1.589,1.31,-1.643
2697.0,-5.372,4.474,0.935,-1.589,1.31,-1.643
2700.0,-4.908,4.107,1.032,-1.589,1.31,-1.552
2704.0,-4.908,4.107,1.032,-1.626,1.268,-1.552
2708.0,-4.908,4.107,1.032,-1.626,1.268,-1.552
2712.0,-4.484,4.057,0.943,-1.628,1.226,-1.494
2716.0,-4.484,4.057,0.943,-1.628,1.226,-1.494
2720.0,-4.311,4.129,1.001,-1.628,1.226,-1.494
2724.0,-4.311,4.129,1.001,-1.618,1.196,-1.419
2728.0,-4.311,4.129,1.001,-1.618,1.196,-1.419
2732.0,-4.336,4.216,1.088,-1.598,1.18,-1.306
2736.0,-4.336,4.216,1.088,-1.598,1.18,-1.306
2740.0,-4.336,4.433,1.19,-1.598,1.18,-1.306
2743.0,-4.653,4.433,1.19,-1.567,1.176,-1.147
2747.0,-4.653,4.433,1.19,-1.567,1.176,-1.147
2751.0,-5.323,4.448,1.293,-1.526,1.176,-0.955
2755.0,-5.323,4.448,1.293,-1.526,1.176,-0.955
2759.0,-5.323,4.448,1.398,-1.526,1.176,-0.955
2763.0,-6.405,4.5,1.398,-1.472,1.164,-0.764
2767.0,-6.405,4.5,1.398,-1.472,1.164,-0.764
2771.0,-7.683,4.443,1.142,-1.407,1.117,-0.6
2775.0,-7.683,4.443,1.142,-1.407,1.117,-0.6
2779.0,-7.683,4.443,1.142,-1.407,1.117,-0.6
2782.0,-8.969,4.399,0.612,-1.338,1.036,-0.48
2786.0,-8.969,4.399,0.612,-1.338,1.036,-0.48
2790.0,-10.287,4.589,0.086,-1.281,0.936,-0.401
2794.0,-10.287,4.589,0.086,-1.281,0.936,-0.401
2798.0,-10.287,4.589,0.086,-1.281,0.936,-0.401
2802.0,-11.415,4.821,-0.189,-1.248,0.831,-0.341
2806.0,-11.415,4.821,-0.189,-1.248,0.831,-0.341
2810.0,-12.196,4.8,-0.206,-1.195,0.734,-0.282
2815.0,-12.196,4.8,-0.206,-1.195,0.734,-0.282
2819.0,-12.924,4.568,-0.164,-1.195,0.734,-0.282
2823.0,-12.924,4.568,-0.164,-1.138,0.638,-0.23
2827.0,-12.924,4.568,-0.164,-1.138,0.638,-0.23
2831.0,-13.813,4.341,-0.377,-1.11,0.546,-0.2
2835.0,-13.813,4.341,-0.377,-1.11,0.546,-0.2
2839.0,-15.681,4.576,-0.3,-1.099,0.473,-0.174
2843.0,-15.681,4.576,-0.3,-1.099,0.473,-0.174
2847.0,-15.681,4.576,-0.3,-1.099,0.473,-0.174
2851.0,-17.197,5.103,-0.592,-1.221,0.38,-0.175
2855.0,-17.197,5.103,-0.592,-1.221,0.38,-0.175
2859.0,-17.19,4.458,-1.685,-1.374,0.323,-0.16
2863.0,-17.19,4.458,-1.685,-1.374,0.323,-0.16
2868.0,-17.19,4.458,-1.707,-1.374,0.323,-0.16
2872.0,-17.611,4.167,-1.707,-1.349,0.345,-0.091
2876.0,-17.611,4.167,-1.707,-1.349,0.345,-0.091
2880.0,-18.06,3.944,-1.83,-1.312,0.389,-0.036
2884.0,-18.06,3.944,-1.83,-1.312,0.389,-0.036
2888.0,-18.319,3.601,-1.92,-1.312,0.389,-0.004
2892.0,-18.319,3.601,-1.92,-1.278,0.451,-0.004
2896.0,-18.319,3.601,-1.92,-1.278,0.451,-0.004
2900.0,-18.322,3.136,-1.755,-1.236,0.525,0.003
2904.0,-18.322,3.136,-1.755,-1.236,0.525,0.003
2908.0,-18.028,2.606,-1.376,-1.166,0.59,-0.005
2912.0,-18.028,2.606,-1.376,-1.166,0.59,-0.005
2916.0,-18.028,2.606,-1.376,-1.166,0.59,-0.005
2920.0,-17.572,2.18,-0.808,-1.058,0.629,-0.023
2924.0,-17.572,2.18,-0.808,-1.058,0.629,-0.023
2929.0,-17.71,1.98,-0.388,-0.914,0.625,-0.036
2933.0,-17.71,1.98,-0.388,-0.914,0.625,-0.036
2937.0,-17.71,1.98,-0.251,-0.914,0.625,-0.036
2941.0,-17.646,1.86,-0.251,-0.74,0.573,-0.02
2945.0,-17.646,1.86,-0.251,-0.74,0.573,-0.02
2949.0,-16.725,1.789,-0.169,-0.553,0.466,0.034
2953.0,-16.725,1.789,-0.169,-0.553,0.466,0.034
2957.0,-15.436,1.824,-0.263,-0.553,0.466,0.105
2961.0,-15.436,1.824,-0.263,-0.374,0.312,0.105
2965.0,-15.436,1.824,-0.263,-0.374,0.312,0.105
2969.0,-14.058,1.823,-0.546,-0.213,0.135,0.172
2973.0,-14.058,1.823,-0.546,-0.213,0.135,0.172
2977.0,-12.797,1.674,-1.254,-0.213,-0.041,0.204
2981.0,-12.797,1.674,-1.254,-0.074,-0.041,0.204
2985.0,-12.797,1.674,-1.254,-0.074,-0.041,0.204
2989.0,-11.841,1.614,-2.094,0.027,-0.186,0.182
2993.0,-11.841,1.614,-2.094,0.027,-0.186,0.182
2997.0,-11.048,1.635,-2.537,0.074,-0.275,0.122
