deltaTime,Acc_X,Acc_Y,Acc_Z,Gyro_X,Gyro_Y,Gyro_Z
0.0,-4.587,-4.305,7.688,0.134,-0.313,-0.06
3.0,-4.587,-4.305,7.688,0.134,-0.313,-0.06
6.0,-4.587,-4.305,7.688,0.134,-0.313,-0.06
9.0,-4.371,-4.551,7.545,0.152,-0.318,-0.054
12.0,-4.371,-4.551,7.545,0.152,-0.318,-0.054
15.0,-4.371,-4.551,7.545,0.152,-0.318,-0.054
18.0,-4.4,-4.735,7.46,0.19,-0.292,-0.034
21.0,-4.4,-4.735,7.46,0.19,-0.292,-0.034
24.0,-4.4,-4.735,7.46,0.19,-0.292,-0.034
27.0,-4.375,-4.882,7.46,0.239,-0.269,-0.03
30.0,-4.375,-4.882,7.46,0.239,-0.269,-0.03
33.0,-4.375,-4.882,7.46,0.239,-0.269,-0.03
37.0,-4.174,-4.926,7.603,0.285,-0.237,-0.047
41.0,-4.174,-4.926,7.603,0.285,-0.237,-0.047
45.0,-4.174,-4.926,7.603,0.285,-0.237,-0.047
49.0,-4.248,-4.857,7.762,0.327,-0.186,-0.077
52.0,-4.248,-4.857,7.762,0.327,-0.186,-0.077
56.0,-4.324,-4.835,7.852,0.327,-0.186,-0.077
60.0,-4.324,-4.835,7.852,0.376,-0.171,-0.107
64.0,-4.324,-4.835,7.852,0.376,-0.171,-0.107
68.0,-4.423,-4.805,7.866,0.441,-0.172,-0.125
72.0,-4.423,-4.805,7.866,0.441,-0.172,-0.125
75.0,-4.423,-4.805,7.866,0.441,-0.172,-0.125
79.0,-4.475,-4.624,7.75,0.518,-0.178,-0.125
83.0,-4.475,-4.624,7.75,0.518,-0.178,-0.125
87.0,-4.631,-4.603,7.726,0.593,-0.234,-0.111
91.0,-4.631,-4.603,7.726,0.593,-0.234,-0.111
94.0,-4.631,-4.603,7.726,0.593,-0.234,-0.111
98.0,-4.28,-4.014,7.347,0.645,-0.245,-0.087
102.0,-4.28,-4.014,7.347,0.645,-0.245,-0.087
106.0,-4.37,-3.825,7.458,0.645,-0.143,-0.079
110.0,-4.37,-3.825,7.458,0.584,-0.143,-0.079
114.0,-4.37,-3.825,7.458,0.584,-0.143,-0.079
118.0,-4.214,-3.516,7.951,0.522,-0.083,-0.062
122.0,-4.214,-3.516,7.951,0.522,-0.083,-0.062
126.0,-4.34,-3.581,8.377,0.522,-0.083,-0.071
129.0,-4.34,-3.581,8.377,0.443,-0.05,-0.071
133.0,-4.34,-3.581,8.377,0.443,-0.05,-0.071
137.0,-4.5,-3.79,8.887,0.39,-0.023,-0.079
141.0,-4.5,-3.79,8.887,0.39,-0.023,-0.079
145.0,-4.662,-3.917,9.309,0.39,-0.023,-0.079
149.0,-4.662,-3.917,9.309,0.359,-0.022,-0.081
153.0,-4.662,-3.917,9.309,0.359,-0.022,-0.081
157.0,-4.814,-3.992,9.488,0.336,-0.049,-0.078
161.0,-4.814,-3.992,9.488,0.336,-0.049,-0.078
165.0,-4.814,-3.931,9.396,0.336,-0.049,-0.078
169.0,-4.687,-3.931,9.396,0.324,-0.097,-0.082
172.0,-4.687,-3.931,9.396,0.324,-0.097,-0.082
176.0,-4.402,-3.825,9.244,0.314,-0.134,-0.097
180.0,-4.402,-3.825,9.244,0.314,-0.134,-0.097
184.0,-4.402,-3.825,8.943,0.314,-0.134,-0.097
188.0,-4.104,-3.741,8.943,0.327,-0.165,-0.12
192.0,-4.104,-3.741,8.943,0.327,-0.165,-0.12
196.0,-3.875,-3.498,8.447,0.358,-0.179,-0.131
200.0,-3.875,-3.498,8.447,0.358,-0.179,-0.131
204.0,-3.875,-3.498,8.447,0.358,-0.179,-0.131
208.0,-3.821,-3.087,8.101,0.354,-0.147,-0.129
211.0,-3.821,-3.087,8.101,0.354,-0.147,-0.129
215.0,-3.647,-2.806,7.944,0.301,-0.107,-0.14
219.0,-3.647,-2.806,7.944,0.301,-0.107,-0.14
223.0,-3.647,-2.806,7.944,0.301,-0.107,-0.14
227.0,-3.605,-2.535,7.818,0.208,-0.068,-0.151
231.0,-3.605,-2.535,7.818,0.208,-0.068,-0.151
235.0,-3.827,-2.325,7.859,0.071,-0.014,-0.14
239.0,-3.827,-2.325,7.859,0.071,-0.014,-0.14
243.0,-3.827,-2.325,7.859,0.071,-0.014,-0.14
247.0,-4.114,-2.319,8.146,-0.086,0.033,-0.114
251.0,-4.114,-2.319,8.146,-0.086,0.033,-0.114
254.0,-4.178,-2.395,8.389,-0.234,0.051,-0.104
258.0,-4.178,-2.395,8.389,-0.234,0.051,-0.104
262.0,-4.178,-2.395,8.389,-0.234,0.051,-0.104
266.0,-4.14,-2.581,8.594,-0.358,0.055,-0.104
270.0,-4.14,-2.581,8.594,-0.358,0.055,-0.104
274.0,-4.32,-2.897,8.788,-0.455,0.061,-0.09
278.0,-4.32,-2.897,8.788,-0.455,0.061,-0.09
282.0,-4.32,-2.897,8.788,-0.455,0.061,-0.09
286.0,-4.552,-3.482,8.92,-0.492,0.059,-0.068
290.0,-4.552,-3.482,8.92,-0.492,0.059,-0.068
294.0,-4.598,-4.061,9.019,-0.492,0.038,-0.045
297.0,-4.598,-4.061,9.019,-0.418,0.038,-0.045
301.0,-4.598,-4.061,9.019,-0.418,0.038,-0.045
305.0,-4.642,-4.459,9.038,-0.237,0.008,-0.023
309.0,-4.642,-4.459,9.038,-0.237,0.008,-0.023
313.0,-4.69,-4.657,8.977,-0.237,0.008,-0.004
317.0,-4.69,-4.657,8.977,0.006,-0.019,-0.004
321.0,-4.69,-4.657,8.977,0.006,-0.019,-0.004
325.0,-4.608,-4.534,8.854,0.264,-0.035,0.008
329.0,-4.608,-4.534,8.854,0.264,-0.035,0.008
332.0,-4.608,-3.908,8.547,0.264,-0.035,0.008
336.0,-4.363,-3.908,8.547,0.473,-0.038,0.024
340.0,-4.363,-3.908,8.547,0.473,-0.038,0.024
344.0,-4.275,-3.803,8.725,0.575,-0.012,0.043
348.0,-4.275,-3.803,8.725,0.575,-0.012,0.043
352.0,-4.275,-3.803,8.725,0.575,-0.012,0.043
355.0,-4.096,-3.47,8.926,0.655,0.014,0.061
359.0,-4.096,-3.47,8.926,0.655,0.014,0.061
363.0,-3.77,-3.276,8.802,0.731,0.012,0.041
367.0,-3.77,-3.276,8.802,0.731,0.012,0.041
370.0,-3.77,-3.276,8.802,0.731,0.012,0.041
374.0,-3.681,-3.034,8.849,0.799,0.001,0.023
378.0,-3.681,-3.034,8.849,0.799,0.001,0.023
381.0,-3.681,-3.034,8.833,0.799,0.001,0.023
385.0,-4.03,-2.584,8.833,0.851,-0.015,0.023
389.0,-4.03,-2.584,8.833,0.851,-0.015,0.023
393.0,-4.344,-2.368,8.525,0.855,-0.064,0.04
397.0,-4.344,-2.368,8.525,0.855,-0.064,0.04
400.0,-4.344,-2.368,8.525,0.855,-0.064,0.04
404.0,-4.472,-2.218,8.145,0.79,-0.125,0.074
408.0,-4.472,-2.218,8.145,0.79,-0.125,0.074
412.0,-4.308,-2.288,7.901,0.79,-0.156,0.125
416.0,-4.308,-2.288,7.901,0.668,-0.156,0.125
420.0,-4.308,-2.288,7.901,0.668,-0.156,0.125
423.0,-4.397,-2.353,7.936,0.519,-0.137,0.192
427.0,-4.397,-2.353,7.936,0.519,-0.137,0.192
431.0,-4.397,-2.615,8.063,0.519,-0.137,0.192
435.0,-4.442,-2.615,8.063,0.366,-0.094,0.227
439.0,-4.442,-2.615,8.063,0.366,-0.094,0.227
442.0,-4.162,-2.805,8.235,0.263,-0.059,0.183
446.0,-4.162,-2.805,8.235,0.263,-0.059,0.183
450.0,-4.162,-2.805,8.235,0.263,-0.059,0.183
454.0,-4.298,-2.813,8.66,0.209,-0.035,0.115
458.0,-4.298,-2.813,8.66,0.209,-0.035,0.115
462.0,-4.936,-2.743,9.012,0.178,-0.024,0.074
465.0,-4.936,-2.743,9.012,0.178,-0.024,0.074
469.0,-4.936,-2.743,9.012,0.178,-0.024,0.074
473.0,-5.328,-2.478,9.368,0.156,-0.041,0.036
477.0,-5.328,-2.478,9.368,0.156,-0.041,0.036
481.0,-5.261,-2.434,9.953,0.156,-0.041,0.036
484.0,-5.261,-2.434,9.953,0.147,-0.1,-0.007
488.0,-5.261,-2.434,9.953,0.147,-0.1,-0.007
492.0,-5.178,-2.358,10.358,0.175,-0.203,-0.038
496.0,-5.178,-2.358,10.358,0.175,-0.203,-0.038
500.0,-5.248,-2.292,10.538,0.175,-0.203,-0.038
504.0,-5.248,-2.292,10.538,0.225,-0.312,-0.038
508.0,-5.248,-2.292,10.538,0.225,-0.312,-0.038
512.0,-5.365,-2.274,10.774,0.282,-0.409,-0.023
516.0,-5.365,-2.274,10.774,0.282,-0.409,-0.023
520.0,-5.427,-2.177,11.028,0.282,-0.409,-0.022
524.0,-5.427,-2.177,11.028,0.345,-0.533,-0.022
528.0,-5.427,-2.177,11.028,0.345,-0.533,-0.022
532.0,-5.167,-2.054,11.115,0.41,-0.699,-0.042
536.0,-5.167,-2.054,11.115,0.41,-0.699,-0.042
540.0,-4.656,-1.976,11.155,0.41,-0.867,-0.067
544.0,-4.656,-1.976,11.155,0.462,-0.867,-0.067
548.0,-4.656,-1.976,11.155,0.462,-0.867,-0.067
552.0,-4.107,-2.179,11.184,0.496,-1.012,-0.083
556.0,-4.107,-2.179,11.184,0.496,-1.012,-0.083
560.0,-3.855,-2.581,11.294,0.507,-1.124,-0.094
564.0,-3.855,-2.581,11.294,0.507,-1.124,-0.094
568.0,-3.855,-2.581,11.294,0.507,-1.124,-0.094
572.0,-4.012,-2.956,11.579,0.493,-1.199,-0.111
576.0,-4.012,-2.956,11.579,0.493,-1.199,-0.111
580.0,-4.485,-3.636,12.176,0.471,-1.256,-0.15
584.0,-4.485,-3.636,12.176,0.471,-1.256,-0.15
588.0,-4.485,-3.636,12.176,0.471,-1.256,-0.15
592.0,-4.994,-4.514,12.811,0.484,-1.339,-0.243
596.0,-4.994,-4.514,12.811,0.484,-1.339,-0.243
600.0,-5.27,-5.151,13.287,0.569,-1.455,-0.395
604.0,-5.27,-5.151,13.287,0.569,-1.455,-0.395
608.0,-5.27,-5.151,13.287,0.569,-1.455,-0.395
612.0,-5.338,-5.541,13.72,0.732,-1.576,-0.562
616.0,-5.338,-5.541,13.72,0.732,-1.576,-0.562
620.0,-5.435,-5.684,14.142,0.935,-1.687,-0.714
624.0,-5.435,-5.684,14.142,0.935,-1.687,-0.714
628.0,-5.435,-5.684,14.142,0.935,-1.687,-0.714
632.0,-5.448,-5.631,14.293,1.14,-1.799,-0.856
636.0,-5.448,-5.631,14.293,1.14,-1.799,-0.856
640.0,-5.188,-5.413,14.076,1.308,-1.919,-1.003
644.0,-5.188,-5.413,14.076,1.308,-1.919,-1.003
648.0,-5.188,-5.413,13.839,1.308,-1.919,-1.003
652.0,-4.739,-5.205,13.839,1.397,-2.027,-1.155
656.0,-4.739,-5.205,13.839,1.397,-2.027,-1.155
660.0,-4.245,-4.928,13.652,1.386,-2.114,-1.315
664.0,-4.245,-4.928,13.652,1.386,-2.114,-1.315
668.0,-4.245,-4.691,13.405,1.386,-2.114,-1.315
672.0,-3.763,-4.691,13.405,1.271,-2.194,-1.51
676.0,-3.763,-4.691,13.405,1.271,-2.194,-1.51
680.0,-3.358,-4.421,13.202,1.091,-2.283,-1.745
684.0,-3.358,-4.421,13.202,1.091,-2.283,-1.745
688.0,-2.958,-4.25,12.916,1.091,-2.283,-1.745
692.0,-2.958,-4.25,12.916,0.87,-2.381,-1.979
696.0,-2.958,-4.25,12.916,0.87,-2.381,-1.979
700.0,-2.648,-4.19,12.636,0.632,-2.468,-2.171
704.0,-2.648,-4.19,12.636,0.632,-2.468,-2.171
708.0,-2.221,-4.475,12.348,0.632,-2.468,-2.318
712.0,-2.221,-4.475,12.348,0.446,-2.542,-2.318
716.0,-2.221,-4.475,12.348,0.446,-2.542,-2.318
720.0,-1.635,-4.949,12.025,0.4,-2.604,-2.452
724.0,-1.635,-4.949,12.025,0.4,-2.604,-2.452
728.0,-1.065,-5.293,11.678,0.524,-2.652,-2.575
732.0,-1.065,-5.293,11.678,0.524,-2.652,-2.575
736.0,-1.065,-5.293,11.678,0.524,-2.652,-2.575
740.0,-0.616,-5.402,11.209,0.786,-2.681,-2.657
744.0,-0.616,-5.402,11.209,0.786,-2.681,-2.657
748.0,-0.298,-5.505,10.664,1.132,-2.681,-2.686
752.0,-0.298,-5.505,10.664,1.132,-2.681,-2.686
756.0,-0.298,-5.505,10.664,1.132,-2.681,-2.686
760.0,-0.109,-5.737,10.229,1.52,-2.664,-2.684
764.0,-0.109,-5.737,10.229,1.52,-2.664,-2.684
768.0,-0.024,-5.635,9.629,1.932,-2.632,-2.688
772.0,-0.024,-5.635,9.629,1.932,-2.632,-2.688
776.0,-0.024,-5.635,9.629,1.932,-2.632,-2.688
780.0,-0.016,-5.525,9.044,2.364,-2.582,-2.716
783.0,-0.016,-5.525,9.044,2.364,-2.582,-2.716
787.0,-0.001,-5.432,8.414,2.827,-2.533,-2.755
791.0,-0.001,-5.432,8.414,2.827,-2.533,-2.755
795.0,-0.001,-5.432,8.414,2.827,-2.533,-2.755
799.0,0.017,-4.962,7.752,3.32,-2.476,-2.777
803.0,0.017,-4.962,7.752,3.32,-2.476,-2.777
807.0,0.007,-4.246,7.033,3.32,-2.403,-2.766
811.0,0.007,-4.246,7.033,3.801,-2.403,-2.766
814.0,0.007,-4.246,7.033,3.801,-2.403,-2.766
818.0,0.099,-3.538,6.331,4.215,-2.327,-2.722
822.0,0.099,-3.538,6.331,4.215,-2.327,-2.722
826.0,0.099,-3.538,5.624,4.215,-2.327,-2.722
830.0,0.274,-2.813,5.624,4.526,-2.245,-2.676
833.0,0.274,-2.813,5.624,4.526,-2.245,-2.676
837.0,0.486,-2.137,4.76,4.736,-2.154,-2.648
841.0,0.486,-2.137,4.76,4.736,-2.154,-2.648
845.0,0.486,-2.137,4.76,4.736,-2.154,-2.648
849.0,0.76,-1.48,3.812,4.85,-2.046,-2.645
853.0,0.76,-1.48,3.812,4.85,-2.046,-2.645
856.0,1.055,-0.912,3.075,4.872,-1.91,-2.669
860.0,1.055,-0.912,3.075,4.872,-1.91,-2.669
864.0,1.055,-0.912,3.075,4.872,-1.91,-2.669
868.0,1.341,-0.575,2.523,4.829,-1.751,-2.719
872.0,1.341,-0.575,2.523,4.829,-1.751,-2.719
875.0,1.459,-0.294,1.939,4.829,-1.751,-2.719
879.0,1.459,-0.294,1.939,4.749,-1.573,-2.792
883.0,1.459,-0.294,1.939,4.749,-1.573,-2.792
887.0,1.444,0.025,1.432,4.625,-1.377,-2.877
891.0,1.444,0.025,1.432,4.625,-1.377,-2.877
894.0,1.444,0.025,1.432,4.625,-1.377,-2.877
898.0,1.272,0.307,1.142,4.454,-1.166,-2.983
902.0,1.272,0.307,1.142,4.454,-1.166,-2.983
906.0,0.894,0.584,0.866,4.261,-0.967,-3.131
909.0,0.894,0.584,0.866,4.261,-0.967,-3.131
913.0,0.894,0.584,0.866,4.261,-0.967,-3.131
917.0,0.541,0.963,0.544,4.046,-0.795,-3.302
921.0,0.541,0.963,0.544,4.046,-0.795,-3.302
924.0,0.541,0.963,0.544,4.046,-0.795,-3.302
928.0,0.455,1.295,0.44,3.803,-0.628,-3.453
932.0,0.455,1.295,0.44,3.803,-0.628,-3.453
935.0,0.127,1.773,0.598,3.551,-0.462,-3.598
939.0,0.127,1.773,0.598,3.551,-0.462,-3.598
943.0,0.127,1.773,0.598,3.551,-0.462,-3.598
947.0,-0.619,2.65,0.744,3.312,-0.348,-3.72
950.0,-0.619,2.65,0.744,3.312,-0.348,-3.72
954.0,-0.619,3.727,0.891,3.312,-0.348,-3.72
958.0,-1.086,3.727,0.891,3.071,-0.3,-3.764
962.0,-1.086,3.727,0.891,3.071,-0.3,-3.764
966.0,-1.393,4.723,0.987,2.812,-0.283,-3.73
970.0,-1.393,4.723,0.987,2.812,-0.283,-3.73
973.0,-1.393,4.723,0.987,2.812,-0.283,-3.73
977.0,-1.571,5.517,1.01,2.527,-0.289,-3.639
981.0,-1.571,5.517,1.01,2.527,-0.289,-3.639
985.0,-1.677,6.211,1.111,2.218,-0.306,-3.513
989.0,-1.677,6.211,1.111,2.218,-0.306,-3.513
992.0,-1.677,6.211,1.111,2.218,-0.306,-3.513
996.0,-1.908,6.947,1.275,1.896,-0.323,-3.359
1000.0,-1.908,6.947,1.275,1.896,-0.323,-3.359
1004.0,-2.183,7.634,1.46,1.896,-0.323,-3.167
1008.0,-2.183,7.634,1.46,1.566,-0.353,-3.167
1012.0,-2.183,7.634,1.46,1.566,-0.353,-3.167
1016.0,-2.266,8.328,1.682,1.223,-0.396,-2.926
1020.0,-2.266,8.328,1.682,1.223,-0.396,-2.926
1024.0,-2.271,9.014,2.142,1.223,-0.396,-2.926
1027.0,-2.271,9.014,2.142,0.874,-0.44,-2.658
1031.0,-2.271,9.014,2.142,0.874,-0.44,-2.658
1035.0,-2.307,9.658,2.663,0.537,-0.5,-2.375
1039.0,-2.307,9.658,2.663,0.537,-0.5,-2.375
1043.0,-2.307,10.259,3.165,0.537,-0.5,-2.375
1047.0,-2.248,10.259,3.165,0.22,-0.568,-2.052
1051.0,-2.248,10.259,3.165,0.22,-0.568,-2.052
1055.0,-2.217,10.649,3.793,-0.078,-0.616,-1.695
1059.0,-2.217,10.649,3.793,-0.078,-0.616,-1.695
1063.0,-2.207,10.711,4.272,-0.078,-0.616,-1.362
1067.0,-2.207,10.711,4.272,-0.341,-0.653,-1.362
1071.0,-2.207,10.711,4.272,-0.341,-0.653,-1.362
1075.0,-2.209,10.647,4.637,-0.552,-0.67,-1.087
1080.0,-2.209,10.647,4.637,-0.552,-0.67,-1.087
1084.0,-2.201,10.576,5.032,-0.713,-0.666,-0.845
1088.0,-2.201,10.576,5.032,-0.713,-0.666,-0.845
1092.0,-2.201,10.576,5.032,-0.713,-0.666,-0.845
1096.0,-2.002,10.397,5.332,-0.829,-0.649,-0.598
1100.0,-2.002,10.397,5.332,-0.829,-0.649,-0.598
1104.0,-1.719,10.086,5.574,-0.903,-0.608,-0.362
1108.0,-1.719,10.086,5.574,-0.903,-0.608,-0.362
1112.0,-1.719,9.866,5.778,-0.903,-0.608,-0.362
1116.0,-1.546,9.866,5.778,-0.939,-0.55,-0.175
1120.0,-1.546,9.866,5.778,-0.939,-0.55,-0.175
1124.0,-1.432,9.793,5.94,-0.953,-0.486,-0.044
1128.0,-1.432,9.793,5.94,-0.953,-0.486,-0.044
1132.0,-1.344,9.698,6.186,-0.953,-0.486,-0.044
1136.0,-1.344,9.698,6.186,-0.963,-0.415,0.041
1140.0,-1.344,9.698,6.186,-0.963,-0.415,0.041
1144.0,-1.331,9.656,6.459,-0.966,-0.342,0.082
1148.0,-1.331,9.656,6.459,-0.966,-0.342,0.082
1152.0,-1.306,9.626,6.819,-0.966,-0.342,0.082
1156.0,-1.306,9.626,6.819,-0.951,-0.265,0.097
1160.0,-1.306,9.626,6.819,-0.951,-0.265,0.097
1163.0,-1.321,9.559,7.253,-0.911,-0.194,0.097
1167.0,-1.321,9.559,7.253,-0.911,-0.194,0.097
1171.0,-1.321,9.559,7.531,-0.911,-0.194,0.097
1175.0,-1.251,9.461,7.531,-0.847,-0.129,0.107
1179.0,-1.251,9.461,7.531,-0.847,-0.129,0.107
1183.0,-0.991,9.083,7.79,-0.772,-0.054,0.149
1187.0,-0.991,9.083,7.79,-0.772,-0.054,0.149
1191.0,-0.991,9.083,7.79,-0.772,-0.054,0.149
1195.0,-0.817,8.636,7.833,-0.697,0.034,0.192
1199.0,-0.817,8.636,7.833,-0.697,0.034,0.192
1202.0,-0.685,8.27,7.707,-0.636,0.119,0.226
1206.0,-0.685,8.27,7.707,-0.636,0.119,0.226
1210.0,-0.685,8.27,7.707,-0.636,0.119,0.226
1214.0,-0.574,7.844,7.652,-0.608,0.206,0.244
1218.0,-0.574,7.844,7.652,-0.608,0.206,0.244
1221.0,-0.731,7.435,7.592,-0.593,0.284,0.218
1225.0,-0.731,7.435,7.592,-0.593,0.284,0.218
1229.0,-0.731,7.435,7.592,-0.593,0.284,0.218
1233.0,-0.979,7.186,7.458,-0.565,0.341,0.16
1237.0,-0.979,7.186,7.458,-0.565,0.341,0.16
1241.0,-1.088,6.961,7.393,-0.565,0.341,0.16
1244.0,-1.088,6.961,7.393,-0.53,0.388,0.096
1248.0,-1.088,6.961,7.393,-0.53,0.388,0.096
1252.0,-1.061,6.82,7.468,-0.472,0.439,0.022
1256.0,-1.061,6.82,7.468,-0.472,0.439,0.022
1260.0,-1.061,6.82,7.468,-0.472,0.439,0.022
1263.0,-1.262,7.091,7.772,-0.383,0.499,-0.042
1267.0,-1.262,7.091,7.772,-0.383,0.499,-0.042
1271.0,-1.801,7.907,7.927,-0.273,0.548,-0.031
1275.0,-1.801,7.907,7.927,-0.273,0.548,-0.031
1279.0,-1.801,7.907,7.927,-0.273,0.548,-0.031
1283.0,-2.182,8.682,7.771,-0.197,0.573,0.109
1287.0,-2.182,8.682,7.771,-0.197,0.573,0.109
1291.0,-2.084,8.796,7.704,-0.193,0.595,0.323
1294.0,-2.084,8.796,7.704,-0.193,0.595,0.323
1298.0,-2.084,8.796,7.704,-0.193,0.595,0.323
1302.0,-2.026,8.688,7.792,-0.225,0.632,0.463
1306.0,-2.026,8.688,7.792,-0.225,0.632,0.463
1310.0,-2.292,8.739,8.009,-0.225,0.632,0.463
1314.0,-2.292,8.739,8.009,-0.256,0.66,0.497
1317.0,-2.292,8.739,8.009,-0.256,0.66,0.497
1321.0,-2.413,8.791,8.598,-0.281,0.676,0.512
1325.0,-2.413,8.791,8.598,-0.281,0.676,0.512
1329.0,-2.413,8.791,8.598,-0.281,0.676,0.512
1333.0,-2.499,8.887,9.218,-0.271,0.668,0.554
1336.0,-2.499,8.887,9.218,-0.271,0.668,0.554
1340.0,-2.541,9.095,9.584,-0.202,0.617,0.634
1344.0,-2.541,9.095,9.584,-0.202,0.617,0.634
1348.0,-2.541,9.095,9.584,-0.202,0.617,0.634
1352.0,-2.486,9.345,9.793,-0.101,0.545,0.763
1356.0,-2.486,9.345,9.793,-0.101,0.545,0.763
1359.0,-2.28,9.5,10.029,-0.101,0.545,0.937
1363.0,-2.28,9.5,10.029,-0.001,0.479,0.937
1367.0,-2.28,9.5,10.029,-0.001,0.479,0.937
1371.0,-1.847,9.631,10.396,0.087,0.43,1.116
1375.0,-1.847,9.631,10.396,0.087,0.43,1.116
1379.0,-1.381,9.748,10.816,0.087,0.43,1.116
1383.0,-1.381,9.748,10.816,0.166,0.389,1.27
1386.0,-1.381,9.748,10.816,0.166,0.389,1.27
1390.0,-0.979,9.893,11.239,0.241,0.351,1.386
1394.0,-0.979,9.893,11.239,0.241,0.351,1.386
1398.0,-0.979,9.893,11.239,0.241,0.351,1.386
1402.0,-0.577,10.053,11.646,0.303,0.299,1.484
1406.0,-0.577,10.053,11.646,0.303,0.299,1.484
1409.0,-0.363,10.19,11.922,0.352,0.232,1.573
1413.0,-0.363,10.19,11.922,0.352,0.232,1.573
1417.0,-0.363,10.19,11.922,0.352,0.232,1.573
1421.0,-0.626,10.409,11.925,0.398,0.125,1.65
1425.0,-0.626,10.409,11.925,0.398,0.125,1.65
1429.0,-0.906,10.49,11.596,0.435,-0.03,1.772
1433.0,-0.906,10.49,11.596,0.435,-0.03,1.772
1437.0,-0.906,10.49,11.596,0.435,-0.03,1.772
1441.0,-0.791,10.219,11.119,0.445,-0.199,1.959
1445.0,-0.791,10.219,11.119,0.445,-0.199,1.959
1449.0,-0.78,9.759,10.476,0.466,-0.36,2.132
1453.0,-0.78,9.759,10.476,0.466,-0.36,2.132
1457.0,-0.78,9.759,10.476,0.466,-0.36,2.132
1461.0,-1.055,9.366,9.483,0.527,-0.518,2.275
1465.0,-1.055,9.366,9.483,0.527,-0.518,2.275
1468.0,-1.104,8.965,8.578,0.589,-0.643,2.453
1472.0,-1.104,8.965,8.578,0.589,-0.643,2.453
1476.0,-1.104,8.965,8.578,0.589,-0.643,2.453
1480.0,-1.102,8.53,7.941,0.652,-0.716,2.643
1484.0,-1.102,8.53,7.941,0.652,-0.716,2.643
1487.0,-1.427,8.503,7.374,0.652,-0.716,2.643
1491.0,-1.427,8.503,7.374,0.756,-0.771,2.79
1495.0,-1.427,8.503,7.374,0.756,-0.771,2.79
1499.0,-1.821,8.687,6.708,0.883,-0.822,2.95
1503.0,-1.821,8.687,6.708,0.883,-0.822,2.95
1507.0,-1.821,8.687,6.708,0.883,-0.822,2.95
1510.0,-2.132,8.776,6.352,0.981,-0.843,3.162
1514.0,-2.132,8.776,6.352,0.981,-0.843,3.162
1518.0,-2.447,8.632,6.102,1.065,-0.864,3.379
1522.0,-2.447,8.632,6.102,1.065,-0.864,3.379
1526.0,-2.447,8.632,6.102,1.065,-0.864,3.379
1529.0,-2.856,8.66,5.726,1.14,-0.912,3.573
1533.0,-2.856,8.66,5.726,1.14,-0.912,3.573
1537.0,-3.188,8.719,5.262,1.14,-0.912,3.786
1541.0,-3.188,8.719,5.262,1.176,-0.968,3.786
1545.0,-3.188,8.719,5.262,1.176,-0.968,3.786
1549.0,-3.276,8.64,5.006,1.155,-0.998,4.023
1552.0,-3.276,8.64,5.006,1.155,-0.998,4.023
1556.0,-3.276,8.64,5.122,1.155,-0.998,4.023
1560.0,-3.253,8.538,5.122,1.112,-1.002,4.232
1564.0,-3.253,8.538,5.122,1.112,-1.002,4.232
1568.0,-3.34,8.5,5.288,1.087,-1.0,4.376
1571.0,-3.34,8.5,5.288,1.087,-1.0,4.376
1575.0,-3.34,8.5,5.288,1.087,-1.0,4.376
1579.0,-3.203,8.386,5.302,1.077,-0.987,4.479
1583.0,-3.203,8.386,5.302,1.077,-0.987,4.479
1587.0,-2.929,8.488,5.551,1.075,-0.939,4.542
1591.0,-2.929,8.488,5.551,1.075,-0.939,4.542
1594.0,-2.929,8.488,5.551,1.075,-0.939,4.542
1598.0,-2.625,8.585,5.715,1.083,-0.88,4.595
1602.0,-2.625,8.585,5.715,1.083,-0.88,4.595
1606.0,-2.216,8.694,5.892,1.083,-0.88,4.595
1610.0,-2.216,8.694,5.892,1.081,-0.807,4.649
1613.0,-2.216,8.694,5.892,1.081,-0.807,4.649
1617.0,-1.816,8.718,5.95,1.068,-0.731,4.689
1621.0,-1.816,8.718,5.95,1.068,-0.731,4.689
1625.0,-1.816,8.718,5.95,1.068,-0.731,4.689
1629.0,-1.286,8.511,5.717,1.023,-0.662,4.734
1633.0,-1.286,8.511,5.717,1.023,-0.662,4.734
1636.0,-0.444,8.107,5.599,0.938,-0.57,4.769
1640.0,-0.444,8.107,5.599,0.938,-0.57,4.769
1644.0,-0.444,8.107,5.599,0.938,-0.57,4.769
1648.0,0.31,7.873,5.905,0.846,-0.471,4.764
1652.0,0.31,7.873,5.905,0.846,-0.471,4.764
1655.0,0.842,7.644,6.162,0.846,-0.471,4.764
1659.0,0.842,7.644,6.162,0.778,-0.41,4.77
1663.0,0.842,7.644,6.162,0.778,-0.41,4.77
1667.0,1.059,7.353,6.209,0.731,-0.374,4.834
1670.0,1.059,7.353,6.209,0.731,-0.374,4.834
1674.0,1.059,7.353,6.209,0.731,-0.374,4.834
1678.0,1.134,6.908,5.985,0.688,-0.34,4.947
1681.0,1.134,6.908,5.985,0.688,-0.34,4.947
1685.0,1.424,6.297,5.626,0.688,-0.34,5.01
1689.0,1.424,6.297,5.626,0.637,-0.291,5.01
1693.0,1.424,6.297,5.626,0.637,-0.291,5.01
1696.0,1.767,5.791,5.411,0.576,-0.225,5.013
1700.0,1.767,5.791,5.411,0.576,-0.225,5.013
1704.0,1.767,5.791,5.411,0.576,-0.225,5.013
1708.0,2.081,5.327,5.258,0.495,-0.174,5.013
1711.0,2.081,5.327,5.258,0.495,-0.174,5.013
1715.0,2.383,4.831,5.058,0.39,-0.129,5.013
1719.0,2.383,4.831,5.058,0.39,-0.129,5.013
1722.0,2.383,4.831,5.058,0.39,-0.129,5.013
1726.0,2.628,4.11,4.576,0.26,-0.069,5.013
1730.0,2.628,4.11,4.576,0.26,-0.069,5.013
1734.0,2.628,4.11,4.576,0.26,-0.069,5.013
1737.0,2.855,3.27,4.027,0.095,0.015,5.013
1741.0,2.855,3.27,4.027,0.095,0.015,5.013
1745.0,2.882,2.362,3.608,-0.117,0.118,5.013
1748.0,2.882,2.362,3.608,-0.117,0.118,5.013
1752.0,2.882,2.362,3.608,-0.117,0.118,5.013
1756.0,2.802,1.452,3.31,-0.384,0.212,5.013
1760.0,2.802,1.452,3.31,-0.384,0.212,5.013
1763.0,2.802,1.452,3.024,-0.384,0.212,5.013
1767.0,2.748,0.583,3.024,-0.696,0.292,5.013
1771.0,2.748,0.583,3.024,-0.696,0.292,5.013
1775.0,2.641,-0.22,2.78,-1.046,0.375,5.013
1778.0,2.641,-0.22,2.78,-1.046,0.375,5.013
1782.0,2.641,-0.22,2.78,-1.046,0.375,5.013
1786.0,2.343,-1.184,2.781,-1.432,0.467,5.013
1790.0,2.343,-1.184,2.781,-1.432,0.467,5.013
1794.0,1.713,-2.581,3.039,-1.432,0.467,5.013
1797.0,1.713,-2.581,3.039,-1.86,0.54,5.013
1801.0,1.713,-2.581,3.039,-1.86,0.54,5.013
1805.0,0.82,-4.733,3.563,-2.327,0.556,5.013
1809.0,0.82,-4.733,3.563,-2.327,0.556,5.013
1813.0,0.82,-4.733,3.728,-2.327,0.556,5.013
1817.0,-0.157,-7.944,3.728,-2.796,0.5,5.013
1821.0,-0.157,-7.944,3.728,-2.796,0.5,5.013
1824.0,-0.93,-11.666,2.912,-3.152,0.378,4.975
1828.0,-0.93,-11.666,2.912,-3.152,0.378,4.975
1832.0,-0.93,-11.666,2.912,-3.152,0.378,4.975
1836.0,-1.698,-14.292,2.457,-3.202,0.259,4.541
1840.0,-1.698,-14.292,2.457,-3.202,0.259,4.541
1844.0,-2.374,-15.211,1.317,-2.882,0.21,3.977
1848.0,-2.374,-15.211,1.317,-2.882,0.21,3.977
1852.0,-2.374,-15.211,0.353,-2.882,0.21,3.977
1856.0,-2.95,-15.626,0.353,-2.315,0.283,3.628
1860.0,-2.95,-15.626,0.353,-2.315,0.283,3.628
1864.0,-2.803,-16.594,0.486,-1.598,0.406,3.409
1868.0,-2.803,-16.594,0.486,-1.598,0.406,3.409
1872.0,-1.488,-17.174,1.317,-1.598,0.406,3.409
1876.0,-1.488,-17.174,1.317,-0.787,0.46,3.152
1880.0,-1.488,-17.174,1.317,-0.787,0.46,3.152
1884.0,0.374,-17.164,2.016,0.032,0.44,2.811
1888.0,0.374,-17.164,2.016,0.032,0.44,2.811
1892.0,0.374,-16.816,2.288,0.032,0.44,2.811
1896.0,2.085,-16.816,2.288,0.789,0.382,2.438
1900.0,2.085,-16.816,2.288,0.789,0.382,2.438
1903.0,3.391,-16.041,2.433,1.436,0.301,2.068
1907.0,3.391,-16.041,2.433,1.436,0.301,2.068
1911.0,3.391,-16.041,2.433,1.436,0.301,2.068
1915.0,4.39,-14.777,2.406,1.923,0.207,1.724
1919.0,4.39,-14.777,2.406,1.923,0.207,1.724
1922.0,5.235,-13.253,2.516,2.207,0.131,1.422
1926.0,5.235,-13.253,2.516,2.207,0.131,1.422
1930.0,5.235,-13.253,2.516,2.207,0.131,1.422
1934.0,6.068,-11.679,2.97,2.278,0.074,1.161
1938.0,6.068,-11.679,2.97,2.278,0.074,1.161
1942.0,7.031,-10.251,3.512,2.278,0.074,1.161
1945.0,7.031,-10.251,3.512,2.145,0.029,0.923
1949.0,7.031,-10.251,3.512,2.145,0.029,0.923
1953.0,8.003,-9.074,4.111,1.845,-0.0,0.683
1957.0,8.003,-9.074,4.111,1.845,-0.0,0.683
1961.0,8.003,-9.074,4.111,1.845,-0.0,0.683
1965.0,8.69,-8.179,4.616,1.429,-0.011,0.437
1968.0,8.69,-8.179,4.616,1.429,-0.011,0.437
1972.0,8.818,-7.445,4.738,0.952,-0.001,0.196
1976.0,8.818,-7.445,4.738,0.952,-0.001,0.196
1980.0,8.818,-7.445,4.738,0.952,-0.001,0.196
1984.0,8.803,-6.852,4.825,0.451,0.028,-0.015
1987.0,8.803,-6.852,4.825,0.451,0.028,-0.015
1991.0,8.949,-6.563,5.02,0.451,0.06,-0.173
1995.0,8.949,-6.563,5.02,-0.037,0.06,-0.173
1999.0,8.949,-6.563,5.02,-0.037,0.06,-0.173
2003.0,9.215,-6.554,5.309,-0.465,0.089,-0.284
2007.0,9.215,-6.554,5.309,-0.465,0.089,-0.284
2011.0,9.267,-6.731,5.53,-0.465,0.089,-0.284
2015.0,9.267,-6.731,5.53,-0.791,0.102,-0.357
2019.0,9.267,-6.731,5.53,-0.791,0.102,-0.357
2022.0,9.109,-6.965,5.801,-0.988,0.107,-0.396
2026.0,9.109,-6.965,5.801,-0.988,0.107,-0.396
2030.0,9.109,-7.305,6.035,-0.988,0.107,-0.396
2034.0,8.968,-7.305,6.035,-1.056,0.111,-0.406
2038.0,8.968,-7.305,6.035,-1.056,0.111,-0.406
2042.0,8.716,-7.52,6.062,-1.004,0.085,-0.409
2046.0,8.716,-7.52,6.062,-1.004,0.085,-0.409
2050.0,8.716,-7.52,5.931,-1.004,0.085,-0.409
2054.0,8.187,-7.387,5.931,-0.869,0.038,-0.406
2058.0,8.187,-7.387,5.931,-0.869,0.038,-0.406
2061.0,7.662,-7.124,5.858,-0.696,0.022,-0.375
2065.0,7.662,-7.124,5.858,-0.696,0.022,-0.375
2069.0,7.662,-7.124,5.858,-0.696,0.022,-0.375
2073.0,7.415,-6.855,5.996,-0.515,0.009,-0.328
2077.0,7.415,-6.855,5.996,-0.515,0.009,-0.328
2081.0,7.326,-6.519,6.052,-0.332,-0.04,-0.306
2085.0,7.326,-6.519,6.052,-0.332,-0.04,-0.306
2089.0,7.326,-6.519,6.052,-0.332,-0.04,-0.306
2093.0,7.201,-6.166,5.852,-0.155,-0.093,-0.308
2097.0,7.201,-6.166,5.852,-0.155,-0.093,-0.308
2101.0,7.037,-5.802,5.525,0.005,-0.118,-0.306
2105.0,7.037,-5.802,5.525,0.005,-0.118,-0.306
2109.0,7.037,-5.802,5.525,0.005,-0.118,-0.306
2113.0,6.867,-5.486,5.316,0.144,-0.11,-0.286
2117.0,6.867,-5.486,5.316,0.144,-0.11,-0.286
2120.0,6.794,-5.285,5.238,0.266,-0.075,-0.244
2124.0,6.794,-5.285,5.238,0.266,-0.075,-0.244
2128.0,6.794,-5.285,5.238,0.266,-0.075,-0.244
2132.0,6.845,-5.14,5.34,0.373,-0.022,-0.191
2136.0,6.845,-5.14,5.34,0.373,-0.022,-0.191
2140.0,6.888,-5.021,5.544,0.475,0.024,-0.146
2144.0,6.888,-5.021,5.544,0.475,0.024,-0.146
2148.0,6.888,-5.021,5.544,0.475,0.024,-0.146
2151.0,6.821,-4.878,5.618,0.571,0.046,-0.116
2155.0,6.821,-4.878,5.618,0.571,0.046,-0.116
2159.0,6.679,-4.761,5.643,0.571,0.057,-0.08
2163.0,6.679,-4.761,5.643,0.65,0.057,-0.08
2167.0,6.679,-4.761,5.643,0.65,0.057,-0.08
2171.0,6.557,-4.689,5.737,0.707,0.064,-0.034
2174.0,6.557,-4.689,5.737,0.707,0.064,-0.034
2178.0,6.557,-4.618,5.776,0.707,0.064,-0.034
2182.0,6.454,-4.618,5.776,0.744,0.064,0.007
2186.0,6.454,-4.618,5.776,0.744,0.064,0.007
2190.0,6.242,-4.527,5.812,0.758,0.061,0.039
2193.0,6.242,-4.527,5.812,0.758,0.061,0.039
2197.0,6.242,-4.527,5.812,0.758,0.061,0.039
2201.0,5.997,-4.483,5.856,0.755,0.06,0.07
2204.0,5.997,-4.483,5.856,0.755,0.06,0.07
2208.0,5.761,-4.437,5.908,0.755,0.06,0.098
2212.0,5.761,-4.437,5.908,0.747,0.053,0.098
2216.0,5.761,-4.437,5.908,0.747,0.053,0.098
2219.0,5.696,-4.404,5.911,0.732,0.037,0.123
2223.0,5.696,-4.404,5.911,0.732,0.037,0.123
2227.0,5.696,-4.404,5.911,0.732,0.037,0.123
2231.0,5.806,-4.324,5.953,0.712,0.011,0.136
2234.0,5.806,-4.324,5.953,0.712,0.011,0.136
2238.0,6.017,-4.164,5.952,0.712,-0.019,0.135
2242.0,6.017,-4.164,5.952,0.682,-0.019,0.135
2246.0,6.017,-4.164,5.952,0.682,-0.019,0.135
2249.0,6.238,-3.994,5.973,0.638,-0.04,0.129
2253.0,6.238,-3.994,5.973,0.638,-0.04,0.129
2257.0,6.238,-3.881,5.981,0.638,-0.04,0.129
2261.0,6.493,-3.881,5.981,0.579,-0.045,0.12
2265.0,6.493,-3.881,5.981,0.579,-0.045,0.12
2269.0,6.73,-3.832,5.884,0.511,-0.043,0.104
2272.0,6.73,-3.832,5.884,0.511,-0.043,0.104
2276.0,6.73,-3.832,5.884,0.511,-0.043,0.104
2280.0,6.859,-3.771,5.733,0.43,-0.029,0.086
2284.0,6.859,-3.771,5.733,0.43,-0.029,0.086
2288.0,6.949,-3.742,5.632,0.341,-0.007,0.079
2292.0,6.949,-3.742,5.632,0.341,-0.007,0.079
2295.0,6.949,-3.742,5.632,0.341,-0.007,0.079
2299.0,7.038,-3.791,5.572,0.25,0.019,0.089
2303.0,7.038,-3.791,5.572,0.25,0.019,0.089
2307.0,7.038,-3.915,5.487,0.25,0.019,0.089
2310.0,7.005,-3.915,5.487,0.167,0.042,0.115
2314.0,7.005,-3.915,5.487,0.167,0.042,0.115
2318.0,6.891,-4.109,5.465,0.104,0.068,0.152
2322.0,6.891,-4.109,5.465,0.104,0.068,0.152
2325.0,6.891,-4.109,5.465,0.104,0.068,0.152
2329.0,6.87,-4.287,5.55,0.071,0.087,0.192
2333.0,6.87,-4.287,5.55,0.071,0.087,0.192
2336.0,6.905,-4.432,5.527,0.071,0.087,0.192
2340.0,6.905,-4.432,5.527,0.072,0.086,0.225
2344.0,6.905,-4.432,5.527,0.072,0.086,0.225
2348.0,6.915,-4.545,5.492,0.094,0.077,0.25
2351.0,6.915,-4.545,5.492,0.094,0.077,0.25
2355.0,6.915,-4.545,5.492,0.094,0.077,0.25
2359.0,6.924,-4.663,5.49,0.125,0.064,0.261
2363.0,6.924,-4.663,5.49,0.125,0.064,0.261
2366.0,6.795,-4.731,5.282,0.125,0.049,0.254
2370.0,6.795,-4.731,5.282,0.162,0.049,0.254
2374.0,6.795,-4.731,5.282,0.162,0.049,0.254
2378.0,6.422,-4.694,5.017,0.187,0.046,0.246
2381.0,6.422,-4.694,5.017,0.187,0.046,0.246
2385.0,6.422,-4.694,5.017,0.187,0.046,0.246
2389.0,6.001,-4.65,4.914,0.194,0.061,0.25
2392.0,6.001,-4.65,4.914,0.194,0.061,0.25
2396.0,5.737,-4.681,4.96,0.184,0.083,0.265
2400.0,5.737,-4.681,4.96,0.184,0.083,0.265
2404.0,5.737,-4.681,4.96,0.184,0.083,0.265
2407.0,5.685,-4.772,5.054,0.172,0.102,0.271
2411.0,5.685,-4.772,5.054,0.172,0.102,0.271
2415.0,5.685,-4.772,5.117,0.172,0.102,0.271
2419.0,5.811,-4.903,5.117,0.163,0.113,0.26
2422.0,5.811,-4.903,5.117,0.163,0.113,0.26
2426.0,5.939,-4.997,5.026,0.164,0.127,0.224
2430.0,5.939,-4.997,5.026,0.164,0.127,0.224
2434.0,5.939,-4.997,5.026,0.164,0.127,0.224
2437.0,6.069,-4.889,5.016,0.177,0.152,0.176
2441.0,6.069,-4.889,5.016,0.177,0.152,0.176
2445.0,6.069,-4.772,5.036,0.177,0.152,0.176
2448.0,6.273,-4.772,5.036,0.198,0.188,0.136
2452.0,6.273,-4.772,5.036,0.198,0.188,0.136
2456.0,6.342,-4.711,4.911,0.222,0.235,0.108
2460.0,6.342,-4.711,4.911,0.222,0.235,0.108
2463.0,6.342,-4.711,4.911,0.222,0.235,0.108
2467.0,6.105,-4.579,4.847,0.244,0.292,0.088
2471.0,6.105,-4.579,4.847,0.244,0.292,0.088
2475.0,5.809,-4.498,4.738,0.244,0.292,0.088
2478.0,5.809,-4.498,4.738,0.256,0.356,0.092
2482.0,5.809,-4.498,4.738,0.256,0.356,0.092
2486.0,5.71,-4.422,4.839,0.262,0.436,0.126
2490.0,5.71,-4.422,4.839,0.262,0.436,0.126
2493.0,5.71,-4.422,4.839,0.262,0.436,0.126
2497.0,5.877,-4.442,5.14,0.276,0.505,0.172
2501.0,5.877,-4.442,5.14,0.276,0.505,0.172
2504.0,6.115,-4.386,5.373,0.276,0.505,0.202
2508.0,6.115,-4.386,5.373,0.31,0.544,0.202
2512.0,6.115,-4.386,5.373,0.31,0.544,0.202
2516.0,6.189,-4.25,5.342,0.354,0.574,0.218
2519.0,6.189,-4.25,5.342,0.354,0.574,0.218
2523.0,6.189,-4.25,5.342,0.354,0.574,0.218
2527.0,6.066,-4.055,5.206,0.391,0.616,0.251
2531.0,6.066,-4.055,5.206,0.391,0.616,0.251
2534.0,6.083,-3.851,5.297,0.416,0.682,0.306
2538.0,6.083,-3.851,5.297,0.416,0.682,0.306
2542.0,6.083,-3.851,5.297,0.416,0.682,0.306
2545.0,6.205,-3.718,5.419,0.438,0.762,0.365
2549.0,6.205,-3.718,5.419,0.438,0.762,0.365
2553.0,6.205,-3.718,5.419,0.438,0.762,0.365
2557.0,6.163,-3.529,5.358,0.457,0.836,0.423
2560.0,6.163,-3.529,5.358,0.457,0.836,0.423
2564.0,6.205,-3.379,5.31,0.465,0.939,0.491
2568.0,6.205,-3.379,5.31,0.465,0.939,0.491
2572.0,6.205,-3.379,5.31,0.465,0.939,0.491
2575.0,6.448,-3.329,5.491,0.477,1.081,0.561
2579.0,6.448,-3.329,5.491,0.477,1.081,0.561
2583.0,6.448,-3.329,5.702,0.477,1.081,0.561
2587.0,6.794,-3.368,5.702,0.504,1.224,0.612
2590.0,6.794,-3.368,5.702,0.504,1.224,0.612
2594.0,6.906,-3.438,5.707,0.538,1.368,0.632
2598.0,6.906,-3.438,5.707,0.538,1.368,0.632
2601.0,6.906,-3.438,5.707,0.538,1.368,0.632
2605.0,6.619,-3.485,5.62,0.551,1.547,0.647
2609.0,6.619,-3.485,5.62,0.551,1.547,0.647
2613.0,6.44,-3.659,5.468,0.551,1.547,0.647
2616.0,6.44,-3.659,5.468,0.545,1.779,0.665
2620.0,6.44,-3.659,5.468,0.545,1.779,0.665
2624.0,6.494,-3.765,5.377,0.546,2.089,0.666
2628.0,6.494,-3.765,5.377,0.546,2.089,0.666
2631.0,6.494,-3.765,5.377,0.546,2.089,0.666
2635.0,6.635,-3.737,5.424,0.568,2.472,0.657
2639.0,6.635,-3.737,5.424,0.568,2.472,0.657
2643.0,6.773,-3.843,5.34,0.568,2.472,0.635
2646.0,6.773,-3.843,5.34,0.612,2.91,0.635
2650.0,6.773,-3.843,5.34,0.612,2.91,0.635
2654.0,6.346,-4.08,5.436,0.681,3.372,0.583
2657.0,6.346,-4.08,5.436,0.681,3.372,0.583
2661.0,6.346,-4.08,5.436,0.681,3.372,0.583
2665.0,5.359,-4.413,5.459,0.774,3.788,0.511
2669.0,5.359,-4.413,5.459,0.774,3.788,0.511
2672.0,3.893,-4.833,5.259,0.774,4.213,0.449
2676.0,3.893,-4.833,5.259,0.875,4.213,0.449
2680.0,3.893,-4.833,5.259,0.875,4.213,0.449
2684.0,2.465,-5.553,4.579,1.023,4.548,0.405
2687.0,2.465,-5.553,4.579,1.023,4.548,0.405
2691.0,2.465,-5.553,4.579,1.023,4.548,0.405
2695.0,1.594,-6.24,3.73,1.213,4.863,0.39
2699.0,1.594,-6.24,3.73,1.213,4.863,0.39
2702.0,0.629,-6.924,3.056,1.432,5.013,0.36
2706.0,0.629,-6.924,3.056,1.432,5.013,0.36
2710.0,0.629,-6.924,3.056,1.432,5.013,0.36
2713.0,-0.179,-7.737,2.257,1.725,5.015,0.303
2717.0,-0.179,-7.737,2.257,1.725,5.015,0.303
2721.0,-0.179,-8.578,1.279,1.725,5.015,0.303
2725.0,-1.04,-8.578,1.279,2.129,5.015,0.23
2729.0,-1.04,-8.578,1.279,2.129,5.015,0.23
2733.0,-2.367,-9.343,0.369,2.684,5.015,0.158
2736.0,-2.367,-9.343,0.369,2.684,5.015,0.158
2740.0,-2.367,-9.343,0.369,2.684,5.015,0.158
2744.0,-4.184,-9.971,-0.119,3.427,5.015,0.101
2748.0,-4.184,-9.971,-0.119,3.427,5.015,0.101
2752.0,-5.917,-10.317,-0.186,4.343,5.015,0.039
2756.0,-5.917,-10.317,-0.186,4.343,5.015,0.039
2760.0,-5.917,-10.317,-0.186,4.343,5.015,0.039
2764.0,-7.611,-10.113,-0.154,4.951,5.015,-0.075
2768.0,-7.611,-10.113,-0.154,4.951,5.015,-0.075
2772.0,-9.265,-9.309,-0.129,4.995,5.015,-0.28
2776.0,-9.265,-9.309,-0.129,4.995,5.015,-0.28
2780.0,-9.265,-9.309,-0.129,4.995,5.015,-0.28
2784.0,-10.724,-7.976,-0.266,4.995,5.015,-0.589
2788.0,-10.724,-7.976,-0.266,4.995,5.015,-0.589
2792.0,-11.859,-6.36,-0.392,4.995,5.015,-0.982
2796.0,-11.859,-6.36,-0.392,4.995,5.015,-0.982
2800.0,-12.861,-4.781,-0.218,4.995,5.015,-0.982
2804.0,-12.861,-4.781,-0.218,4.995,5.015,-1.427
2808.0,-12.861,-4.781,-0.218,4.995,5.015,-1.427
2813.0,-13.738,-3.316,0.08,4.995,5.015,-1.893
2816.0,-13.738,-3.316,0.08,4.995,5.015,-1.893
2820.0,-14.052,-1.733,0.511,4.995,5.015,-2.35
2824.0,-14.052,-1.733,0.511,4.995,5.015,-2.35
2828.0,-14.052,-1.733,0.511,4.995,5.015,-2.35
2832.0,-13.796,-0.376,1.047,4.995,5.015,-2.736
2836.0,-13.796,-0.376,1.047,4.995,5.015,-2.736
2840.0,-13.277,0.377,1.469,4.995,4.978,-3.026
2844.0,-13.277,0.377,1.469,4.995,4.978,-3.026
2848.0,-13.277,0.377,1.469,4.995,4.978,-3.026
2852.0,-12.834,0.978,1.621,4.995,4.526,-3.254
2856.0,-12.834,0.978,1.621,4.995,4.526,-3.254
2860.0,-12.464,1.966,1.405,4.995,3.824,-3.426
2864.0,-12.464,1.966,1.405,4.995,3.824,-3.426
2868.0,-12.464,1.966,1.405,4.995,3.824,-3.426
2872.0,-11.835,3.201,1.189,4.995,3.138,-3.508
2876.0,-11.835,3.201,1.189,4.995,3.138,-3.508
2880.0,-10.935,4.32,1.052,4.995,3.138,-3.486
2883.0,-10.935,4.32,1.052,4.995,2.484,-3.486
2887.0,-10.935,4.32,1.052,4.995,2.484,-3.486
2891.0,-10.177,5.612,0.89,4.995,1.883,-3.359
2895.0,-10.177,5.612,0.89,4.995,1.883,-3.359
2899.0,-9.646,7.06,0.914,4.995,1.883,-3.359
2903.0,-9.646,7.06,0.914,4.995,1.359,-3.13
2907.0,-9.646,7.06,0.914,4.995,1.359,-3.13
2911.0,-9.355,8.23,1.059,4.995,0.923,-2.809
2914.0,-9.355,8.23,1.059,4.995,0.923,-2.809
2918.0,-9.355,8.23,1.059,4.995,0.923,-2.809
2922.0,-9.003,9.364,1.292,4.995,0.588,-2.413
2926.0,-9.003,9.364,1.292,4.995,0.588,-2.413
2930.0,-8.594,10.259,1.765,4.956,0.357,-1.96
2934.0,-8.594,10.259,1.765,4.956,0.357,-1.96
2937.0,-8.594,10.259,1.765,4.956,0.357,-1.96
2941.0,-8.206,10.96,2.141,4.508,0.193,-1.53
2945.0,-8.206,10.96,2.141,4.508,0.193,-1.53
2949.0,-7.822,11.778,2.289,3.744,0.069,-1.175
2953.0,-7.822,11.778,2.289,3.744,0.069,-1.175
2957.0,-7.822,11.778,2.289,3.744,0.069,-1.175
2961.0,-7.801,12.433,2.377,2.85,-0.006,-0.923
2965.0,-7.801,12.433,2.377,2.85,-0.006,-0.923
2969.0,-7.861,12.678,2.179,1.82,-0.038,-0.805
2973.0,-7.861,12.678,2.179,1.82,-0.038,-0.805
2977.0,-7.861,12.678,2.179,1.82,-0.038,-0.805
2981.0,-7.635,12.631,1.924,0.65,0.003,-0.824
2985.0,-7.635,12.631,1.924,0.65,0.003,-0.824
2989.0,-7.751,12.165,2.194,-0.602,0.15,-0.942
2993.0,-7.751,12.165,2.194,-0.602,0.15,-0.942
2997.0,-7.751,12.165,2.194,-0.602,0.15,-0.942
