deltaTime,Acc_X,Acc_Y,Acc_Z,Gyro_X,Gyro_Y,Gyro_Z
0.0,0.826,6.45,7.2,-0.239,-0.647,-0.397
3.0,0.826,6.45,7.2,-0.239,-0.647,-0.397
6.0,0.826,6.45,7.2,-0.239,-0.647,-0.397
9.0,0.826,6.45,7.335,-0.239,-0.647,-0.397
12.0,0.878,5.856,7.335,-0.334,-0.646,-0.357
15.0,0.878,5.856,7.335,-0.334,-0.646,-0.357
18.0,0.878,5.856,7.335,-0.334,-0.646,-0.357
21.0,0.869,5.282,7.494,-0.314,-0.629,-0.323
24.0,0.869,5.282,7.494,-0.314,-0.629,-0.323
27.0,0.869,5.282,7.494,-0.314,-0.629,-0.323
30.0,1.104,4.972,7.601,-0.171,-0.629,-0.283
33.0,1.104,4.972,7.601,-0.171,-0.629,-0.283
36.0,1.104,4.972,7.601,-0.171,-0.629,-0.283
40.0,1.325,5.016,7.591,0.031,-0.622,-0.229
43.0,1.325,5.016,7.591,0.031,-0.622,-0.229
47.0,1.325,5.016,7.591,0.031,-0.622,-0.229
51.0,1.347,5.267,7.488,0.229,-0.597,-0.175
54.0,1.347,5.267,7.488,0.229,-0.597,-0.175
58.0,1.347,5.267,7.488,0.229,-0.597,-0.175
62.0,1.301,5.643,7.37,0.382,-0.572,-0.131
65.0,1.301,5.643,7.37,0.382,-0.572,-0.131
69.0,1.272,6.095,7.241,0.382,-0.535,-0.105
73.0,1.272,6.095,7.241,0.451,-0.535,-0.105
76.0,1.272,6.095,7.241,0.451,-0.535,-0.105
80.0,1.202,6.465,7.188,0.438,-0.497,-0.108
84.0,1.202,6.465,7.188,0.438,-0.497,-0.108
87.0,1.202,6.465,7.188,0.438,-0.497,-0.108
91.0,1.192,6.666,7.152,0.375,-0.464,-0.14
95.0,1.192,6.666,7.152,0.375,-0.464,-0.14
98.0,1.297,6.812,7.171,0.375,-0.464,-0.14
102.0,1.297,6.812,7.171,0.293,-0.427,-0.188
106.0,1.297,6.812,7.171,0.293,-0.427,-0.188
109.0,1.498,6.925,7.287,0.204,-0.382,-0.236
113.0,1.498,6.925,7.287,0.204,-0.382,-0.236
117.0,1.498,6.925,7.287,0.204,-0.382,-0.236
120.0,1.694,6.967,7.51,0.102,-0.322,-0.28
124.0,1.694,6.967,7.51,0.102,-0.322,-0.28
128.0,1.561,6.919,7.874,0.102,-0.322,-0.28
132.0,1.561,6.919,7.874,-0.002,-0.258,-0.331
136.0,1.561,6.919,7.874,-0.002,-0.258,-0.331
139.0,1.321,6.714,8.313,-0.077,-0.221,-0.386
143.0,1.321,6.714,8.313,-0.077,-0.221,-0.386
147.0,1.321,6.714,8.313,-0.077,-0.221,-0.386
151.0,1.149,6.502,8.645,-0.096,-0.218,-0.438
155.0,1.149,6.502,8.645,-0.096,-0.218,-0.438
158.0,1.138,6.394,9.032,-0.066,-0.237,-0.486
162.0,1.138,6.394,9.032,-0.066,-0.237,-0.486
166.0,1.138,6.394,9.032,-0.066,-0.237,-0.486
170.0,1.18,6.392,9.214,0.002,-0.273,-0.52
174.0,1.18,6.392,9.214,0.002,-0.273,-0.52
177.0,0.976,6.5,8.989,0.002,-0.273,-0.52
181.0,0.976,6.5,8.989,0.083,-0.332,-0.544
185.0,0.976,6.5,8.989,0.083,-0.332,-0.544
189.0,1.019,6.469,8.543,0.166,-0.415,-0.563
192.0,1.019,6.469,8.543,0.166,-0.415,-0.563
196.0,1.019,6.469,8.543,0.166,-0.415,-0.563
200.0,1.104,6.5,8.137,0.262,-0.467,-0.57
203.0,1.104,6.5,8.137,0.262,-0.467,-0.57
207.0,1.149,6.552,7.948,0.262,-0.504,-0.555
211.0,1.149,6.552,7.948,0.36,-0.504,-0.555
215.0,1.149,6.552,7.948,0.36,-0.504,-0.555
218.0,1.201,6.544,7.951,0.438,-0.538,-0.517
222.0,1.201,6.544,7.951,0.438,-0.538,-0.517
226.0,1.201,6.544,7.951,0.438,-0.538,-0.517
230.0,1.25,6.455,8.011,0.489,-0.555,-0.485
233.0,1.25,6.455,8.011,0.489,-0.555,-0.485
237.0,1.265,6.473,8.16,0.522,-0.558,-0.495
241.0,1.265,6.473,8.16,0.522,-0.558,-0.495
245.0,1.265,6.473,8.16,0.522,-0.558,-0.495
248.0,1.22,6.639,8.332,0.541,-0.587,-0.542
252.0,1.22,6.639,8.332,0.541,-0.587,-0.542
256.0,1.22,6.639,8.332,0.541,-0.587,-0.542
259.0,1.268,6.794,8.471,0.546,-0.637,-0.591
263.0,1.268,6.794,8.471,0.546,-0.637,-0.591
267.0,1.357,6.859,8.585,0.536,-0.68,-0.632
271.0,1.357,6.859,8.585,0.536,-0.68,-0.632
274.0,1.357,6.859,8.585,0.536,-0.68,-0.632
278.0,1.295,6.953,8.662,0.523,-0.723,-0.677
282.0,1.295,6.953,8.662,0.523,-0.723,-0.677
286.0,1.295,7.144,8.669,0.523,-0.723,-0.677
289.0,1.15,7.144,8.669,0.513,-0.786,-0.725
293.0,1.15,7.144,8.669,0.513,-0.786,-0.725
297.0,1.14,7.171,8.651,0.498,-0.856,-0.754
301.0,1.14,7.171,8.651,0.498,-0.856,-0.754
304.0,1.14,7.171,8.651,0.498,-0.856,-0.754
308.0,1.341,7.04,8.675,0.491,-0.907,-0.768
312.0,1.341,7.04,8.675,0.491,-0.907,-0.768
315.0,1.448,6.922,8.825,0.491,-0.907,-0.768
319.0,1.448,6.922,8.825,0.512,-0.942,-0.786
323.0,1.448,6.922,8.825,0.512,-0.942,-0.786
327.0,1.364,6.924,8.988,0.567,-0.984,-0.802
330.0,1.364,6.924,8.988,0.567,-0.984,-0.802
334.0,1.364,6.924,8.988,0.567,-0.984,-0.802
338.0,1.242,6.957,9.057,0.649,-1.041,-0.797
342.0,1.242,6.957,9.057,0.649,-1.041,-0.797
345.0,1.224,6.942,9.031,0.649,-1.041,-0.759
349.0,1.224,6.942,9.031,0.742,-1.093,-0.759
353.0,1.224,6.942,9.031,0.742,-1.093,-0.759
357.0,1.207,6.852,8.763,0.838,-1.134,-0.728
360.0,1.207,6.852,8.763,0.838,-1.134,-0.728
364.0,1.207,6.852,8.763,0.838,-1.134,-0.728
368.0,1.25,6.927,8.39,0.928,-1.18,-0.731
371.0,1.25,6.927,8.39,0.928,-1.18,-0.731
375.0,1.501,7.08,8.05,0.988,-1.223,-0.747
379.0,1.501,7.08,8.05,0.988,-1.223,-0.747
383.0,1.501,7.08,8.05,0.988,-1.223,-0.747
386.0,1.641,7.177,7.743,1.014,-1.248,-0.784
390.0,1.641,7.177,7.743,1.014,-1.248,-0.784
394.0,1.641,7.177,7.743,1.014,-1.248,-0.784
398.0,1.368,7.48,7.362,1.023,-1.284,-0.853
401.0,1.368,7.48,7.362,1.023,-1.284,-0.853
405.0,1.352,7.765,6.873,1.008,-1.338,-0.904
409.0,1.352,7.765,6.873,1.008,-1.338,-0.904
412.0,1.352,7.765,6.873,1.008,-1.338,-0.904
416.0,1.725,7.867,6.54,0.955,-1.359,-0.915
420.0,1.725,7.867,6.54,0.955,-1.359,-0.915
424.0,1.725,7.867,6.344,0.955,-1.359,-0.915
427.0,2.156,7.817,6.344,0.884,-1.343,-0.909
431.0,2.156,7.817,6.344,0.884,-1.343,-0.909
435.0,2.27,7.862,6.341,0.812,-1.311,-0.932
439.0,2.27,7.862,6.341,0.812,-1.311,-0.932
442.0,2.27,7.862,6.341,0.812,-1.311,-0.932
446.0,1.747,8.09,6.243,0.756,-1.299,-0.99
450.0,1.747,8.09,6.243,0.756,-1.299,-0.99
454.0,1.42,8.175,5.779,0.756,-1.299,-0.99
457.0,1.42,8.175,5.779,0.699,-1.317,-1.001
461.0,1.42,8.175,5.779,0.699,-1.317,-1.001
465.0,1.546,8.064,5.703,0.62,-1.296,-0.958
468.0,1.546,8.064,5.703,0.62,-1.296,-0.958
472.0,1.546,8.064,5.703,0.62,-1.296,-0.958
476.0,1.506,7.838,5.696,0.554,-1.249,-0.927
480.0,1.506,7.838,5.696,0.554,-1.249,-0.927
483.0,1.283,7.72,5.597,0.554,-1.249,-0.925
487.0,1.283,7.72,5.597,0.516,-1.21,-0.925
491.0,1.283,7.72,5.597,0.516,-1.21,-0.925
495.0,0.674,7.708,5.218,0.501,-1.177,-0.931
498.0,0.674,7.708,5.218,0.501,-1.177,-0.931
502.0,0.674,7.708,5.218,0.501,-1.177,-0.931
506.0,0.173,7.686,4.749,0.502,-1.147,-0.898
510.0,0.173,7.686,4.749,0.502,-1.147,-0.898
513.0,-0.072,7.722,4.604,0.502,-1.108,-0.832
517.0,-0.072,7.722,4.604,0.52,-1.108,-0.832
521.0,-0.072,7.722,4.604,0.52,-1.108,-0.832
525.0,-0.086,7.853,4.405,0.556,-1.092,-0.728
529.0,-0.086,7.853,4.405,0.556,-1.092,-0.728
532.0,-0.086,8.084,4.497,0.556,-1.092,-0.728
536.0,0.004,8.084,4.497,0.585,-1.056,-0.589
540.0,0.004,8.084,4.497,0.585,-1.056,-0.589
544.0,-0.422,8.526,4.536,0.633,-1.009,-0.472
547.0,-0.422,8.526,4.536,0.633,-1.009,-0.472
551.0,-0.422,8.526,4.536,0.633,-1.009,-0.472
555.0,-0.709,8.921,4.392,0.697,-0.991,-0.359
559.0,-0.709,8.921,4.392,0.697,-0.991,-0.359
563.0,-0.865,9.242,4.309,0.767,-0.975,-0.269
567.0,-0.865,9.242,4.309,0.767,-0.975,-0.269
570.0,-0.865,9.242,4.309,0.767,-0.975,-0.269
574.0,-1.089,9.814,4.028,0.852,-0.982,-0.187
578.0,-1.089,9.814,4.028,0.852,-0.982,-0.187
582.0,-1.054,10.394,3.63,0.852,-0.982,-0.187
586.0,-1.054,10.394,3.63,0.926,-0.984,-0.007
590.0,-1.054,10.394,3.63,0.926,-0.984,-0.007
594.0,-0.918,10.681,3.358,0.976,-0.948,0.267
597.0,-0.918,10.681,3.358,0.976,-0.948,0.267
601.0,-0.918,10.681,3.106,0.976,-0.948,0.267
605.0,-0.788,10.741,3.106,1.016,-0.892,0.519
609.0,-0.788,10.741,3.106,1.016,-0.892,0.519
613.0,-0.907,11.055,2.97,1.045,-0.825,0.676
616.0,-0.907,11.055,2.97,1.045,-0.825,0.676
620.0,-0.907,11.055,2.97,1.045,-0.825,0.676
624.0,-1.12,11.499,2.891,1.052,-0.757,0.795
628.0,-1.12,11.499,2.891,1.052,-0.757,0.795
632.0,-1.324,11.843,2.974,1.052,-0.672,0.928
636.0,-1.324,11.843,2.974,1.036,-0.672,0.928
639.0,-1.324,11.843,2.974,1.036,-0.672,0.928
643.0,-1.531,12.141,3.242,1.01,-0.586,1.062
647.0,-1.531,12.141,3.242,1.01,-0.586,1.062
651.0,-1.531,12.463,3.41,1.01,-0.586,1.062
655.0,-1.699,12.463,3.41,0.97,-0.523,1.188
659.0,-1.699,12.463,3.41,0.97,-0.523,1.188
662.0,-1.628,12.686,3.513,0.902,-0.468,1.315
666.0,-1.628,12.686,3.513,0.902,-0.468,1.315
670.0,-1.628,12.686,3.513,0.902,-0.468,1.315
674.0,-1.392,12.809,3.577,0.811,-0.401,1.428
678.0,-1.392,12.809,3.577,0.811,-0.401,1.428
681.0,-1.172,12.844,3.589,0.704,-0.327,1.538
685.0,-1.172,12.844,3.589,0.704,-0.327,1.538
689.0,-1.172,12.844,3.589,0.704,-0.327,1.538
693.0,-1.012,12.728,3.48,0.577,-0.246,1.682
697.0,-1.012,12.728,3.48,0.577,-0.246,1.682
701.0,-0.788,12.33,3.324,0.577,-0.246,1.86
704.0,-0.788,12.33,3.324,0.431,-0.155,1.86
708.0,-0.788,12.33,3.324,0.431,-0.155,1.86
712.0,-0.604,11.893,3.371,0.286,-0.052,2.005
716.0,-0.604,11.893,3.371,0.286,-0.052,2.005
720.0,-0.604,11.893,3.371,0.286,-0.052,2.005
723.0,-0.657,11.626,3.552,0.17,0.037,2.1
727.0,-0.657,11.626,3.552,0.17,0.037,2.1
731.0,-0.76,11.476,3.87,0.082,0.106,2.208
735.0,-0.76,11.476,3.87,0.082,0.106,2.208
738.0,-0.76,11.476,3.87,0.082,0.106,2.208
742.0,-0.926,11.24,4.213,0.031,0.155,2.357
746.0,-0.926,11.24,4.213,0.031,0.155,2.357
750.0,-0.926,10.904,4.433,0.031,0.155,2.357
753.0,-1.0,10.904,4.433,0.021,0.182,2.534
757.0,-1.0,10.904,4.433,0.021,0.182,2.534
761.0,-0.986,10.605,4.598,0.047,0.202,2.701
764.0,-0.986,10.605,4.598,0.047,0.202,2.701
768.0,-0.986,10.605,4.598,0.047,0.202,2.701
772.0,-0.925,10.39,4.676,0.099,0.218,2.84
776.0,-0.925,10.39,4.676,0.099,0.218,2.84
779.0,-0.806,10.278,4.787,0.099,0.218,2.84
783.0,-0.806,10.278,4.787,0.171,0.229,2.953
787.0,-0.806,10.278,4.787,0.171,0.229,2.953
791.0,-0.63,10.216,4.898,0.252,0.231,3.06
794.0,-0.63,10.216,4.898,0.252,0.231,3.06
798.0,-0.63,10.216,4.898,0.252,0.231,3.06
802.0,-0.358,10.046,4.967,0.33,0.236,3.179
806.0,-0.358,10.046,4.967,0.33,0.236,3.179
809.0,-0.02,9.764,5.011,0.33,0.25,3.29
813.0,-0.02,9.764,5.011,0.397,0.25,3.29
817.0,-0.02,9.764,5.011,0.397,0.25,3.29
820.0,0.284,9.484,4.989,0.456,0.266,3.374
824.0,0.284,9.484,4.989,0.456,0.266,3.374
827.0,0.284,9.484,4.989,0.456,0.266,3.374
831.0,0.583,9.258,5.008,0.494,0.278,3.444
834.0,0.583,9.258,5.008,0.494,0.278,3.444
838.0,0.583,9.258,5.008,0.494,0.278,3.444
842.0,0.885,9.027,4.973,0.511,0.287,3.505
845.0,0.885,9.027,4.973,0.511,0.287,3.505
849.0,1.118,8.792,4.939,0.511,0.287,3.573
852.0,1.118,8.792,4.939,0.506,0.29,3.573
856.0,1.118,8.792,4.939,0.506,0.29,3.573
859.0,1.351,8.423,4.855,0.477,0.292,3.661
863.0,1.351,8.423,4.855,0.477,0.292,3.661
866.0,1.351,8.423,4.855,0.477,0.292,3.661
870.0,1.512,8.078,4.896,0.43,0.3,3.747
874.0,1.512,8.078,4.896,0.43,0.3,3.747
877.0,1.512,8.078,4.896,0.43,0.3,3.747
881.0,1.578,7.793,4.874,0.377,0.301,3.824
884.0,1.578,7.793,4.874,0.377,0.301,3.824
888.0,1.664,7.519,4.868,0.377,0.301,3.824
891.0,1.664,7.519,4.868,0.309,0.299,3.905
895.0,1.664,7.519,4.868,0.309,0.299,3.905
899.0,1.707,7.14,4.798,0.227,0.291,3.983
902.0,1.707,7.14,4.798,0.227,0.291,3.983
906.0,1.707,7.14,4.798,0.227,0.291,3.983
909.0,1.77,6.663,4.56,0.125,0.281,4.052
913.0,1.77,6.663,4.56,0.125,0.281,4.052
916.0,1.77,6.663,4.56,0.125,0.281,4.052
920.0,1.929,6.13,4.444,-0.004,0.278,4.119
924.0,1.929,6.13,4.444,-0.004,0.278,4.119
927.0,1.929,5.626,4.431,-0.004,0.278,4.119
931.0,2.051,5.626,4.431,-0.146,0.275,4.16
934.0,2.051,5.626,4.431,-0.146,0.275,4.16
938.0,2.171,5.101,4.372,-0.287,0.265,4.168
942.0,2.171,5.101,4.372,-0.287,0.265,4.168
945.0,2.171,5.101,4.372,-0.287,0.265,4.168
949.0,2.229,4.7,4.455,-0.42,0.25,4.147
953.0,2.229,4.7,4.455,-0.42,0.25,4.147
956.0,2.229,4.7,4.455,-0.42,0.25,4.147
960.0,2.162,4.311,4.457,-0.541,0.227,4.123
964.0,2.162,4.311,4.457,-0.541,0.227,4.123
967.0,2.171,3.882,4.22,-0.541,0.201,4.108
971.0,2.171,3.882,4.22,-0.651,0.201,4.108
975.0,2.171,3.882,4.22,-0.651,0.201,4.108
978.0,2.26,3.421,3.949,-0.758,0.197,4.107
982.0,2.26,3.421,3.949,-0.758,0.197,4.107
985.0,2.26,3.421,3.949,-0.758,0.197,4.107
989.0,2.466,2.961,3.841,-0.871,0.204,4.125
993.0,2.466,2.961,3.841,-0.871,0.204,4.125
996.0,2.681,2.451,3.846,-0.871,0.204,4.125
1000.0,2.681,2.451,3.846,-0.988,0.209,4.155
1004.0,2.681,2.451,3.846,-0.988,0.209,4.155
1008.0,2.81,1.923,3.776,-1.106,0.202,4.183
1011.0,2.81,1.923,3.776,-1.106,0.202,4.183
1015.0,2.81,1.923,3.776,-1.106,0.202,4.183
1019.0,2.847,1.353,3.665,-1.217,0.195,4.2
1022.0,2.847,1.353,3.665,-1.217,0.195,4.2
1026.0,2.803,0.786,3.585,-1.217,0.195,4.18
1030.0,2.803,0.786,3.585,-1.313,0.192,4.18
1034.0,2.803,0.786,3.585,-1.313,0.192,4.18
1037.0,2.603,0.331,3.503,-1.389,0.193,4.127
1041.0,2.603,0.331,3.503,-1.389,0.193,4.127
1045.0,2.603,0.331,3.503,-1.389,0.193,4.127
1049.0,2.371,-0.045,3.439,-1.454,0.178,4.087
1052.0,2.371,-0.045,3.439,-1.454,0.178,4.087
1056.0,2.196,-0.474,3.261,-1.522,0.149,4.09
1060.0,2.196,-0.474,3.261,-1.522,0.149,4.09
1064.0,2.196,-0.474,3.261,-1.522,0.149,4.09
1068.0,2.076,-0.962,3.058,-1.587,0.125,4.115
1072.0,2.076,-0.962,3.058,-1.587,0.125,4.115
1075.0,2.072,-1.515,2.728,-1.587,0.125,4.115
1079.0,2.072,-1.515,2.728,-1.643,0.119,4.131
1083.0,2.072,-1.515,2.728,-1.643,0.119,4.131
1087.0,2.102,-1.96,2.591,-1.693,0.135,4.125
1091.0,2.102,-1.96,2.591,-1.693,0.135,4.125
1094.0,2.102,-1.96,2.591,-1.693,0.135,4.125
1098.0,1.998,-2.294,2.584,-1.734,0.151,4.107
1102.0,1.998,-2.294,2.584,-1.734,0.151,4.107
1106.0,1.626,-2.635,2.436,-1.761,0.151,4.097
1110.0,1.626,-2.635,2.436,-1.761,0.151,4.097
1114.0,1.626,-2.635,2.436,-1.761,0.151,4.097
1117.0,1.022,-3.071,2.253,-1.784,0.124,4.11
1121.0,1.022,-3.071,2.253,-1.784,0.124,4.11
1125.0,0.412,-3.479,2.106,-1.784,0.124,4.129
1129.0,0.412,-3.479,2.106,-1.798,0.072,4.129
1133.0,0.412,-3.479,2.106,-1.798,0.072,4.129
1136.0,-0.252,-3.851,1.894,-1.797,0.02,4.141
1140.0,-0.252,-3.851,1.894,-1.797,0.02,4.141
1144.0,-0.252,-4.199,1.654,-1.797,0.02,4.141
1148.0,-0.932,-4.199,1.654,-1.783,-0.041,4.154
1152.0,-0.932,-4.199,1.654,-1.783,-0.041,4.154
1156.0,-1.61,-4.407,1.296,-1.756,-0.103,4.168
1160.0,-1.61,-4.407,1.296,-1.756,-0.103,4.168
1164.0,-2.294,-4.612,0.619,-1.756,-0.103,4.168
1168.0,-2.294,-4.612,0.619,-1.72,-0.148,4.204
1172.0,-2.294,-4.612,0.619,-1.72,-0.148,4.204
1176.0,-2.715,-4.948,0.102,-1.695,-0.19,4.296
1180.0,-2.715,-4.948,0.102,-1.695,-0.19,4.296
1184.0,-2.59,-5.42,-0.121,-1.695,-0.19,4.296
1188.0,-2.59,-5.42,-0.121,-1.68,-0.222,4.429
1192.0,-2.59,-5.42,-0.121,-1.68,-0.222,4.429
1196.0,-1.985,-6.081,0.054,-1.668,-0.23,4.573
1200.0,-1.985,-6.081,0.054,-1.668,-0.23,4.573
1204.0,-1.212,-6.895,0.361,-1.646,-0.247,4.699
1208.0,-1.212,-6.895,0.361,-1.646,-0.247,4.699
1212.0,-1.212,-6.895,0.361,-1.646,-0.247,4.699
1216.0,-0.684,-7.746,0.303,-1.591,-0.274,4.787
1220.0,-0.684,-7.746,0.303,-1.591,-0.274,4.787
1224.0,-0.535,-8.571,-0.001,-1.499,-0.298,4.849
1228.0,-0.535,-8.571,-0.001,-1.499,-0.298,4.849
1232.0,-0.535,-8.571,-0.001,-1.499,-0.298,4.849
1237.0,-0.651,-9.385,-0.392,-1.39,-0.316,4.915
1241.0,-0.651,-9.385,-0.392,-1.39,-0.316,4.915
1245.0,-0.996,-10.157,-0.751,-1.278,-0.323,4.982
1249.0,-0.996,-10.157,-0.751,-1.278,-0.323,4.982
1253.0,-1.452,-10.924,-1.018,-1.278,-0.323,4.982
1257.0,-1.452,-10.924,-1.018,-1.178,-0.341,5.011
1261.0,-1.452,-10.924,-1.018,-1.178,-0.341,5.011
1266.0,-1.928,-11.606,-1.282,-1.087,-0.369,5.013
1270.0,-1.928,-11.606,-1.282,-1.087,-0.369,5.013
1274.0,-2.4,-12.15,-1.376,-0.991,-0.4,5.013
1278.0,-2.4,-12.15,-1.376,-0.991,-0.4,5.013
1282.0,-2.4,-12.15,-1.376,-0.991,-0.4,5.013
1286.0,-2.821,-12.785,-1.289,-0.881,-0.422,5.013
1291.0,-2.821,-12.785,-1.289,-0.881,-0.422,5.013
1295.0,-3.028,-13.476,-1.49,-0.77,-0.421,5.0
1299.0,-3.028,-13.476,-1.49,-0.77,-0.421,5.0
1303.0,-2.911,-13.914,-1.573,-0.679,-0.378,4.87
1307.0,-2.911,-13.914,-1.573,-0.679,-0.378,4.87
1311.0,-2.911,-13.914,-1.573,-0.679,-0.378,4.87
1316.0,-2.347,-14.217,-1.186,-0.625,-0.307,4.617
1320.0,-2.347,-14.217,-1.186,-0.625,-0.307,4.617
1324.0,-1.668,-14.63,-0.719,-0.612,-0.238,4.314
1328.0,-1.668,-14.63,-0.719,-0.612,-0.238,4.314
1332.0,-1.277,-15.133,-0.514,-0.612,-0.238,3.965
1336.0,-1.277,-15.133,-0.514,-0.615,-0.181,3.965
1341.0,-1.277,-15.133,-0.514,-0.615,-0.181,3.965
1345.0,-1.386,-15.42,-0.521,-0.602,-0.105,3.575
1349.0,-1.386,-15.42,-0.521,-0.602,-0.105,3.575
1353.0,-1.645,-15.647,-0.111,-0.567,0.007,3.212
1357.0,-1.645,-15.647,-0.111,-0.567,0.007,3.212
1361.0,-1.645,-15.647,0.51,-0.567,0.007,3.212
1365.0,-1.532,-16.097,0.51,-0.512,0.085,2.942
1369.0,-1.532,-16.097,0.51,-0.512,0.085,2.942
1373.0,-1.204,-16.702,0.924,-0.409,0.106,2.739
1377.0,-1.204,-16.702,0.924,-0.409,0.106,2.739
1381.0,-1.204,-17.236,1.071,-0.409,0.106,2.739
1385.0,-0.864,-17.236,1.071,-0.249,0.124,2.576
1389.0,-0.864,-17.236,1.071,-0.249,0.124,2.576
1393.0,-0.433,-17.545,1.375,-0.066,0.154,2.457
1397.0,-0.433,-17.545,1.375,-0.066,0.154,2.457
1401.0,0.263,-17.648,2.058,-0.066,0.154,2.457
1405.0,0.263,-17.648,2.058,0.096,0.162,2.348
1409.0,0.263,-17.648,2.058,0.096,0.162,2.348
1413.0,1.0,-17.505,2.523,0.215,0.127,2.205
1416.0,1.0,-17.505,2.523,0.215,0.127,2.205
1420.0,1.0,-17.505,2.523,0.215,0.127,2.205
1424.0,1.285,-17.036,2.389,0.284,0.08,2.028
1428.0,1.285,-17.036,2.389,0.284,0.08,2.028
1432.0,0.776,-16.312,2.152,0.277,0.097,1.863
1436.0,0.776,-16.312,2.152,0.277,0.097,1.863
1439.0,0.776,-16.312,2.152,0.277,0.097,1.863
1443.0,-0.001,-15.702,2.472,0.186,0.161,1.754
1447.0,-0.001,-15.702,2.472,0.186,0.161,1.754
1451.0,-0.33,-15.502,3.084,0.045,0.171,1.681
1455.0,-0.33,-15.502,3.084,0.045,0.171,1.681
1459.0,-0.33,-15.502,3.084,0.045,0.171,1.681
1463.0,-0.153,-15.581,3.252,-0.094,0.111,1.58
1467.0,-0.153,-15.581,3.252,-0.094,0.111,1.58
1471.0,0.089,-15.853,3.02,-0.19,0.058,1.446
1475.0,0.089,-15.853,3.02,-0.19,0.058,1.446
1479.0,0.089,-15.853,3.02,-0.19,0.058,1.446
1482.0,0.081,-16.158,2.919,-0.236,0.059,1.316
1486.0,0.081,-16.158,2.919,-0.236,0.059,1.316
1490.0,-0.142,-16.421,3.064,-0.236,0.059,1.187
1494.0,-0.142,-16.421,3.064,-0.223,0.076,1.187
1498.0,-0.142,-16.421,3.064,-0.223,0.076,1.187
1502.0,-0.501,-16.492,3.213,-0.142,0.081,1.05
1506.0,-0.501,-16.492,3.213,-0.142,0.081,1.05
1510.0,-0.711,-16.396,3.395,-0.019,0.077,0.923
1514.0,-0.711,-16.396,3.395,-0.019,0.077,0.923
1518.0,-0.711,-16.396,3.395,-0.019,0.077,0.923
1522.0,-0.52,-16.225,3.525,0.11,0.038,0.81
1526.0,-0.52,-16.225,3.525,0.11,0.038,0.81
1530.0,-0.071,-15.87,3.389,0.224,-0.033,0.682
1534.0,-0.071,-15.87,3.389,0.224,-0.033,0.682
1538.0,-0.071,-15.87,3.389,0.224,-0.033,0.682
1542.0,0.198,-15.281,3.151,0.308,-0.08,0.529
1546.0,0.198,-15.281,3.151,0.308,-0.08,0.529
1550.0,0.119,-14.591,3.101,0.356,-0.092,0.373
1554.0,0.119,-14.591,3.101,0.356,-0.092,0.373
1558.0,0.119,-14.591,3.101,0.356,-0.092,0.373
1562.0,-0.241,-13.996,3.068,0.37,-0.098,0.215
1566.0,-0.241,-13.996,3.068,0.37,-0.098,0.215
1570.0,-0.8,-13.463,2.99,0.368,-0.108,0.054
1574.0,-0.8,-13.463,2.99,0.368,-0.108,0.054
1578.0,-0.8,-13.463,2.99,0.368,-0.108,0.054
1581.0,-1.29,-13.016,2.962,0.36,-0.116,-0.092
1586.0,-1.29,-13.016,2.962,0.36,-0.116,-0.092
1590.0,-1.587,-12.613,3.008,0.354,-0.127,-0.2
1594.0,-1.587,-12.613,3.008,0.354,-0.127,-0.2
1598.0,-1.587,-12.613,3.008,0.354,-0.127,-0.2
1602.0,-1.604,-12.337,3.015,0.35,-0.161,-0.293
1606.0,-1.604,-12.337,3.015,0.35,-0.161,-0.293
1610.0,-1.533,-12.133,2.84,0.361,-0.19,-0.382
1614.0,-1.533,-12.133,2.84,0.361,-0.19,-0.382
1618.0,-1.541,-11.894,2.676,0.361,-0.19,-0.382
1622.0,-1.541,-11.894,2.676,0.393,-0.191,-0.455
1626.0,-1.541,-11.894,2.676,0.393,-0.191,-0.455
1630.0,-1.544,-11.576,2.774,0.445,-0.177,-0.507
1635.0,-1.544,-11.576,2.774,0.445,-0.177,-0.507
1639.0,-1.41,-11.265,2.91,0.507,-0.177,-0.538
1643.0,-1.41,-11.265,2.91,0.507,-0.177,-0.538
1647.0,-1.41,-11.265,2.91,0.507,-0.177,-0.538
1651.0,-1.162,-10.954,2.934,0.572,-0.199,-0.552
1655.0,-1.162,-10.954,2.934,0.572,-0.199,-0.552
1659.0,-1.041,-10.641,2.825,0.632,-0.219,-0.557
1663.0,-1.041,-10.641,2.825,0.632,-0.219,-0.557
1667.0,-1.041,-10.641,2.743,0.632,-0.219,-0.557
1671.0,-1.108,-10.285,2.743,0.679,-0.218,-0.555
1675.0,-1.108,-10.285,2.743,0.679,-0.218,-0.555
1679.0,-1.221,-9.954,2.688,0.704,-0.207,-0.547
1683.0,-1.221,-9.954,2.688,0.704,-0.207,-0.547
1687.0,-1.324,-9.629,2.629,0.704,-0.207,-0.547
1691.0,-1.324,-9.629,2.629,0.706,-0.192,-0.533
1695.0,-1.324,-9.629,2.629,0.706,-0.192,-0.533
1699.0,-1.371,-9.275,2.672,0.695,-0.178,-0.518
1703.0,-1.371,-9.275,2.672,0.695,-0.178,-0.518
1707.0,-1.344,-8.934,2.772,0.695,-0.178,-0.497
1711.0,-1.344,-8.934,2.772,0.671,-0.172,-0.497
1715.0,-1.344,-8.934,2.772,0.671,-0.172,-0.497
1719.0,-1.259,-8.706,2.819,0.636,-0.174,-0.47
1723.0,-1.259,-8.706,2.819,0.636,-0.174,-0.47
1727.0,-1.158,-8.544,2.754,0.636,-0.176,-0.438
1731.0,-1.158,-8.544,2.754,0.593,-0.176,-0.438
1735.0,-1.158,-8.544,2.754,0.593,-0.176,-0.438
1739.0,-1.054,-8.416,2.707,0.546,-0.173,-0.411
1743.0,-1.054,-8.416,2.707,0.546,-0.173,-0.411
1747.0,-0.882,-8.247,2.676,0.501,-0.158,-0.388
1751.0,-0.882,-8.247,2.676,0.501,-0.158,-0.388
1755.0,-0.882,-8.247,2.676,0.501,-0.158,-0.388
1759.0,-0.676,-8.195,2.575,0.449,-0.141,-0.346
1763.0,-0.676,-8.195,2.575,0.449,-0.141,-0.346
1767.0,-0.537,-8.2,2.579,0.383,-0.134,-0.299
1771.0,-0.537,-8.2,2.579,0.383,-0.134,-0.299
1775.0,-0.537,-8.2,2.579,0.383,-0.134,-0.299
1779.0,-0.599,-8.194,2.655,0.309,-0.129,-0.271
1783.0,-0.599,-8.194,2.655,0.309,-0.129,-0.271
1787.0,-0.651,-8.207,2.717,0.235,-0.121,-0.245
1791.0,-0.651,-8.207,2.717,0.235,-0.121,-0.245
1795.0,-0.651,-8.207,2.717,0.235,-0.121,-0.245
1799.0,-0.668,-8.287,2.84,0.169,-0.102,-0.21
1803.0,-0.668,-8.287,2.84,0.169,-0.102,-0.21
1807.0,-0.462,-8.459,3.013,0.117,-0.083,-0.172
1811.0,-0.462,-8.459,3.013,0.117,-0.083,-0.172
1815.0,-0.462,-8.459,3.013,0.117,-0.083,-0.172
1819.0,-0.102,-8.658,3.123,0.085,-0.066,-0.144
1823.0,-0.102,-8.658,3.123,0.085,-0.066,-0.144
1827.0,0.15,-8.818,3.117,0.076,-0.042,-0.134
1831.0,0.15,-8.818,3.117,0.076,-0.042,-0.134
1835.0,0.15,-8.818,2.956,0.076,-0.042,-0.134
1839.0,0.126,-9.05,2.956,0.089,0.002,-0.127
1843.0,0.126,-9.05,2.956,0.089,0.002,-0.127
1847.0,-0.124,-9.314,2.791,0.12,0.061,-0.12
1850.0,-0.124,-9.314,2.791,0.12,0.061,-0.12
1854.0,-0.124,-9.314,2.791,0.12,0.061,-0.12
1858.0,-0.512,-9.542,2.749,0.174,0.103,-0.141
1862.0,-0.512,-9.542,2.749,0.174,0.103,-0.141
1866.0,-0.939,-9.604,2.801,0.256,0.117,-0.185
1870.0,-0.939,-9.604,2.801,0.256,0.117,-0.185
1874.0,-0.939,-9.604,2.801,0.256,0.117,-0.185
1878.0,-1.354,-9.597,2.829,0.357,0.115,-0.22
1882.0,-1.354,-9.597,2.829,0.357,0.115,-0.22
1886.0,-1.645,-9.635,2.825,0.463,0.113,-0.24
1889.0,-1.645,-9.635,2.825,0.463,0.113,-0.24
1893.0,-1.645,-9.635,2.825,0.463,0.113,-0.24
1897.0,-1.764,-9.605,2.897,0.56,0.119,-0.263
1901.0,-1.764,-9.605,2.897,0.56,0.119,-0.263
1905.0,-1.63,-9.497,2.961,0.634,0.128,-0.289
1909.0,-1.63,-9.497,2.961,0.634,0.128,-0.289
1913.0,-1.63,-9.497,2.961,0.634,0.128,-0.289
1917.0,-1.407,-9.427,3.016,0.681,0.142,-0.307
1921.0,-1.407,-9.427,3.016,0.681,0.142,-0.307
1925.0,-1.257,-9.385,3.199,0.681,0.163,-0.327
1929.0,-1.257,-9.385,3.199,0.702,0.163,-0.327
1932.0,-1.257,-9.385,3.199,0.702,0.163,-0.327
1936.0,-1.114,-9.362,3.427,0.69,0.179,-0.356
1940.0,-1.114,-9.362,3.427,0.69,0.179,-0.356
1944.0,-0.912,-9.318,3.666,0.69,0.179,-0.401
1948.0,-0.912,-9.318,3.666,0.645,0.178,-0.401
1952.0,-0.912,-9.318,3.666,0.645,0.178,-0.401
1956.0,-0.657,-9.255,3.815,0.568,0.159,-0.465
1960.0,-0.657,-9.255,3.815,0.568,0.159,-0.465
1964.0,-0.485,-9.127,3.863,0.568,0.159,-0.465
1968.0,-0.485,-9.127,3.863,0.465,0.145,-0.538
1972.0,-0.485,-9.127,3.863,0.465,0.145,-0.538
1975.0,-0.462,-8.969,3.958,0.338,0.149,-0.598
1979.0,-0.462,-8.969,3.958,0.338,0.149,-0.598
1983.0,-0.462,-8.814,4.223,0.338,0.149,-0.598
1987.0,-0.453,-8.814,4.223,0.193,0.161,-0.635
1991.0,-0.453,-8.814,4.223,0.193,0.161,-0.635
1995.0,-0.264,-8.811,4.447,0.048,0.153,-0.651
1999.0,-0.264,-8.811,4.447,0.048,0.153,-0.651
2003.0,-0.264,-8.811,4.496,0.048,0.153,-0.651
2007.0,0.08,-8.948,4.496,-0.079,0.138,-0.648
2011.0,0.08,-8.948,4.496,-0.079,0.138,-0.648
2014.0,0.342,-9.102,4.531,-0.176,0.134,-0.631
2018.0,0.342,-9.102,4.531,-0.176,0.134,-0.631
2022.0,0.342,-9.102,4.531,-0.176,0.134,-0.631
2026.0,0.529,-9.315,4.505,-0.241,0.143,-0.602
2030.0,0.529,-9.315,4.505,-0.241,0.143,-0.602
2034.0,0.653,-9.574,4.618,-0.271,0.164,-0.573
2038.0,0.653,-9.574,4.618,-0.271,0.164,-0.573
2042.0,0.653,-9.574,4.618,-0.271,0.164,-0.573
2046.0,0.875,-9.954,4.731,-0.256,0.168,-0.566
2050.0,0.875,-9.954,4.731,-0.256,0.168,-0.566
2054.0,0.81,-10.289,4.548,-0.199,0.167,-0.598
2058.0,0.81,-10.289,4.548,-0.199,0.167,-0.598
2062.0,0.81,-10.289,4.548,-0.199,0.167,-0.598
2066.0,0.387,-10.419,4.634,-0.115,0.197,-0.653
2070.0,0.387,-10.419,4.634,-0.115,0.197,-0.653
2074.0,0.286,-10.577,4.871,-0.026,0.196,-0.706
2078.0,0.286,-10.577,4.871,-0.026,0.196,-0.706
2081.0,0.286,-10.577,4.871,-0.026,0.196,-0.706
2085.0,0.599,-10.835,4.89,0.074,0.143,-0.785
2089.0,0.599,-10.835,4.89,0.074,0.143,-0.785
2093.0,0.873,-11.162,4.644,0.199,0.083,-0.88
2097.0,0.873,-11.162,4.644,0.199,0.083,-0.88
2101.0,0.873,-11.162,4.644,0.199,0.083,-0.88
2105.0,0.52,-11.526,4.219,0.325,0.062,-0.97
2109.0,0.52,-11.526,4.219,0.325,0.062,-0.97
2113.0,-0.232,-12.141,4.092,0.425,0.087,-1.06
2117.0,-0.232,-12.141,4.092,0.425,0.087,-1.06
2121.0,-0.232,-12.141,4.092,0.425,0.087,-1.06
2125.0,-0.867,-12.998,4.231,0.511,0.097,-1.175
2129.0,-0.867,-12.998,4.231,0.511,0.097,-1.175
2133.0,-1.081,-13.792,4.238,0.595,0.068,-1.346
2137.0,-1.081,-13.792,4.238,0.595,0.068,-1.346
2141.0,-1.081,-13.792,4.238,0.595,0.068,-1.346
2145.0,-0.635,-14.338,4.225,0.68,0.034,-1.564
2149.0,-0.635,-14.338,4.225,0.68,0.034,-1.564
2153.0,0.159,-14.401,4.402,0.756,-0.004,-1.802
2157.0,0.159,-14.401,4.402,0.756,-0.004,-1.802
2161.0,0.159,-14.401,4.678,0.756,-0.004,-1.802
2165.0,1.016,-14.341,4.678,0.787,-0.021,-2.019
2169.0,1.016,-14.341,4.678,0.787,-0.021,-2.019
2173.0,1.794,-14.341,4.889,0.776,-0.017,-2.213
2177.0,1.794,-14.341,4.889,0.776,-0.017,-2.213
2181.0,1.794,-14.272,4.973,0.776,-0.017,-2.213
2185.0,2.539,-14.272,4.973,0.764,-0.044,-2.424
2189.0,2.539,-14.272,4.973,0.764,-0.044,-2.424
2193.0,3.179,-14.237,4.901,0.77,-0.071,-2.644
2197.0,3.179,-14.237,4.901,0.77,-0.071,-2.644
2201.0,3.497,-14.154,4.828,0.77,-0.071,-2.644
2205.0,3.497,-14.154,4.828,0.802,-0.059,-2.838
2209.0,3.497,-14.154,4.828,0.802,-0.059,-2.838
2213.0,3.599,-14.278,4.917,0.868,-0.02,-2.984
2217.0,3.599,-14.278,4.917,0.868,-0.02,-2.984
2221.0,3.605,-14.533,5.181,0.868,-0.02,-3.124
2225.0,3.605,-14.533,5.181,0.985,0.013,-3.124
2229.0,3.605,-14.533,5.181,0.985,0.013,-3.124
2232.0,3.605,-14.478,5.414,1.155,0.01,-3.294
2236.0,3.605,-14.478,5.414,1.155,0.01,-3.294
2240.0,3.614,-14.17,5.441,1.155,0.01,-3.461
2244.0,3.614,-14.17,5.441,1.357,-0.004,-3.461
2248.0,3.614,-14.17,5.441,1.357,-0.004,-3.461
2252.0,3.477,-13.774,5.315,1.565,-0.006,-3.594
2256.0,3.477,-13.774,5.315,1.565,-0.006,-3.594
2260.0,3.145,-13.309,5.12,1.565,0.009,-3.706
2264.0,3.145,-13.309,5.12,1.769,0.009,-3.706
2268.0,3.145,-13.309,5.12,1.769,0.009,-3.706
2272.0,2.745,-12.532,4.973,1.961,0.037,-3.802
2276.0,2.745,-12.532,4.973,1.961,0.037,-3.802
2280.0,2.559,-11.648,4.826,1.961,0.037,-3.802
2284.0,2.559,-11.648,4.826,2.13,0.069,-3.879
2287.0,2.559,-11.648,4.826,2.13,0.069,-3.879
2291.0,2.627,-10.711,4.778,2.28,0.102,-3.95
2295.0,2.627,-10.711,4.778,2.28,0.102,-3.95
2299.0,2.872,-9.717,4.558,2.28,0.102,-3.95
2303.0,2.872,-9.717,4.558,2.415,0.133,-4.029
2307.0,2.872,-9.717,4.558,2.415,0.133,-4.029
2311.0,2.947,-8.729,4.191,2.521,0.171,-4.103
2314.0,2.947,-8.729,4.191,2.521,0.171,-4.103
2318.0,2.947,-8.729,4.191,2.521,0.171,-4.103
2322.0,2.759,-7.762,3.842,2.588,0.223,-4.145
2326.0,2.759,-7.762,3.842,2.588,0.223,-4.145
2330.0,2.493,-6.873,3.519,2.615,0.286,-4.143
2334.0,2.493,-6.873,3.519,2.615,0.286,-4.143
2337.0,2.493,-6.873,3.519,2.615,0.286,-4.143
2341.0,2.31,-6.168,3.346,2.615,0.359,-4.116
2345.0,2.31,-6.168,3.346,2.615,0.359,-4.116
2349.0,2.235,-5.481,3.38,2.615,0.359,-4.091
2353.0,2.235,-5.481,3.38,2.601,0.429,-4.091
2356.0,2.235,-5.481,3.38,2.601,0.429,-4.091
2360.0,2.255,-4.829,3.396,2.578,0.492,-4.067
2364.0,2.255,-4.829,3.396,2.578,0.492,-4.067
2368.0,2.255,-4.829,3.422,2.578,0.492,-4.067
2372.0,2.248,-4.305,3.422,2.547,0.546,-4.034
2376.0,2.248,-4.305,3.422,2.547,0.546,-4.034
2379.0,2.162,-3.899,3.511,2.519,0.584,-3.992
2383.0,2.162,-3.899,3.511,2.519,0.584,-3.992
2387.0,2.162,-3.899,3.511,2.519,0.584,-3.992
2391.0,2.154,-3.475,3.53,2.503,0.6,-3.955
2395.0,2.154,-3.475,3.53,2.503,0.6,-3.955
2399.0,2.157,-3.129,3.465,2.495,0.603,-3.919
2402.0,2.157,-3.129,3.465,2.495,0.603,-3.919
2406.0,2.157,-3.129,3.465,2.495,0.603,-3.919
2410.0,2.049,-2.94,3.408,2.492,0.607,-3.88
2414.0,2.049,-2.94,3.408,2.492,0.607,-3.88
2418.0,2.049,-2.834,3.303,2.492,0.607,-3.88
2421.0,1.853,-2.834,3.303,2.5,0.618,-3.839
2425.0,1.853,-2.834,3.303,2.5,0.618,-3.839
2429.0,1.737,-2.695,3.182,2.513,0.634,-3.809
2433.0,1.737,-2.695,3.182,2.513,0.634,-3.809
2437.0,1.737,-2.695,3.182,2.513,0.634,-3.809
2441.0,1.599,-2.649,3.265,2.52,0.66,-3.805
2444.0,1.599,-2.649,3.265,2.52,0.66,-3.805
2448.0,1.408,-2.295,3.449,2.507,0.687,-3.827
2452.0,1.408,-2.295,3.449,2.507,0.687,-3.827
2456.0,1.408,-2.295,3.449,2.507,0.687,-3.827
2460.0,1.131,-1.579,3.849,2.489,0.703,-3.853
2463.0,1.131,-1.579,3.849,2.489,0.703,-3.853
2467.0,0.873,-0.787,4.459,2.489,0.703,-3.84
2471.0,0.873,-0.787,4.459,2.478,0.676,-3.84
2475.0,0.873,-0.787,4.459,2.478,0.676,-3.84
2479.0,0.703,-0.431,5.128,2.492,0.588,-3.775
2483.0,0.703,-0.431,5.128,2.492,0.588,-3.775
2486.0,0.703,-0.431,5.128,2.492,0.588,-3.775
2490.0,0.455,-0.291,5.576,2.537,0.434,-3.682
2494.0,0.455,-0.291,5.576,2.537,0.434,-3.682
2498.0,0.444,0.035,5.468,2.613,0.229,-3.58
2502.0,0.444,0.035,5.468,2.613,0.229,-3.58
2505.0,0.444,0.035,5.468,2.613,0.229,-3.58
2509.0,0.785,0.4,5.229,2.708,0.035,-3.462
2513.0,0.785,0.4,5.229,2.708,0.035,-3.462
2516.0,1.339,0.727,5.183,2.708,0.035,-3.462
2520.0,1.339,0.727,5.183,2.8,-0.122,-3.346
2524.0,1.339,0.727,5.183,2.8,-0.122,-3.346
2528.0,1.947,1.085,5.174,2.874,-0.265,-3.258
2532.0,1.947,1.085,5.174,2.874,-0.265,-3.258
2535.0,1.947,1.085,5.174,2.874,-0.265,-3.258
2539.0,2.477,1.602,5.177,2.917,-0.406,-3.199
2543.0,2.477,1.602,5.177,2.917,-0.406,-3.199
2547.0,2.998,2.384,5.682,2.924,-0.544,-3.159
2551.0,2.998,2.384,5.682,2.924,-0.544,-3.159
2555.0,2.998,2.384,5.682,2.924,-0.544,-3.159
2558.0,3.553,3.231,5.704,2.903,-0.681,-3.121
2562.0,3.553,3.231,5.704,2.903,-0.681,-3.121
2566.0,3.945,4.242,5.575,2.903,-0.681,-3.071
2570.0,3.945,4.242,5.575,2.824,-0.811,-3.071
2574.0,3.945,4.242,5.575,2.824,-0.811,-3.071
2577.0,4.214,5.23,5.364,2.651,-0.936,-3.029
2581.0,4.214,5.23,5.364,2.651,-0.936,-3.029
2585.0,4.214,5.23,5.057,2.651,-0.936,-3.029
2589.0,4.298,6.075,5.057,2.369,-1.055,-2.994
2593.0,4.298,6.075,5.057,2.369,-1.055,-2.994
2597.0,4.466,6.806,4.836,1.962,-1.169,-2.943
2600.0,4.466,6.806,4.836,1.962,-1.169,-2.943
2604.0,4.466,6.806,4.836,1.962,-1.169,-2.943
2608.0,4.906,7.388,4.533,1.419,-1.263,-2.872
2612.0,4.906,7.388,4.533,1.419,-1.263,-2.872
2616.0,5.163,7.593,3.945,0.75,-1.305,-2.802
2620.0,5.163,7.593,3.945,0.75,-1.305,-2.802
2623.0,5.163,7.593,3.945,0.75,-1.305,-2.802
2627.0,5.147,7.47,3.251,-0.007,-1.287,-2.757
2631.0,5.147,7.47,3.251,-0.007,-1.287,-2.757
2635.0,5.304,7.094,2.608,-0.007,-1.287,-2.757
2639.0,5.304,7.094,2.608,-0.8,-1.216,-2.748
2643.0,5.304,7.094,2.608,-0.8,-1.216,-2.748
2647.0,5.503,6.57,2.151,-1.564,-1.082,-2.81
2651.0,5.503,6.57,2.151,-1.564,-1.082,-2.81
2654.0,5.503,5.953,1.836,-1.564,-1.082,-2.81
2658.0,5.744,5.953,1.836,-2.252,-0.912,-2.924
2662.0,5.744,5.953,1.836,-2.252,-0.912,-2.924
2666.0,6.08,5.475,1.86,-2.823,-0.709,-3.06
2670.0,6.08,5.475,1.86,-2.823,-0.709,-3.06
2674.0,6.08,5.475,2.088,-2.823,-0.709,-3.06
2678.0,6.178,5.02,2.088,-3.25,-0.465,-3.174
2682.0,6.178,5.02,2.088,-3.25,-0.465,-3.174
2686.0,6.105,4.314,2.247,-3.531,-0.2,-3.214
2690.0,6.105,4.314,2.247,-3.531,-0.2,-3.214
2694.0,6.105,4.314,2.247,-3.531,-0.2,-3.214
2697.0,6.057,3.355,2.443,-3.668,0.085,-3.186
2701.0,6.057,3.355,2.443,-3.668,0.085,-3.186
2705.0,5.898,2.332,2.651,-3.67,0.388,-3.13
2709.0,5.898,2.332,2.651,-3.67,0.388,-3.13
2713.0,5.898,2.332,2.651,-3.67,0.388,-3.13
2717.0,5.584,1.436,2.889,-3.558,0.702,-3.068
2720.0,5.584,1.436,2.889,-3.558,0.702,-3.068
2724.0,5.163,0.635,3.261,-3.558,1.012,-3.006
2728.0,5.163,0.635,3.261,-3.383,1.012,-3.006
2732.0,5.163,0.635,3.261,-3.383,1.012,-3.006
2736.0,4.12,0.486,4.296,-3.161,1.299,-2.96
2739.0,4.12,0.486,4.296,-3.161,1.299,-2.96
2743.0,4.12,0.584,5.287,-3.161,1.299,-2.96
2747.0,2.359,0.584,5.287,-2.873,1.499,-2.902
2751.0,2.359,0.584,5.287,-2.873,1.499,-2.902
2755.0,0.807,0.726,5.704,-2.545,1.576,-2.804
2759.0,0.807,0.726,5.704,-2.545,1.576,-2.804
2762.0,0.807,0.726,5.704,-2.545,1.576,-2.804
2766.0,0.108,0.84,5.673,-2.231,1.59,-2.669
2770.0,0.108,0.84,5.673,-2.231,1.59,-2.669
2774.0,0.252,0.808,5.473,-1.981,1.605,-2.535
2778.0,0.252,0.808,5.473,-1.981,1.605,-2.535
2781.0,0.252,0.808,5.473,-1.981,1.605,-2.535
2785.0,0.773,0.853,4.92,-1.832,1.653,-2.44
2789.0,0.773,0.853,4.92,-1.832,1.653,-2.44
2793.0,1.057,0.923,4.897,-1.832,1.653,-2.382
2797.0,1.057,0.923,4.897,-1.805,1.745,-2.382
2801.0,1.057,0.923,4.897,-1.805,1.745,-2.382
2804.0,0.724,1.056,5.655,-1.873,1.856,-2.362
2808.0,0.724,1.056,5.655,-1.873,1.856,-2.362
2812.0,0.724,1.056,5.655,-1.873,1.856,-2.362
2816.0,-0.373,1.088,6.593,-1.966,1.948,-2.386
2820.0,-0.373,1.088,6.593,-1.966,1.948,-2.386
2824.0,-1.525,1.159,7.324,-2.048,1.983,-2.433
2828.0,-1.525,1.159,7.324,-2.048,1.983,-2.433
2831.0,-1.525,1.159,7.324,-2.048,1.983,-2.433
2835.0,-2.107,1.378,8.204,-2.119,1.962,-2.471
2839.0,-2.107,1.378,8.204,-2.119,1.962,-2.471
2843.0,-2.282,1.865,9.184,-2.186,1.904,-2.46
2847.0,-2.282,1.865,9.184,-2.186,1.904,-2.46
2851.0,-2.282,1.865,9.184,-2.186,1.904,-2.46
2855.0,-2.296,2.262,9.942,-2.243,1.823,-2.374
2859.0,-2.296,2.262,9.942,-2.243,1.823,-2.374
2863.0,-2.39,2.457,11.076,-2.291,1.729,-2.234
2867.0,-2.39,2.457,11.076,-2.291,1.729,-2.234
2871.0,-2.39,2.457,11.076,-2.291,1.729,-2.234
2875.0,-2.568,2.534,11.947,-2.309,1.613,-2.089
2879.0,-2.568,2.534,11.947,-2.309,1.613,-2.089
2883.0,-2.779,2.452,12.636,-2.276,1.499,-1.959
2887.0,-2.779,2.452,12.636,-2.276,1.499,-1.959
2891.0,-2.779,2.452,12.636,-2.276,1.499,-1.959
2895.0,-2.897,2.469,13.169,-2.19,1.385,-1.843
2899.0,-2.897,2.469,13.169,-2.19,1.385,-1.843
2903.0,-2.731,2.673,13.698,-2.07,1.272,-1.726
2907.0,-2.731,2.673,13.698,-2.07,1.272,-1.726
2911.0,-2.731,2.673,13.698,-2.07,1.272,-1.726
2915.0,-2.457,2.901,14.43,-1.945,1.167,-1.59
2919.0,-2.457,2.901,14.43,-1.945,1.167,-1.59
2923.0,-2.62,3.23,15.308,-1.834,1.067,-1.435
2927.0,-2.62,3.23,15.308,-1.834,1.067,-1.435
2931.0,-2.62,3.23,16.076,-1.834,1.067,-1.435
2935.0,-3.179,3.527,16.076,-1.736,0.949,-1.271
2939.0,-3.179,3.527,16.076,-1.736,0.949,-1.271
2943.0,-3.513,3.699,16.755,-1.657,0.798,-1.135
2947.0,-3.513,3.699,16.755,-1.657,0.798,-1.135
2951.0,-3.513,3.824,17.329,-1.657,0.798,-1.135
2955.0,-3.622,3.824,17.329,-1.591,0.625,-1.045
2959.0,-3.622,3.824,17.329,-1.591,0.625,-1.045
2963.0,-3.681,3.974,17.531,-1.537,0.439,-0.987
2967.0,-3.681,3.974,17.531,-1.537,0.439,-0.987
2971.0,-3.677,4.131,17.463,-1.537,0.439,-0.987
2975.0,-3.677,4.131,17.463,-1.482,0.245,-0.94
2979.0,-3.677,4.131,17.463,-1.482,0.245,-0.94
2983.0,-3.176,4.119,17.336,-1.42,0.053,-0.883
2987.0,-3.176,4.119,17.336,-1.42,0.053,-0.883
2991.0,-2.548,3.909,17.11,-1.42,-0.118,-0.799
2995.0,-2.548,3.909,17.11,-1.347,-0.118,-0.799
2999.0,-2.548,3.909,17.11,-1.347,-0.118,-0.799
