deltaTime,Acc_X,Acc_Y,Acc_Z,Gyro_X,Gyro_Y,Gyro_Z
0.0,-4.903,-1.817,4.584,0.034,-0.612,0.086
3.0,-4.903,-1.817,4.584,0.034,-0.612,0.086
6.0,-4.903,-1.817,4.584,0.034,-0.612,0.086
9.0,-5.244,-1.692,4.459,0.045,-0.458,0.119
12.0,-5.244,-1.692,4.459,0.045,-0.458,0.119
15.0,-5.244,-1.692,4.459,0.045,-0.458,0.119
18.0,-5.369,-1.684,4.511,0.045,-0.41,0.155
21.0,-5.369,-1.684,4.511,0.063,-0.41,0.155
24.0,-5.369,-1.684,4.511,0.063,-0.41,0.155
27.0,-5.369,-1.684,4.511,0.063,-0.41,0.155
30.0,-5.54,-1.604,4.57,0.035,-0.361,0.188
33.0,-5.54,-1.604,4.57,0.035,-0.361,0.188
36.0,-5.54,-1.604,4.57,0.035,-0.361,0.188
40.0,-5.913,-1.549,4.915,-0.053,-0.311,0.211
44.0,-5.913,-1.549,4.915,-0.053,-0.311,0.211
48.0,-6.376,-1.558,5.378,-0.053,-0.311,0.215
51.0,-6.376,-1.558,5.378,-0.188,-0.291,0.215
55.0,-6.376,-1.558,5.378,-0.188,-0.291,0.215
59.0,-6.869,-1.545,5.658,-0.347,-0.261,0.195
63.0,-6.869,-1.545,5.658,-0.347,-0.261,0.195
67.0,-6.869,-1.545,5.887,-0.347,-0.261,0.195
70.0,-6.941,-2.011,5.887,-0.479,-0.255,0.161
74.0,-6.941,-2.011,5.887,-0.479,-0.255,0.161
78.0,-6.846,-2.157,6.136,-0.528,-0.254,0.135
82.0,-6.846,-2.157,6.136,-0.528,-0.254,0.135
86.0,-6.846,-2.157,6.136,-0.528,-0.254,0.135
90.0,-6.982,-2.3,6.379,-0.507,-0.258,0.097
93.0,-6.982,-2.3,6.379,-0.507,-0.258,0.097
97.0,-7.172,-2.161,6.568,-0.45,-0.292,0.031
101.0,-7.172,-2.161,6.568,-0.45,-0.292,0.031
105.0,-7.172,-2.161,6.568,-0.45,-0.292,0.031
109.0,-7.192,-1.902,6.678,-0.444,-0.315,-0.043
113.0,-7.192,-1.902,6.678,-0.444,-0.315,-0.043
117.0,-7.207,-1.798,6.796,-0.444,-0.324,-0.087
121.0,-7.207,-1.798,6.796,-0.504,-0.324,-0.087
125.0,-7.207,-1.798,6.796,-0.504,-0.324,-0.087
129.0,-7.161,-1.951,6.841,-0.58,-0.341,-0.089
133.0,-7.161,-1.951,6.841,-0.58,-0.341,-0.089
137.0,-6.962,-2.127,7.182,-0.638,-0.347,-0.066
141.0,-6.962,-2.127,7.182,-0.638,-0.347,-0.066
145.0,-6.962,-2.127,7.182,-0.638,-0.347,-0.066
149.0,-6.826,-2.28,7.7,-0.663,-0.343,-0.038
153.0,-6.826,-2.28,7.7,-0.663,-0.343,-0.038
157.0,-6.695,-2.394,7.917,-0.644,-0.347,-0.016
161.0,-6.695,-2.394,7.917,-0.644,-0.347,-0.016
165.0,-6.695,-2.394,7.917,-0.644,-0.347,-0.016
169.0,-6.547,-2.428,8.091,-0.617,-0.338,-0.006
173.0,-6.547,-2.428,8.091,-0.617,-0.338,-0.006
177.0,-6.525,-2.406,8.468,-0.586,-0.311,-0.011
181.0,-6.525,-2.406,8.468,-0.586,-0.311,-0.011
185.0,-6.525,-2.406,8.468,-0.586,-0.311,-0.011
189.0,-6.699,-2.366,8.799,-0.523,-0.293,-0.034
193.0,-6.699,-2.366,8.799,-0.523,-0.293,-0.034
197.0,-6.779,-2.216,8.992,-0.442,-0.296,-0.078
201.0,-6.779,-2.216,8.992,-0.442,-0.296,-0.078
205.0,-6.779,-2.216,8.992,-0.442,-0.296,-0.078
209.0,-6.634,-2.154,9.257,-0.378,-0.297,-0.124
213.0,-6.634,-2.154,9.257,-0.378,-0.297,-0.124
217.0,-6.399,-2.111,9.491,-0.314,-0.294,-0.16
221.0,-6.399,-2.111,9.491,-0.314,-0.294,-0.16
225.0,-6.399,-2.111,9.701,-0.314,-0.294,-0.16
229.0,-6.237,-2.067,9.701,-0.239,-0.29,-0.201
233.0,-6.237,-2.067,9.701,-0.239,-0.29,-0.201
237.0,-6.296,-1.965,9.77,-0.155,-0.29,-0.248
241.0,-6.296,-1.965,9.77,-0.155,-0.29,-0.248
245.0,-6.533,-1.988,9.848,-0.155,-0.29,-0.248
249.0,-6.533,-1.988,9.848,-0.086,-0.28,-0.277
253.0,-6.533,-1.988,9.848,-0.086,-0.28,-0.277
257.0,-6.974,-2.218,10.219,-0.018,-0.262,-0.289
261.0,-6.974,-2.218,10.219,-0.018,-0.262,-0.289
265.0,-7.618,-2.515,10.257,-0.018,-0.262,-0.284
269.0,-7.618,-2.515,10.257,0.104,-0.278,-0.284
273.0,-7.618,-2.515,10.257,0.104,-0.278,-0.284
277.0,-7.857,-2.524,10.428,0.252,-0.326,-0.274
281.0,-7.857,-2.524,10.428,0.252,-0.326,-0.274
285.0,-7.984,-2.634,10.089,0.365,-0.368,-0.253
289.0,-7.984,-2.634,10.089,0.365,-0.368,-0.253
293.0,-7.984,-2.634,10.089,0.365,-0.368,-0.253
297.0,-8.18,-2.925,9.935,0.453,-0.399,-0.219
301.0,-8.18,-2.925,9.935,0.453,-0.399,-0.219
305.0,-8.588,-3.27,9.925,0.553,-0.417,-0.17
308.0,-8.588,-3.27,9.925,0.553,-0.417,-0.17
312.0,-8.588,-3.27,9.925,0.553,-0.417,-0.17
316.0,-8.542,-3.636,9.741,0.695,-0.437,-0.105
320.0,-8.542,-3.636,9.741,0.695,-0.437,-0.105
324.0,-8.181,-2.954,9.317,0.695,-0.454,-0.084
328.0,-8.181,-2.954,9.317,0.824,-0.454,-0.084
332.0,-8.181,-2.954,9.317,0.824,-0.454,-0.084
336.0,-8.029,-3.045,9.197,0.814,-0.48,-0.146
340.0,-8.029,-3.045,9.197,0.814,-0.48,-0.146
344.0,-7.775,-3.067,9.051,0.814,-0.48,-0.203
348.0,-7.775,-3.067,9.051,0.788,-0.515,-0.203
351.0,-7.775,-3.067,9.051,0.788,-0.515,-0.203
355.0,-7.455,-3.206,8.953,0.772,-0.542,-0.261
359.0,-7.455,-3.206,8.953,0.772,-0.542,-0.261
363.0,-7.114,-2.687,8.835,0.772,-0.542,-0.261
367.0,-7.114,-2.687,8.835,0.741,-0.577,-0.315
371.0,-7.114,-2.687,8.835,0.741,-0.577,-0.315
375.0,-6.824,-2.614,8.572,0.632,-0.631,-0.354
379.0,-6.824,-2.614,8.572,0.632,-0.631,-0.354
383.0,-6.824,-2.901,8.236,0.632,-0.631,-0.354
387.0,-6.453,-2.901,8.236,0.481,-0.688,-0.346
390.0,-6.453,-2.901,8.236,0.481,-0.688,-0.346
394.0,-6.113,-3.373,8.112,0.298,-0.712,-0.287
398.0,-6.113,-3.373,8.112,0.298,-0.712,-0.287
402.0,-6.113,-3.373,8.097,0.298,-0.712,-0.287
406.0,-6.027,-3.945,8.097,0.104,-0.691,-0.192
410.0,-6.027,-3.945,8.097,0.104,-0.691,-0.192
414.0,-6.315,-4.578,8.355,-0.07,-0.64,-0.089
418.0,-6.315,-4.578,8.355,-0.07,-0.64,-0.089
422.0,-6.315,-4.578,8.908,-0.07,-0.64,-0.089
426.0,-6.901,-5.063,8.908,-0.174,-0.611,-0.006
430.0,-6.901,-5.063,8.908,-0.174,-0.611,-0.006
434.0,-7.429,-5.341,9.558,-0.174,-0.653,0.049
438.0,-7.429,-5.341,9.558,-0.174,-0.653,0.049
442.0,-7.429,-5.341,9.936,-0.174,-0.653,0.049
446.0,-7.595,-5.437,9.936,-0.079,-0.765,0.077
450.0,-7.595,-5.437,9.936,-0.079,-0.765,0.077
453.0,-7.447,-5.614,10.256,0.069,-0.904,0.086
457.0,-7.447,-5.614,10.256,0.069,-0.904,0.086
461.0,-7.447,-5.614,10.256,0.069,-0.904,0.086
465.0,-7.239,-5.807,10.476,0.225,-1.043,0.083
469.0,-7.239,-5.807,10.476,0.225,-1.043,0.083
473.0,-6.89,-5.926,10.33,0.353,-1.166,0.07
477.0,-6.89,-5.926,10.33,0.353,-1.166,0.07
481.0,-6.89,-5.926,10.33,0.353,-1.166,0.07
485.0,-6.421,-5.938,10.162,0.438,-1.253,0.041
489.0,-6.421,-5.938,10.162,0.438,-1.253,0.041
492.0,-6.055,-5.849,10.027,0.499,-1.316,-0.0
496.0,-6.055,-5.849,10.027,0.499,-1.316,-0.0
500.0,-6.055,-5.849,10.027,0.499,-1.316,-0.0
504.0,-5.885,-5.668,9.977,0.558,-1.375,-0.055
508.0,-5.885,-5.668,9.977,0.558,-1.375,-0.055
512.0,-5.689,-5.478,10.22,0.616,-1.45,-0.122
516.0,-5.689,-5.478,10.22,0.616,-1.45,-0.122
520.0,-5.689,-5.478,10.22,0.616,-1.45,-0.122
524.0,-5.321,-5.285,10.434,0.687,-1.55,-0.202
528.0,-5.321,-5.285,10.434,0.687,-1.55,-0.202
532.0,-4.917,-5.315,10.496,0.785,-1.666,-0.292
536.0,-4.917,-5.315,10.496,0.785,-1.666,-0.292
540.0,-4.917,-5.315,10.496,0.785,-1.666,-0.292
544.0,-4.487,-5.64,10.671,0.917,-1.791,-0.394
548.0,-4.487,-5.64,10.671,0.917,-1.791,-0.394
552.0,-3.988,-6.087,10.728,1.093,-1.912,-0.511
556.0,-3.988,-6.087,10.728,1.093,-1.912,-0.511
560.0,-3.988,-6.087,10.571,1.093,-1.912,-0.511
564.0,-3.491,-6.512,10.571,1.302,-2.008,-0.636
568.0,-3.491,-6.512,10.571,1.302,-2.008,-0.636
572.0,-3.145,-6.939,10.39,1.524,-2.075,-0.763
576.0,-3.145,-6.939,10.39,1.524,-2.075,-0.763
580.0,-3.145,-7.417,10.163,1.524,-2.075,-0.763
584.0,-2.922,-7.417,10.163,1.752,-2.142,-0.902
588.0,-2.922,-7.417,10.163,1.752,-2.142,-0.902
592.0,-2.514,-7.774,9.866,2.02,-2.218,-1.081
596.0,-2.514,-7.774,9.866,2.02,-2.218,-1.081
600.0,-1.955,-7.994,9.564,2.02,-2.218,-1.081
604.0,-1.955,-7.994,9.564,2.348,-2.285,-1.294
608.0,-1.955,-7.994,9.564,2.348,-2.285,-1.294
612.0,-1.579,-8.172,9.247,2.714,-2.34,-1.519
616.0,-1.579,-8.172,9.247,2.714,-2.34,-1.519
619.0,-1.579,-8.172,8.969,2.714,-2.34,-1.519
623.0,-1.399,-8.265,8.969,3.081,-2.397,-1.735
627.0,-1.399,-8.265,8.969,3.081,-2.397,-1.735
631.0,-1.271,-8.261,8.587,3.42,-2.463,-1.932
635.0,-1.271,-8.261,8.587,3.42,-2.463,-1.932
639.0,-1.271,-8.261,8.587,3.42,-2.463,-1.932
643.0,-1.068,-8.087,8.085,3.704,-2.521,-2.113
647.0,-1.068,-8.087,8.085,3.704,-2.521,-2.113
651.0,-0.883,-7.97,7.852,3.907,-2.556,-2.299
655.0,-0.883,-7.97,7.852,3.907,-2.556,-2.299
659.0,-0.883,-7.97,7.852,3.907,-2.556,-2.299
662.0,-1.039,-7.85,7.817,4.016,-2.59,-2.521
666.0,-1.039,-7.85,7.817,4.016,-2.59,-2.521
670.0,-1.432,-7.395,7.432,4.034,-2.643,-2.776
674.0,-1.432,-7.395,7.432,4.034,-2.643,-2.776
678.0,-1.432,-7.395,7.432,4.034,-2.643,-2.776
682.0,-1.621,-6.995,7.254,3.979,-2.699,-3.044
686.0,-1.621,-6.995,7.254,3.979,-2.699,-3.044
690.0,-1.903,-6.846,7.18,3.881,-2.76,-3.295
694.0,-1.903,-6.846,7.18,3.881,-2.76,-3.295
698.0,-1.903,-6.846,7.18,3.881,-2.76,-3.295
701.0,-2.195,-6.613,6.794,3.759,-2.825,-3.493
705.0,-2.195,-6.613,6.794,3.759,-2.825,-3.493
709.0,-2.179,-6.365,6.737,3.624,-2.861,-3.633
713.0,-2.179,-6.365,6.737,3.624,-2.861,-3.633
717.0,-2.179,-6.365,6.737,3.624,-2.861,-3.633
721.0,-2.084,-5.962,6.823,3.502,-2.876,-3.743
725.0,-2.084,-5.962,6.823,3.502,-2.876,-3.743
729.0,-2.186,-5.278,6.98,3.502,-2.89,-3.835
733.0,-2.186,-5.278,6.98,3.412,-2.89,-3.835
737.0,-2.186,-5.278,6.98,3.412,-2.89,-3.835
741.0,-2.342,-4.282,6.696,3.363,-2.916,-3.902
744.0,-2.342,-4.282,6.696,3.363,-2.916,-3.902
748.0,-2.232,-2.92,6.285,3.363,-2.916,-3.925
752.0,-2.232,-2.92,6.285,3.344,-2.926,-3.925
756.0,-2.232,-2.92,6.285,3.344,-2.926,-3.925
760.0,-1.769,-1.182,5.868,3.324,-2.899,-3.868
764.0,-1.769,-1.182,5.868,3.324,-2.899,-3.868
768.0,-1.216,0.505,5.64,3.324,-2.899,-3.868
772.0,-1.216,0.505,5.64,3.262,-2.82,-3.709
776.0,-1.216,0.505,5.64,3.262,-2.82,-3.709
779.0,-0.966,1.86,5.753,3.135,-2.708,-3.468
783.0,-0.966,1.86,5.753,3.135,-2.708,-3.468
787.0,-0.966,1.86,5.753,3.135,-2.708,-3.468
791.0,-0.814,3.01,5.744,2.956,-2.6,-3.191
795.0,-0.814,3.01,5.744,2.956,-2.6,-3.191
798.0,-0.464,4.19,5.91,2.752,-2.492,-2.943
802.0,-0.464,4.19,5.91,2.752,-2.492,-2.943
806.0,-0.464,4.19,5.91,2.752,-2.492,-2.943
810.0,0.123,5.486,6.097,2.527,-2.379,-2.727
814.0,0.123,5.486,6.097,2.527,-2.379,-2.727
817.0,0.922,6.628,6.298,2.527,-2.379,-2.451
821.0,0.922,6.628,6.298,2.255,-2.233,-2.451
825.0,0.922,6.628,6.298,2.255,-2.233,-2.451
829.0,1.523,7.443,6.486,1.928,-2.027,-2.09
832.0,1.523,7.443,6.486,1.928,-2.027,-2.09
836.0,1.523,7.443,6.486,1.928,-2.027,-2.09
840.0,1.738,8.18,6.977,1.579,-1.774,-1.731
844.0,1.738,8.18,6.977,1.579,-1.774,-1.731
847.0,1.476,8.867,7.645,1.579,-1.514,-1.439
851.0,1.476,8.867,7.645,1.236,-1.514,-1.439
855.0,1.476,8.867,7.645,1.236,-1.514,-1.439
858.0,0.917,9.455,8.252,0.909,-1.274,-1.229
862.0,0.917,9.455,8.252,0.909,-1.274,-1.229
866.0,0.917,9.455,8.252,0.909,-1.274,-1.229
870.0,0.111,9.827,8.563,0.617,-1.071,-1.116
873.0,0.111,9.827,8.563,0.617,-1.071,-1.116
877.0,-0.258,9.99,8.34,0.375,-0.933,-1.079
881.0,-0.258,9.99,8.34,0.375,-0.933,-1.079
885.0,-0.258,9.99,8.34,0.375,-0.933,-1.079
889.0,0.12,9.961,8.054,0.19,-0.831,-1.068
892.0,0.12,9.961,8.054,0.19,-0.831,-1.068
896.0,0.12,9.617,7.675,0.19,-0.831,-1.068
900.0,0.421,9.617,7.675,0.074,-0.707,-0.995
903.0,0.421,9.617,7.675,0.074,-0.707,-0.995
907.0,0.464,9.104,7.478,0.032,-0.568,-0.842
911.0,0.464,9.104,7.478,0.032,-0.568,-0.842
915.0,0.464,9.104,7.478,0.032,-0.568,-0.842
918.0,0.475,8.709,7.272,0.055,-0.452,-0.67
922.0,0.475,8.709,7.272,0.055,-0.452,-0.67
926.0,0.775,8.197,7.301,0.055,-0.452,-0.67
930.0,0.775,8.197,7.301,0.102,-0.339,-0.474
933.0,0.775,8.197,7.301,0.102,-0.339,-0.474
937.0,1.092,7.477,7.802,0.153,-0.21,-0.259
941.0,1.092,7.477,7.802,0.153,-0.21,-0.259
945.0,1.092,7.477,7.802,0.153,-0.21,-0.259
948.0,1.004,6.738,8.244,0.196,-0.093,-0.064
952.0,1.004,6.738,8.244,0.196,-0.093,-0.064
956.0,0.738,6.191,8.577,0.196,-0.024,0.059
959.0,0.738,6.191,8.577,0.202,-0.024,0.059
963.0,0.738,6.191,8.577,0.202,-0.024,0.059
967.0,0.693,5.973,8.593,0.17,-0.011,0.079
970.0,0.693,5.973,8.593,0.17,-0.011,0.079
974.0,0.693,5.973,8.593,0.17,-0.011,0.079
978.0,0.987,5.955,8.388,0.106,-0.013,0.054
981.0,0.987,5.955,8.388,0.106,-0.013,0.054
985.0,1.265,5.863,8.109,0.106,-0.013,0.054
989.0,1.265,5.863,8.109,0.023,-0.004,0.054
992.0,1.265,5.863,8.109,0.023,-0.004,0.054
996.0,1.436,5.797,7.792,-0.061,0.008,0.073
999.0,1.436,5.797,7.792,-0.061,0.008,0.073
1003.0,1.436,5.797,7.792,-0.061,0.008,0.073
1007.0,1.388,5.732,7.377,-0.139,0.027,0.086
1011.0,1.388,5.732,7.377,-0.139,0.027,0.086
1014.0,1.388,5.732,7.223,-0.139,0.027,0.086
1018.0,1.216,5.529,7.223,-0.208,0.06,0.115
1022.0,1.216,5.529,7.223,-0.208,0.06,0.115
1026.0,0.924,5.186,7.24,-0.253,0.095,0.165
1029.0,0.924,5.186,7.24,-0.253,0.095,0.165
1033.0,0.924,5.186,7.24,-0.253,0.095,0.165
1037.0,0.469,4.778,7.328,-0.258,0.107,0.219
1040.0,0.469,4.778,7.328,-0.258,0.107,0.219
1044.0,0.088,4.356,7.6,-0.258,0.107,0.219
1048.0,0.088,4.356,7.6,-0.23,0.098,0.272
1052.0,0.088,4.356,7.6,-0.23,0.098,0.272
1055.0,-0.184,3.97,7.942,-0.172,0.084,0.335
1059.0,-0.184,3.97,7.942,-0.172,0.084,0.335
1063.0,-0.184,3.97,7.942,-0.172,0.084,0.335
1067.0,-0.402,3.633,8.103,-0.099,0.061,0.425
1071.0,-0.402,3.633,8.103,-0.099,0.061,0.425
1074.0,-0.51,3.527,8.055,-0.025,0.028,0.513
1078.0,-0.51,3.527,8.055,-0.025,0.028,0.513
1082.0,-0.51,3.527,8.055,-0.025,0.028,0.513
1086.0,-0.989,4.168,7.921,0.052,0.01,0.586
1090.0,-0.989,4.168,7.921,0.052,0.01,0.586
1093.0,-0.989,5.481,7.668,0.052,0.01,0.586
1097.0,-2.044,5.481,7.668,0.139,0.017,0.736
1101.0,-2.044,5.481,7.668,0.139,0.017,0.736
1105.0,-3.722,7.153,7.397,0.236,0.051,1.034
1108.0,-3.722,7.153,7.397,0.236,0.051,1.034
1112.0,-3.722,7.153,7.397,0.236,0.051,1.034
1116.0,-5.619,8.684,7.229,0.342,0.087,1.449
1120.0,-5.619,8.684,7.229,0.342,0.087,1.449
1123.0,-7.574,10.137,7.365,0.342,0.087,1.449
1127.0,-7.574,10.137,7.365,0.487,0.118,1.913
1131.0,-7.574,10.137,7.365,0.487,0.118,1.913
1135.0,-8.803,11.17,7.787,0.649,0.121,2.465
1139.0,-8.803,11.17,7.787,0.649,0.121,2.465
1142.0,-8.803,11.17,7.787,0.649,0.121,2.465
1146.0,-8.609,12.148,8.636,0.786,0.117,3.09
1150.0,-8.609,12.148,8.636,0.786,0.117,3.09
1154.0,-7.1,12.999,9.818,0.893,0.117,3.743
1158.0,-7.1,12.999,9.818,0.893,0.117,3.743
1161.0,-7.1,12.999,9.818,0.893,0.117,3.743
1165.0,-5.472,13.902,10.922,0.968,0.139,4.386
1169.0,-5.472,13.902,10.922,0.968,0.139,4.386
1173.0,-4.337,14.553,11.668,1.0,0.183,4.911
1177.0,-4.337,14.553,11.668,1.0,0.183,4.911
1181.0,-4.337,14.553,11.668,1.0,0.183,4.911
1185.0,-3.575,14.841,12.123,0.976,0.235,5.013
1189.0,-3.575,14.841,12.123,0.976,0.235,5.013
1193.0,-3.361,14.677,12.153,0.976,0.256,5.013
1197.0,-3.361,14.677,12.153,0.906,0.256,5.013
1200.0,-3.361,14.677,12.153,0.906,0.256,5.013
1204.0,-3.285,13.842,11.749,0.774,0.224,5.013
1208.0,-3.285,13.842,11.749,0.774,0.224,5.013
1212.0,-2.9,12.437,11.323,0.774,0.224,5.013
1216.0,-2.9,12.437,11.323,0.575,0.17,5.013
1220.0,-2.9,12.437,11.323,0.575,0.17,5.013
1224.0,-2.774,10.926,11.277,0.355,0.112,5.013
1228.0,-2.774,10.926,11.277,0.355,0.112,5.013
1232.0,-2.794,9.666,11.066,0.355,0.112,5.013
1236.0,-2.794,9.666,11.066,0.133,0.02,5.013
1239.0,-2.794,9.666,11.066,0.133,0.02,5.013
1243.0,-2.577,8.737,10.677,-0.103,-0.084,5.013
1247.0,-2.577,8.737,10.677,-0.103,-0.084,5.013
1251.0,-2.577,8.737,10.097,-0.103,-0.084,5.013
1255.0,-2.464,7.899,10.097,-0.329,-0.189,5.013
1259.0,-2.464,7.899,10.097,-0.329,-0.189,5.013
1263.0,-2.282,7.369,9.32,-0.543,-0.289,5.013
1267.0,-2.282,7.369,9.32,-0.543,-0.289,5.013
1271.0,-2.282,7.369,8.676,-0.543,-0.289,5.013
1275.0,-2.11,6.832,8.676,-0.749,-0.36,5.013
1279.0,-2.11,6.832,8.676,-0.749,-0.36,5.013
1283.0,-1.629,5.883,8.48,-0.938,-0.408,5.013
1287.0,-1.629,5.883,8.48,-0.938,-0.408,5.013
1290.0,-1.629,5.883,8.48,-0.938,-0.408,5.013
1294.0,-1.207,4.88,8.841,-1.073,-0.457,5.013
1298.0,-1.207,4.88,8.841,-1.073,-0.457,5.013
1302.0,-1.672,3.875,8.968,-1.155,-0.541,5.013
1306.0,-1.672,3.875,8.968,-1.155,-0.541,5.013
1310.0,-1.672,3.875,8.968,-1.155,-0.541,5.013
1314.0,-2.965,2.353,8.529,-1.246,-0.635,5.013
1318.0,-2.965,2.353,8.529,-1.246,-0.635,5.013
1322.0,-4.129,0.888,7.52,-1.378,-0.681,5.013
1326.0,-4.129,0.888,7.52,-1.378,-0.681,5.013
1330.0,-4.129,0.888,7.52,-1.378,-0.681,5.013
1333.0,-4.737,0.055,7.091,-1.542,-0.641,5.013
1337.0,-4.737,0.055,7.091,-1.542,-0.641,5.013
1341.0,-4.926,-0.422,6.493,-1.744,-0.582,5.013
1345.0,-4.926,-0.422,6.493,-1.744,-0.582,5.013
1349.0,-4.926,-0.422,6.493,-1.744,-0.582,5.013
1353.0,-4.561,-0.692,5.838,-2.027,-0.531,5.013
1357.0,-4.561,-0.692,5.838,-2.027,-0.531,5.013
1361.0,-3.977,-0.952,5.669,-2.394,-0.483,5.013
1365.0,-3.977,-0.952,5.669,-2.394,-0.483,5.013
1369.0,-3.977,-0.952,5.669,-2.394,-0.483,5.013
1373.0,-3.699,-1.657,5.843,-2.835,-0.482,5.011
1377.0,-3.699,-1.657,5.843,-2.835,-0.482,5.011
1381.0,-3.89,-2.371,5.55,-3.344,-0.574,4.934
1385.0,-3.89,-2.371,5.55,-3.344,-0.574,4.934
1389.0,-3.89,-2.371,5.55,-3.344,-0.574,4.934
1393.0,-4.8,-3.044,5.092,-3.887,-0.722,4.746
1397.0,-4.8,-3.044,5.092,-3.887,-0.722,4.746
1401.0,-6.023,-4.461,4.026,-4.421,-0.922,4.542
1405.0,-6.023,-4.461,4.026,-4.421,-0.922,4.542
1409.0,-6.023,-4.461,2.392,-4.421,-0.922,4.542
1413.0,-6.696,-6.462,2.392,-4.861,-1.157,4.252
1417.0,-6.696,-6.462,2.392,-4.861,-1.157,4.252
1421.0,-6.571,-8.894,1.322,-5.01,-1.411,3.849
1425.0,-6.571,-8.894,1.322,-5.01,-1.411,3.849
1429.0,-5.931,-11.495,0.223,-5.01,-1.411,3.849
1433.0,-5.931,-11.495,0.223,-5.013,-1.663,3.389
1437.0,-5.931,-11.495,0.223,-5.013,-1.663,3.389
1441.0,-5.051,-14.395,-0.497,-4.889,-1.828,2.889
1446.0,-5.051,-14.395,-0.497,-4.889,-1.828,2.889
1450.0,-3.981,-16.61,-0.519,-4.211,-1.917,2.346
1454.0,-3.981,-16.61,-0.519,-4.211,-1.917,2.346
1458.0,-3.981,-16.61,-0.519,-4.211,-1.917,2.346
1462.0,-2.319,-17.985,-0.904,-3.079,-1.958,1.835
1466.0,-2.319,-17.985,-0.904,-3.079,-1.958,1.835
1471.0,-0.084,-18.382,-1.097,-1.625,-1.905,1.423
1475.0,-0.084,-18.382,-1.097,-1.625,-1.905,1.423
1479.0,2.195,-17.82,-1.114,-1.625,-1.905,1.186
1483.0,2.195,-17.82,-1.114,-0.021,-1.744,1.186
1487.0,2.195,-17.82,-1.114,-0.021,-1.744,1.186
1491.0,4.128,-16.493,-1.435,1.514,-1.511,1.1
1495.0,4.128,-16.493,-1.435,1.514,-1.511,1.1
1499.0,5.714,-14.685,-1.585,2.767,-1.258,1.064
1503.0,5.714,-14.685,-1.585,2.767,-1.258,1.064
1507.0,5.714,-14.685,-1.585,2.767,-1.258,1.064
1511.0,7.135,-12.772,-1.138,3.63,-1.0,1.019
1515.0,7.135,-12.772,-1.138,3.63,-1.0,1.019
1519.0,8.507,-11.077,-0.038,4.106,-0.763,0.965
1523.0,8.507,-11.077,-0.038,4.106,-0.763,0.965
1527.0,8.507,-11.077,-0.038,4.106,-0.763,0.965
1531.0,9.836,-9.765,1.147,4.256,-0.596,0.924
1535.0,9.836,-9.765,1.147,4.256,-0.596,0.924
1539.0,10.648,-8.698,2.088,4.132,-0.487,0.891
1543.0,10.648,-8.698,2.088,4.132,-0.487,0.891
1546.0,10.648,-8.698,2.088,4.132,-0.487,0.891
1550.0,10.54,-7.889,2.441,3.789,-0.39,0.863
1554.0,10.54,-7.889,2.441,3.789,-0.39,0.863
1558.0,9.933,-7.213,2.621,3.283,-0.292,0.828
1562.0,9.933,-7.213,2.621,3.283,-0.292,0.828
1566.0,9.933,-7.213,2.621,3.283,-0.292,0.828
1570.0,9.372,-6.656,3.095,2.654,-0.212,0.791
1573.0,9.372,-6.656,3.095,2.654,-0.212,0.791
1577.0,8.795,-6.418,3.599,2.654,-0.212,0.791
1581.0,8.795,-6.418,3.599,1.942,-0.151,0.782
1585.0,8.795,-6.418,3.599,1.942,-0.151,0.782
1589.0,7.689,-6.282,3.93,1.21,-0.109,0.769
1593.0,7.689,-6.282,3.93,1.21,-0.109,0.769
1596.0,7.689,-6.282,3.93,1.21,-0.109,0.769
1600.0,6.407,-6.148,3.718,0.529,-0.092,0.711
1604.0,6.407,-6.148,3.718,0.529,-0.092,0.711
1608.0,5.517,-6.002,3.309,-0.074,-0.059,0.651
1612.0,5.517,-6.002,3.309,-0.074,-0.059,0.651
1616.0,5.517,-6.002,3.309,-0.074,-0.059,0.651
1620.0,5.201,-6.037,3.15,-0.608,0.034,0.645
1623.0,5.201,-6.037,3.15,-0.608,0.034,0.645
1627.0,5.168,-6.349,3.676,-1.071,0.174,0.674
1631.0,5.168,-6.349,3.676,-1.071,0.174,0.674
1635.0,5.168,-6.349,3.676,-1.071,0.174,0.674
1639.0,5.122,-6.91,4.269,-1.455,0.295,0.697
1642.0,5.122,-6.91,4.269,-1.455,0.295,0.697
1646.0,4.691,-7.61,4.566,-1.455,0.295,0.697
1650.0,4.691,-7.61,4.566,-1.748,0.387,0.733
1654.0,4.691,-7.61,4.566,-1.748,0.387,0.733
1658.0,4.079,-8.254,4.871,-1.932,0.464,0.789
1662.0,4.079,-8.254,4.871,-1.932,0.464,0.789
1665.0,4.079,-8.254,4.871,-1.932,0.464,0.789
1669.0,3.703,-8.754,5.305,-1.98,0.517,0.829
1673.0,3.703,-8.754,5.305,-1.98,0.517,0.829
1677.0,3.586,-9.059,5.786,-1.881,0.535,0.84
1681.0,3.586,-9.059,5.786,-1.881,0.535,0.84
1684.0,3.586,-9.059,5.786,-1.881,0.535,0.84
1688.0,3.691,-9.127,6.177,-1.649,0.52,0.842
1692.0,3.691,-9.127,6.177,-1.649,0.52,0.842
1696.0,3.806,-9.039,6.127,-1.649,0.52,0.851
1700.0,3.806,-9.039,6.127,-1.318,0.476,0.851
1704.0,3.806,-9.039,6.127,-1.318,0.476,0.851
1707.0,3.859,-8.654,5.825,-0.942,0.423,0.864
1711.0,3.859,-8.654,5.825,-0.942,0.423,0.864
1715.0,3.859,-8.654,5.522,-0.942,0.423,0.864
1719.0,3.864,-8.093,5.522,-0.573,0.4,0.902
1723.0,3.864,-8.093,5.522,-0.573,0.4,0.902
1726.0,3.879,-7.478,5.266,-0.234,0.403,0.956
1730.0,3.879,-7.478,5.266,-0.234,0.403,0.956
1734.0,3.879,-7.478,5.266,-0.234,0.403,0.956
1738.0,3.89,-6.9,5.014,0.063,0.428,1.025
1742.0,3.89,-6.9,5.014,0.063,0.428,1.025
1745.0,3.884,-6.37,4.711,0.063,0.47,1.111
1749.0,3.884,-6.37,4.711,0.311,0.47,1.111
1753.0,3.884,-6.37,4.711,0.311,0.47,1.111
1757.0,3.839,-5.909,4.529,0.505,0.537,1.216
1760.0,3.839,-5.909,4.529,0.505,0.537,1.216
1764.0,3.839,-5.909,4.529,0.505,0.537,1.216
1768.0,3.647,-5.502,4.059,0.644,0.616,1.327
1772.0,3.647,-5.502,4.059,0.644,0.616,1.327
1775.0,3.4,-5.253,3.528,0.728,0.711,1.439
1779.0,3.4,-5.253,3.528,0.728,0.711,1.439
1783.0,3.4,-5.253,3.528,0.728,0.711,1.439
1786.0,3.109,-5.021,3.275,0.783,0.817,1.535
1790.0,3.109,-5.021,3.275,0.783,0.817,1.535
1794.0,3.109,-5.021,3.19,0.783,0.817,1.535
1798.0,2.704,-4.701,3.19,0.825,0.912,1.612
1801.0,2.704,-4.701,3.19,0.825,0.912,1.612
1805.0,2.153,-4.292,2.918,0.862,1.004,1.694
1809.0,2.153,-4.292,2.918,0.862,1.004,1.694
1813.0,2.153,-4.292,2.918,0.862,1.004,1.694
1816.0,1.59,-4.0,2.559,0.892,1.109,1.799
1820.0,1.59,-4.0,2.559,0.892,1.109,1.799
1824.0,1.59,-3.702,2.292,0.892,1.109,1.799
1828.0,1.161,-3.702,2.292,0.922,1.216,1.904
1831.0,1.161,-3.702,2.292,0.922,1.216,1.904
1835.0,1.022,-3.379,2.036,0.951,1.325,1.999
1839.0,1.022,-3.379,2.036,0.951,1.325,1.999
1842.0,1.022,-3.379,2.036,0.951,1.325,1.999
1846.0,1.059,-3.026,2.026,0.982,1.438,2.095
1850.0,1.059,-3.026,2.026,0.982,1.438,2.095
1854.0,1.12,-2.628,2.081,0.982,1.438,2.095
1857.0,1.12,-2.628,2.081,1.026,1.53,2.215
1861.0,1.12,-2.628,2.081,1.026,1.53,2.215
1865.0,1.096,-2.204,2.071,1.086,1.611,2.382
1869.0,1.096,-2.204,2.071,1.086,1.611,2.382
1872.0,1.096,-2.204,2.071,1.086,1.611,2.382
1876.0,0.961,-1.977,2.122,1.16,1.703,2.603
1880.0,0.961,-1.977,2.122,1.16,1.703,2.603
1884.0,0.733,-2.018,2.251,1.16,1.703,2.854
1887.0,0.733,-2.018,2.251,1.251,1.812,2.854
1891.0,0.733,-2.018,2.251,1.251,1.812,2.854
1895.0,0.336,-2.247,2.256,1.353,1.933,3.101
1898.0,0.336,-2.247,2.256,1.353,1.933,3.101
1902.0,0.336,-2.247,2.256,1.353,1.933,3.101
1906.0,-0.279,-2.633,2.11,1.461,2.073,3.315
1910.0,-0.279,-2.633,2.11,1.461,2.073,3.315
1914.0,-1.169,-2.974,2.014,1.582,2.239,3.468
1917.0,-1.169,-2.974,2.014,1.582,2.239,3.468
1921.0,-1.169,-2.974,2.014,1.582,2.239,3.468
1925.0,-2.116,-3.404,1.973,1.733,2.429,3.566
1929.0,-2.116,-3.404,1.973,1.733,2.429,3.566
1933.0,-3.363,-3.898,1.967,1.733,2.429,3.566
1936.0,-3.363,-3.898,1.967,1.916,2.673,3.622
1940.0,-3.363,-3.898,1.967,1.916,2.673,3.622
1944.0,-5.537,-4.347,2.184,2.119,2.977,3.623
1948.0,-5.537,-4.347,2.184,2.119,2.977,3.623
1952.0,-5.537,-4.347,2.184,2.119,2.977,3.623
1956.0,-8.005,-5.126,2.504,2.327,3.279,3.525
1959.0,-8.005,-5.126,2.504,2.327,3.279,3.525
1963.0,-9.714,-6.243,3.08,2.576,3.522,3.305
1967.0,-9.714,-6.243,3.08,2.576,3.522,3.305
1971.0,-9.714,-6.243,3.08,2.576,3.522,3.305
1975.0,-10.196,-7.945,3.418,2.977,3.72,2.941
1979.0,-10.196,-7.945,3.418,2.977,3.72,2.941
1982.0,-10.22,-9.776,3.123,3.636,3.891,2.472
1986.0,-10.22,-9.776,3.123,3.636,3.891,2.472
1990.0,-10.22,-9.776,3.123,3.636,3.891,2.472
1994.0,-10.43,-11.364,1.7,4.539,4.082,1.951
1998.0,-10.43,-11.364,1.7,4.539,4.082,1.951
2002.0,-11.361,-12.046,-0.945,4.985,4.376,1.339
2006.0,-11.361,-12.046,-0.945,4.985,4.376,1.339
2010.0,-11.361,-12.046,-0.945,4.985,4.376,1.339
2014.0,-11.762,-12.019,-3.584,4.995,4.787,0.637
2018.0,-11.762,-12.019,-3.584,4.995,4.787,0.637
2023.0,-10.312,-10.992,-5.677,4.995,5.008,-0.123
2027.0,-10.312,-10.992,-5.677,4.995,5.008,-0.123
2031.0,-10.312,-10.992,-7.662,4.995,5.008,-0.123
2035.0,-12.184,-8.53,-7.662,4.995,5.015,-0.84
2039.0,-12.184,-8.53,-7.662,4.995,5.015,-0.84
2043.0,-13.826,-5.096,-8.302,4.995,5.015,-1.352
2047.0,-13.826,-5.096,-8.302,4.995,5.015,-1.352
2051.0,-16.298,-2.038,-8.401,4.995,5.015,-1.704
2055.0,-16.298,-2.038,-8.401,4.995,5.015,-1.704
2060.0,-16.298,-2.038,-8.401,4.995,5.015,-1.704
2064.0,-18.256,0.431,-7.396,4.995,5.015,-1.993
2068.0,-18.256,0.431,-7.396,4.995,5.015,-1.993
2072.0,-19.528,2.22,-5.802,4.995,5.015,-2.216
2076.0,-19.528,2.22,-5.802,4.995,5.015,-2.216
2080.0,-19.528,2.22,-5.802,4.995,5.015,-2.216
2084.0,-19.6,3.304,-3.735,4.995,5.015,-2.359
2088.0,-19.6,3.304,-3.735,4.995,5.015,-2.359
2092.0,-19.6,3.96,-1.202,4.995,5.015,-2.373
2096.0,-19.6,3.96,-1.202,4.995,5.015,-2.373
2100.0,-19.6,3.96,-1.202,4.995,5.015,-2.373
2104.0,-19.6,3.326,0.236,4.995,5.015,-2.226
2107.0,-19.6,3.326,0.236,4.995,5.015,-2.226
2111.0,-19.6,1.921,1.084,4.995,5.015,-2.089
2115.0,-19.6,1.921,1.084,4.995,5.015,-2.089
2119.0,-19.6,1.921,1.084,4.995,5.015,-2.089
2123.0,-19.6,-0.133,0.696,4.995,5.015,-2.077
2127.0,-19.6,-0.133,0.696,4.995,5.015,-2.077
2131.0,-19.6,-1.265,-0.689,4.995,5.015,-2.177
2135.0,-19.6,-1.265,-0.689,4.995,5.015,-2.177
2139.0,-19.6,-1.265,-0.689,4.995,5.015,-2.177
2143.0,-19.6,-0.995,-1.669,4.995,4.867,-2.234
2147.0,-19.6,-0.995,-1.669,4.995,4.867,-2.234
2151.0,-19.599,-0.039,-2.265,4.995,4.438,-2.141
2156.0,-19.599,-0.039,-2.265,4.995,4.438,-2.141
2160.0,-18.764,1.372,-2.647,4.995,4.438,-2.141
2164.0,-18.764,1.372,-2.647,4.995,4.089,-1.959
2168.0,-18.764,1.372,-2.647,4.995,4.089,-1.959
2172.0,-18.467,3.016,-2.36,4.995,3.828,-1.77
2176.0,-18.467,3.016,-2.36,4.995,3.828,-1.77
2180.0,-19.115,4.414,-1.42,4.995,3.828,-1.623
2184.0,-19.115,4.414,-1.42,4.995,3.512,-1.623
2188.0,-19.115,4.414,-1.42,4.995,3.512,-1.623
2192.0,-19.157,5.763,-0.688,4.995,3.063,-1.559
2196.0,-19.157,5.763,-0.688,4.995,3.063,-1.559
2200.0,-18.157,7.27,-0.592,4.995,2.506,-1.56
2204.0,-18.157,7.27,-0.592,4.995,2.506,-1.56
2208.0,-18.157,7.27,-0.592,4.995,2.506,-1.56
2212.0,-16.835,9.069,-0.907,4.995,1.97,-1.522
2216.0,-16.835,9.069,-0.907,4.995,1.97,-1.522
2220.0,-16.122,10.553,-1.303,4.985,1.605,-1.345
2224.0,-16.122,10.553,-1.303,4.985,1.605,-1.345
2228.0,-16.122,10.553,-1.303,4.985,1.605,-1.345
2232.0,-15.681,11.462,-1.587,4.487,1.458,-1.093
2236.0,-15.681,11.462,-1.587,4.487,1.458,-1.093
2240.0,-15.401,12.056,-1.503,3.143,1.498,-0.889
2244.0,-15.401,12.056,-1.503,3.143,1.498,-0.889
2248.0,-15.401,12.056,-1.253,3.143,1.498,-0.889
2252.0,-15.161,12.243,-1.253,1.502,1.665,-0.793
2256.0,-15.161,12.243,-1.253,1.502,1.665,-0.793
2260.0,-15.063,12.05,-0.83,-0.269,1.881,-0.8
2265.0,-15.063,12.05,-0.83,-0.269,1.881,-0.8
2269.0,-15.211,11.579,-0.454,-0.269,2.08,-0.878
2273.0,-15.211,11.579,-0.454,-2.061,2.08,-0.878
2277.0,-15.211,11.579,-0.454,-2.061,2.08,-0.878
2281.0,-15.564,10.978,-0.506,-3.763,2.221,-1.007
2285.0,-15.564,10.978,-0.506,-3.763,2.221,-1.007
2290.0,-15.824,10.222,-1.125,-4.885,2.277,-1.156
2294.0,-15.824,10.222,-1.125,-4.885,2.277,-1.156
2298.0,-15.771,9.413,-1.929,-4.885,2.277,-1.156
2302.0,-15.771,9.413,-1.929,-5.013,2.251,-1.296
2306.0,-15.771,9.413,-1.929,-5.013,2.251,-1.296
2310.0,-15.329,8.425,-2.706,-5.013,2.169,-1.404
2314.0,-15.329,8.425,-2.706,-5.013,2.169,-1.404
2318.0,-14.676,7.3,-3.313,-5.013,2.059,-1.473
2322.0,-14.676,7.3,-3.313,-5.013,2.059,-1.473
2326.0,-14.676,7.3,-3.313,-5.013,2.059,-1.473
2330.0,-13.962,6.011,-3.635,-5.013,1.94,-1.485
2335.0,-13.962,6.011,-3.635,-5.013,1.94,-1.485
2339.0,-13.286,4.604,-3.433,-5.013,1.815,-1.444
2343.0,-13.286,4.604,-3.433,-5.013,1.815,-1.444
2347.0,-13.286,4.604,-2.763,-5.013,1.815,-1.444
2351.0,-12.545,3.225,-2.763,-5.013,1.674,-1.364
2355.0,-12.545,3.225,-2.763,-5.013,1.674,-1.364
2359.0,-11.765,1.924,-1.875,-5.013,1.513,-1.276
2363.0,-11.765,1.924,-1.875,-5.013,1.513,-1.276
2367.0,-11.079,0.855,-0.821,-5.013,1.513,-1.201
2371.0,-11.079,0.855,-0.821,-5.013,1.339,-1.201
2375.0,-11.079,0.855,-0.821,-5.013,1.339,-1.201
2379.0,-10.451,0.07,0.257,-5.013,1.136,-1.144
2383.0,-10.451,0.07,0.257,-5.013,1.136,-1.144
2387.0,-9.989,-1.189,1.411,-5.013,0.893,-1.112
2391.0,-9.989,-1.189,1.411,-5.013,0.893,-1.112
2395.0,-9.989,-1.189,1.411,-5.013,0.893,-1.112
2399.0,-9.582,-0.83,2.169,-5.013,0.602,-1.107
2403.0,-9.582,-0.83,2.169,-5.013,0.602,-1.107
2407.0,-9.069,-1.22,2.273,-5.013,0.333,-1.061
2411.0,-9.069,-1.22,2.273,-5.013,0.333,-1.061
2415.0,-9.069,-1.22,2.273,-5.013,0.333,-1.061
2419.0,-8.556,-1.447,2.94,-4.91,0.099,-1.024
2423.0,-8.556,-1.447,2.94,-4.91,0.099,-1.024
2427.0,-8.094,-1.387,3.274,-4.285,-0.146,-1.007
2431.0,-8.094,-1.387,3.274,-4.285,-0.146,-1.007
2436.0,-8.094,-1.387,3.274,-4.285,-0.146,-1.007
2440.0,-7.309,-0.971,3.309,-3.518,-0.373,-0.992
2444.0,-7.309,-0.971,3.309,-3.518,-0.373,-0.992
2448.0,-6.962,-1.222,2.853,-2.836,-0.567,-0.98
2452.0,-6.962,-1.222,2.853,-2.836,-0.567,-0.98
2456.0,-6.683,-1.347,2.352,-2.836,-0.567,-0.986
2460.0,-6.683,-1.347,2.352,-2.258,-0.736,-0.986
2464.0,-6.683,-1.347,2.352,-2.258,-0.736,-0.986
2468.0,-6.19,-1.22,1.824,-1.755,-0.87,-0.978
2472.0,-6.19,-1.22,1.824,-1.755,-0.87,-0.978
2476.0,-5.633,-1.294,1.45,-1.329,-0.956,-0.939
2480.0,-5.633,-1.294,1.45,-1.329,-0.956,-0.939
2484.0,-5.633,-1.294,1.45,-1.329,-0.956,-0.939
2489.0,-4.983,-1.317,1.386,-0.977,-1.006,-0.878
2493.0,-4.983,-1.317,1.386,-0.977,-1.006,-0.878
2497.0,-4.326,-1.174,1.44,-0.684,-1.037,-0.797
2501.0,-4.326,-1.174,1.44,-0.684,-1.037,-0.797
2505.0,-4.326,-1.009,1.539,-0.684,-1.037,-0.797
2509.0,-3.8,-1.009,1.539,-0.432,-1.042,-0.691
2513.0,-3.8,-1.009,1.539,-0.432,-1.042,-0.691
2517.0,-3.626,-1.077,1.784,-0.207,-1.028,-0.574
2521.0,-3.626,-1.077,1.784,-0.207,-1.028,-0.574
2525.0,-3.51,-0.954,2.017,-0.207,-1.02,-0.456
2529.0,-3.51,-0.954,2.017,0.013,-1.02,-0.456
2533.0,-3.51,-0.954,2.017,0.013,-1.02,-0.456
2537.0,-3.523,-0.845,2.009,0.197,-1.025,-0.333
2541.0,-3.523,-0.845,2.009,0.197,-1.025,-0.333
2545.0,-3.758,-0.747,1.949,0.322,-1.026,-0.23
2549.0,-3.758,-0.747,1.949,0.322,-1.026,-0.23
2553.0,-3.758,-0.747,1.949,0.322,-1.026,-0.23
2557.0,-4.121,-0.765,1.658,0.388,-1.021,-0.155
2561.0,-4.121,-0.765,1.658,0.388,-1.021,-0.155
2565.0,-4.423,-0.852,1.306,0.397,-0.995,-0.112
2569.0,-4.423,-0.852,1.306,0.397,-0.995,-0.112
2573.0,-4.423,-0.852,1.306,0.397,-0.995,-0.112
2577.0,-4.661,-0.851,1.088,0.349,-0.959,-0.098
2581.0,-4.661,-0.851,1.088,0.349,-0.959,-0.098
2585.0,-4.823,-0.701,0.973,0.279,-0.913,-0.103
2589.0,-4.823,-0.701,0.973,0.279,-0.913,-0.103
2593.0,-4.823,-0.701,0.973,0.279,-0.913,-0.103
2597.0,-4.933,-0.546,0.964,0.198,-0.851,-0.105
2601.0,-4.933,-0.546,0.964,0.198,-0.851,-0.105
2605.0,-4.98,-0.507,1.058,0.112,-0.774,-0.103
2609.0,-4.98,-0.507,1.058,0.112,-0.774,-0.103
2613.0,-4.98,-0.507,1.058,0.112,-0.774,-0.103
2617.0,-5.09,-0.402,1.184,0.032,-0.683,-0.121
2621.0,-5.09,-0.402,1.184,0.032,-0.683,-0.121
2625.0,-5.263,-0.386,1.292,-0.033,-0.586,-0.165
2629.0,-5.263,-0.386,1.292,-0.033,-0.586,-0.165
2633.0,-5.405,-0.367,1.407,-0.033,-0.586,-0.165
2637.0,-5.405,-0.367,1.407,-0.084,-0.502,-0.246
2641.0,-5.405,-0.367,1.407,-0.084,-0.502,-0.246
2646.0,-5.715,-0.187,1.497,-0.121,-0.438,-0.366
2650.0,-5.715,-0.187,1.497,-0.121,-0.438,-0.366
2654.0,-6.333,0.019,1.418,-0.128,-0.379,-0.496
2658.0,-6.333,0.019,1.418,-0.128,-0.379,-0.496
2662.0,-6.333,0.019,1.418,-0.128,-0.379,-0.496
2666.0,-7.251,0.025,1.403,-0.102,-0.306,-0.612
2670.0,-7.251,0.025,1.403,-0.102,-0.306,-0.612
2674.0,-8.503,-0.086,1.355,-0.037,-0.219,-0.721
2678.0,-8.503,-0.086,1.355,-0.037,-0.219,-0.721
2682.0,-8.503,-0.086,1.355,-0.037,-0.219,-0.721
2686.0,-10.152,-0.169,1.223,0.074,-0.124,-0.825
2690.0,-10.152,-0.169,1.223,0.074,-0.124,-0.825
2694.0,-12.131,-0.001,1.073,0.237,-0.024,-0.919
2698.0,-12.131,-0.001,1.073,0.237,-0.024,-0.919
2702.0,-12.131,0.339,0.95,0.237,-0.024,-0.919
2706.0,-14.022,0.339,0.95,0.455,0.065,-0.99
2710.0,-14.022,0.339,0.95,0.455,0.065,-0.99
2714.0,-15.34,0.787,0.906,0.715,0.121,-1.024
2718.0,-15.34,0.787,0.906,0.715,0.121,-1.024
2722.0,-15.34,0.787,0.948,0.715,0.121,-1.024
2726.0,-15.821,1.214,0.948,0.978,0.14,-1.019
2730.0,-15.821,1.214,0.948,0.978,0.14,-1.019
2734.0,-15.677,1.465,0.986,1.205,0.151,-0.986
2738.0,-15.677,1.465,0.986,1.205,0.151,-0.986
2741.0,-15.677,1.465,0.986,1.205,0.151,-0.986
2745.0,-15.516,1.64,0.967,1.378,0.187,-0.935
2749.0,-15.516,1.64,0.967,1.378,0.187,-0.935
2753.0,-15.706,1.93,0.901,1.498,0.266,-0.863
2757.0,-15.706,1.93,0.901,1.498,0.266,-0.863
2761.0,-15.706,1.93,0.901,1.498,0.266,-0.863
2765.0,-16.07,2.149,0.756,1.579,0.374,-0.756
2769.0,-16.07,2.149,0.756,1.579,0.374,-0.756
2773.0,-16.42,2.246,0.542,1.626,0.475,-0.639
2777.0,-16.42,2.246,0.542,1.626,0.475,-0.639
2780.0,-16.42,2.246,0.542,1.626,0.475,-0.639
2784.0,-16.679,2.349,0.258,1.628,0.547,-0.535
2788.0,-16.679,2.349,0.258,1.628,0.547,-0.535
2792.0,-17.11,2.492,-0.123,1.581,0.59,-0.441
2796.0,-17.11,2.492,-0.123,1.581,0.59,-0.441
2800.0,-17.11,2.492,-0.123,1.581,0.59,-0.441
2804.0,-17.639,2.62,-0.479,1.481,0.622,-0.336
2808.0,-17.639,2.62,-0.479,1.481,0.622,-0.336
2812.0,-17.696,2.673,-0.413,1.343,0.65,-0.216
2816.0,-17.696,2.673,-0.413,1.343,0.65,-0.216
2820.0,-17.696,2.673,-0.413,1.343,0.65,-0.216
2824.0,-17.073,2.553,-0.029,1.194,0.645,-0.109
2828.0,-17.073,2.553,-0.029,1.194,0.645,-0.109
2832.0,-16.098,2.389,0.306,1.034,0.601,-0.053
2836.0,-16.098,2.389,0.306,1.034,0.601,-0.053
2840.0,-16.098,2.389,0.306,1.034,0.601,-0.053
2844.0,-14.85,2.25,0.569,0.846,0.527,-0.055
2848.0,-14.85,2.25,0.569,0.846,0.527,-0.055
2852.0,-13.519,2.072,0.611,0.634,0.433,-0.094
2856.0,-13.519,2.072,0.611,0.634,0.433,-0.094
2859.0,-13.519,2.072,0.611,0.634,0.433,-0.094
2863.0,-12.5,1.866,0.476,0.401,0.354,-0.14
2867.0,-12.5,1.866,0.476,0.401,0.354,-0.14
2871.0,-11.929,1.509,0.432,0.153,0.313,-0.167
2875.0,-11.929,1.509,0.432,0.153,0.313,-0.167
2879.0,-11.929,1.509,0.432,0.153,0.313,-0.167
2883.0,-11.638,1.257,0.492,-0.095,0.288,-0.178
2887.0,-11.638,1.257,0.492,-0.095,0.288,-0.178
2891.0,-11.555,1.074,0.632,-0.322,0.254,-0.177
2895.0,-11.555,1.074,0.632,-0.322,0.254,-0.177
2899.0,-11.555,1.074,0.632,-0.322,0.254,-0.177
2903.0,-11.623,0.829,0.778,-0.508,0.186,-0.173
2907.0,-11.623,0.829,0.778,-0.508,0.186,-0.173
2911.0,-11.322,0.541,0.81,-0.64,0.062,-0.177
2915.0,-11.322,0.541,0.81,-0.64,0.062,-0.177
2919.0,-11.322,0.541,0.81,-0.64,0.062,-0.177
2923.0,-10.992,0.205,0.62,-0.725,-0.091,-0.195
2927.0,-10.992,0.205,0.62,-0.725,-0.091,-0.195
2931.0,-10.784,-0.095,0.36,-0.776,-0.233,-0.208
2935.0,-10.784,-0.095,0.36,-0.776,-0.233,-0.208
2939.0,-10.755,-0.376,-0.051,-0.776,-0.233,-0.208
2944.0,-10.755,-0.376,-0.051,-0.806,-0.332,-0.204
2948.0,-10.755,-0.376,-0.051,-0.806,-0.332,-0.204
2952.0,-11.166,-0.827,-0.27,-0.82,-0.373,-0.167
2956.0,-11.166,-0.827,-0.27,-0.82,-0.373,-0.167
2961.0,-11.83,-1.109,-0.428,-0.801,-0.382,-0.102
2965.0,-11.83,-1.109,-0.428,-0.801,-0.382,-0.102
2969.0,-12.611,-1.284,-0.536,-0.801,-0.382,-0.102
2973.0,-12.611,-1.284,-0.536,-0.782,-0.408,-0.033
2978.0,-12.611,-1.284,-0.536,-0.782,-0.408,-0.033
2982.0,-13.116,-1.474,-0.571,-0.785,-0.464,0.044
2986.0,-13.116,-1.474,-0.571,-0.785,-0.464,0.044
2990.0,-13.073,-1.747,-0.503,-0.788,-0.549,0.118
2994.0,-13.073,-1.747,-0.503,-0.788,-0.549,0.118
2999.0,-12.65,-1.977,-0.513,-0.788,-0.549,0.118
