deltaTime,Acc_X,Acc_Y,Acc_Z,Gyro_X,Gyro_Y,Gyro_Z
0.0,-9.989,-4.919,3.327,0.846,-0.194,-0.152
3.0,-9.989,-4.919,3.327,0.846,-0.194,-0.152
6.0,-10.652,-5.276,3.773,0.846,-0.194,0.041
9.0,-10.652,-5.276,3.773,0.728,-0.155,0.041
12.0,-10.652,-5.276,3.773,0.728,-0.155,0.041
15.0,-10.652,-5.276,3.773,0.728,-0.155,0.041
18.0,-10.804,-5.868,4.303,0.608,-0.204,0.19
21.0,-10.804,-5.868,4.303,0.608,-0.204,0.19
24.0,-10.804,-5.868,4.303,0.608,-0.204,0.19
27.0,-10.604,-6.408,4.555,0.524,-0.297,0.27
30.0,-10.604,-6.408,4.555,0.524,-0.297,0.27
33.0,-10.604,-6.408,4.555,0.524,-0.297,0.27
37.0,-10.009,-6.608,4.484,0.523,-0.406,0.281
41.0,-10.009,-6.608,4.484,0.523,-0.406,0.281
45.0,-10.009,-6.608,4.484,0.523,-0.406,0.281
49.0,-9.377,-6.62,4.22,0.592,-0.485,0.253
52.0,-9.377,-6.62,4.22,0.592,-0.485,0.253
56.0,-8.934,-6.252,3.903,0.709,-0.512,0.214
60.0,-8.934,-6.252,3.903,0.709,-0.512,0.214
63.0,-8.934,-6.252,3.903,0.709,-0.512,0.214
67.0,-8.627,-5.663,3.745,0.821,-0.499,0.181
71.0,-8.627,-5.663,3.745,0.821,-0.499,0.181
75.0,-8.627,-5.663,3.548,0.821,-0.499,0.181
78.0,-8.146,-4.962,3.548,0.879,-0.477,0.16
82.0,-8.146,-4.962,3.548,0.879,-0.477,0.16
86.0,-7.76,-4.585,3.365,0.846,-0.448,0.141
90.0,-7.76,-4.585,3.365,0.846,-0.448,0.141
93.0,-7.76,-4.585,3.365,0.846,-0.448,0.141
97.0,-7.478,-4.293,3.266,0.766,-0.425,0.123
101.0,-7.478,-4.293,3.266,0.766,-0.425,0.123
105.0,-6.998,-3.817,3.211,0.766,-0.425,0.123
108.0,-6.998,-3.817,3.211,0.65,-0.411,0.09
112.0,-6.998,-3.817,3.211,0.65,-0.411,0.09
116.0,-6.511,-3.525,3.242,0.492,-0.388,0.057
120.0,-6.511,-3.525,3.242,0.492,-0.388,0.057
124.0,-6.511,-3.525,3.242,0.492,-0.388,0.057
128.0,-6.204,-3.403,3.438,0.325,-0.361,0.035
131.0,-6.204,-3.403,3.438,0.325,-0.361,0.035
135.0,-6.01,-3.348,3.633,0.185,-0.34,0.026
139.0,-6.01,-3.348,3.633,0.185,-0.34,0.026
143.0,-6.01,-3.348,3.633,0.185,-0.34,0.026
147.0,-5.823,-3.294,3.763,0.079,-0.328,0.026
150.0,-5.823,-3.294,3.763,0.079,-0.328,0.026
154.0,-5.585,-3.231,3.799,0.079,-0.31,0.031
158.0,-5.585,-3.231,3.799,-0.003,-0.31,0.031
162.0,-5.585,-3.231,3.799,-0.003,-0.31,0.031
166.0,-5.358,-3.208,3.784,-0.068,-0.278,0.038
170.0,-5.358,-3.208,3.784,-0.068,-0.278,0.038
174.0,-5.237,-3.239,3.846,-0.068,-0.278,0.038
178.0,-5.237,-3.239,3.846,-0.119,-0.224,0.05
181.0,-5.237,-3.239,3.846,-0.119,-0.224,0.05
185.0,-5.14,-3.336,3.954,-0.148,-0.15,0.066
189.0,-5.14,-3.336,3.954,-0.148,-0.15,0.066
193.0,-5.14,-3.465,4.086,-0.148,-0.15,0.066
197.0,-5.029,-3.465,4.086,-0.134,-0.071,0.087
201.0,-5.029,-3.465,4.086,-0.134,-0.071,0.087
205.0,-4.946,-3.631,4.254,-0.072,0.014,0.109
209.0,-4.946,-3.631,4.254,-0.072,0.014,0.109
213.0,-4.946,-3.631,4.254,-0.072,0.014,0.109
216.0,-4.898,-3.705,4.347,0.04,0.102,0.128
220.0,-4.898,-3.705,4.347,0.04,0.102,0.128
224.0,-4.842,-3.736,4.315,0.174,0.189,0.144
228.0,-4.842,-3.736,4.315,0.174,0.189,0.144
231.0,-4.842,-3.736,4.315,0.174,0.189,0.144
235.0,-4.756,-3.654,4.132,0.317,0.273,0.158
239.0,-4.756,-3.654,4.132,0.317,0.273,0.158
243.0,-4.756,-3.271,3.852,0.317,0.273,0.158
246.0,-4.765,-3.271,3.852,0.446,0.357,0.169
250.0,-4.765,-3.271,3.852,0.446,0.357,0.169
254.0,-4.672,-3.06,3.752,0.518,0.441,0.179
257.0,-4.672,-3.06,3.752,0.518,0.441,0.179
261.0,-4.672,-3.06,3.752,0.518,0.441,0.179
265.0,-4.673,-2.922,3.689,0.563,0.522,0.212
269.0,-4.673,-2.922,3.689,0.563,0.522,0.212
272.0,-4.65,-2.708,3.804,0.563,0.522,0.212
276.0,-4.65,-2.708,3.804,0.588,0.586,0.255
280.0,-4.65,-2.708,3.804,0.588,0.586,0.255
284.0,-4.575,-2.685,3.945,0.578,0.64,0.298
287.0,-4.575,-2.685,3.945,0.578,0.64,0.298
291.0,-4.575,-2.685,3.945,0.578,0.64,0.298
295.0,-4.445,-2.678,4.048,0.545,0.68,0.332
299.0,-4.445,-2.678,4.048,0.545,0.68,0.332
302.0,-4.323,-2.63,3.999,0.545,0.68,0.343
306.0,-4.323,-2.63,3.999,0.482,0.702,0.343
310.0,-4.323,-2.63,3.999,0.482,0.702,0.343
313.0,-4.579,-2.815,3.866,0.393,0.694,0.327
317.0,-4.579,-2.815,3.866,0.393,0.694,0.327
321.0,-4.579,-2.815,3.866,0.393,0.694,0.327
325.0,-4.46,-2.995,3.606,0.323,0.62,0.285
328.0,-4.46,-2.995,3.606,0.323,0.62,0.285
332.0,-4.033,-2.987,3.377,0.289,0.514,0.238
336.0,-4.033,-2.987,3.377,0.289,0.514,0.238
340.0,-4.033,-2.987,3.377,0.289,0.514,0.238
343.0,-3.668,-2.944,3.217,0.275,0.435,0.184
347.0,-3.668,-2.944,3.217,0.275,0.435,0.184
351.0,-3.668,-2.944,3.217,0.275,0.435,0.184
354.0,-3.62,-2.874,3.142,0.274,0.386,0.113
358.0,-3.62,-2.874,3.142,0.274,0.386,0.113
362.0,-3.394,-3.014,3.196,0.283,0.345,0.039
366.0,-3.394,-3.014,3.196,0.283,0.345,0.039
369.0,-3.394,-3.014,3.196,0.283,0.345,0.039
373.0,-3.147,-2.766,3.303,0.308,0.313,-0.022
377.0,-3.147,-2.766,3.303,0.308,0.313,-0.022
381.0,-3.147,-2.212,3.556,0.308,0.313,-0.022
385.0,-3.166,-2.212,3.556,0.271,0.289,-0.086
388.0,-3.166,-2.212,3.556,0.271,0.289,-0.086
392.0,-3.502,-2.159,3.948,0.145,0.249,-0.158
396.0,-3.502,-2.159,3.948,0.145,0.249,-0.158
400.0,-3.502,-2.159,3.948,0.145,0.249,-0.158
404.0,-3.986,-2.262,4.464,-0.009,0.183,-0.226
408.0,-3.986,-2.262,4.464,-0.009,0.183,-0.226
412.0,-4.594,-2.488,4.865,-0.168,0.108,-0.275
415.0,-4.594,-2.488,4.865,-0.168,0.108,-0.275
419.0,-4.594,-2.488,4.865,-0.168,0.108,-0.275
423.0,-5.329,-2.807,5.099,-0.337,0.051,-0.304
427.0,-5.329,-2.807,5.099,-0.337,0.051,-0.304
431.0,-6.162,-3.219,5.234,-0.52,0.028,-0.301
435.0,-6.162,-3.219,5.234,-0.52,0.028,-0.301
439.0,-6.162,-3.219,5.234,-0.52,0.028,-0.301
443.0,-7.152,-3.793,5.398,-0.721,0.046,-0.256
447.0,-7.152,-3.793,5.398,-0.721,0.046,-0.256
451.0,-8.439,-4.664,5.617,-0.941,0.104,-0.17
454.0,-8.439,-4.664,5.617,-0.941,0.104,-0.17
458.0,-8.439,-4.664,5.617,-0.941,0.104,-0.17
462.0,-10.153,-5.614,5.867,-1.175,0.201,-0.049
466.0,-10.153,-5.614,5.867,-1.175,0.201,-0.049
470.0,-12.084,-6.4,6.245,-1.4,0.306,0.1
474.0,-12.084,-6.4,6.245,-1.4,0.306,0.1
478.0,-12.084,-6.4,6.245,-1.4,0.306,0.1
482.0,-13.658,-7.098,6.727,-1.594,0.362,0.265
486.0,-13.658,-7.098,6.727,-1.594,0.362,0.265
490.0,-14.216,-7.86,7.184,-1.594,0.362,0.412
494.0,-14.216,-7.86,7.184,-1.735,0.342,0.412
498.0,-14.216,-7.86,7.184,-1.735,0.342,0.412
502.0,-13.881,-8.582,7.418,-1.805,0.278,0.522
505.0,-13.881,-8.582,7.418,-1.805,0.278,0.522
509.0,-13.383,-9.095,7.329,-1.805,0.278,0.522
513.0,-13.383,-9.095,7.329,-1.804,0.227,0.606
517.0,-13.383,-9.095,7.329,-1.804,0.227,0.606
521.0,-13.181,-9.452,7.012,-1.745,0.22,0.687
525.0,-13.181,-9.452,7.012,-1.745,0.22,0.687
529.0,-13.181,-9.688,6.619,-1.745,0.22,0.687
533.0,-13.071,-9.688,6.619,-1.651,0.245,0.763
537.0,-13.071,-9.688,6.619,-1.651,0.245,0.763
541.0,-12.714,-9.748,6.111,-1.542,0.265,0.809
545.0,-12.714,-9.748,6.111,-1.542,0.265,0.809
548.0,-12.714,-9.748,5.473,-1.542,0.265,0.809
552.0,-11.988,-9.622,5.473,-1.421,0.263,0.8
556.0,-11.988,-9.622,5.473,-1.421,0.263,0.8
560.0,-11.076,-9.414,4.845,-1.278,0.248,0.728
564.0,-11.076,-9.414,4.845,-1.278,0.248,0.728
568.0,-11.076,-9.414,4.845,-1.278,0.248,0.728
572.0,-10.279,-9.206,4.296,-1.091,0.235,0.607
576.0,-10.279,-9.206,4.296,-1.091,0.235,0.607
580.0,-9.621,-8.833,3.838,-0.849,0.235,0.468
583.0,-9.621,-8.833,3.838,-0.849,0.235,0.468
587.0,-9.621,-8.833,3.838,-0.849,0.235,0.468
591.0,-9.149,-8.566,3.511,-0.569,0.252,0.341
595.0,-9.149,-8.566,3.511,-0.569,0.252,0.341
599.0,-8.885,-8.393,3.239,-0.28,0.287,0.239
603.0,-8.885,-8.393,3.239,-0.28,0.287,0.239
606.0,-8.885,-8.393,3.239,-0.28,0.287,0.239
610.0,-8.719,-8.198,3.019,-0.01,0.348,0.17
614.0,-8.719,-8.198,3.019,-0.01,0.348,0.17
618.0,-8.535,-8.009,2.871,-0.01,0.348,0.17
622.0,-8.535,-8.009,2.871,0.23,0.431,0.139
625.0,-8.535,-8.009,2.871,0.23,0.431,0.139
629.0,-8.24,-7.893,2.901,0.437,0.513,0.135
633.0,-8.24,-7.893,2.901,0.437,0.513,0.135
637.0,-8.24,-7.893,2.901,0.437,0.513,0.135
640.0,-7.892,-7.884,3.075,0.623,0.567,0.122
644.0,-7.892,-7.884,3.075,0.623,0.567,0.122
648.0,-7.732,-7.887,3.342,0.623,0.584,0.075
652.0,-7.732,-7.887,3.342,0.787,0.584,0.075
655.0,-7.732,-7.887,3.342,0.787,0.584,0.075
659.0,-7.958,-7.608,3.651,0.919,0.576,0.006
663.0,-7.958,-7.608,3.651,0.919,0.576,0.006
666.0,-7.958,-7.608,3.651,0.919,0.576,0.006
670.0,-8.28,-7.369,3.602,1.006,0.551,-0.04
674.0,-8.28,-7.369,3.602,1.006,0.551,-0.04
678.0,-8.615,-7.283,3.451,1.027,0.536,-0.038
682.0,-8.615,-7.283,3.451,1.027,0.536,-0.038
685.0,-8.615,-7.283,3.451,1.027,0.536,-0.038
689.0,-8.925,-7.579,3.61,0.999,0.559,0.021
693.0,-8.925,-7.579,3.61,0.999,0.559,0.021
697.0,-9.257,-8.214,4.174,0.999,0.559,0.021
700.0,-9.257,-8.214,4.174,0.95,0.585,0.09
704.0,-9.257,-8.214,4.174,0.95,0.585,0.09
708.0,-9.534,-8.892,4.965,0.896,0.559,0.089
712.0,-9.534,-8.892,4.965,0.896,0.559,0.089
715.0,-9.534,-8.892,4.965,0.896,0.559,0.089
719.0,-9.617,-9.487,5.707,0.874,0.46,-0.016
723.0,-9.617,-9.487,5.707,0.874,0.46,-0.016
727.0,-9.523,-9.857,6.371,0.874,0.318,-0.21
731.0,-9.523,-9.857,6.371,0.931,0.318,-0.21
734.0,-9.523,-9.857,6.371,0.931,0.318,-0.21
738.0,-9.379,-9.901,6.958,1.08,0.157,-0.44
742.0,-9.379,-9.901,6.958,1.08,0.157,-0.44
746.0,-9.379,-9.901,7.473,1.08,0.157,-0.44
750.0,-9.168,-9.61,7.473,1.302,-0.024,-0.655
754.0,-9.168,-9.61,7.473,1.302,-0.024,-0.655
758.0,-8.911,-9.25,8.008,1.557,-0.23,-0.834
761.0,-8.911,-9.25,8.008,1.557,-0.23,-0.834
765.0,-8.911,-9.25,8.008,1.557,-0.23,-0.834
769.0,-8.691,-8.911,8.478,1.818,-0.458,-0.977
773.0,-8.691,-8.911,8.478,1.818,-0.458,-0.977
777.0,-8.49,-8.468,9.056,2.067,-0.708,-1.096
781.0,-8.49,-8.468,9.056,2.067,-0.708,-1.096
785.0,-8.49,-8.468,9.056,2.067,-0.708,-1.096
789.0,-8.295,-7.954,9.867,2.293,-0.994,-1.197
793.0,-8.295,-7.954,9.867,2.293,-0.994,-1.197
797.0,-8.247,-7.509,10.473,2.479,-1.337,-1.287
801.0,-8.247,-7.509,10.473,2.479,-1.337,-1.287
805.0,-8.247,-7.509,10.473,2.479,-1.337,-1.287
809.0,-8.283,-6.934,10.636,2.616,-1.717,-1.373
813.0,-8.283,-6.934,10.636,2.616,-1.717,-1.373
817.0,-7.953,-6.277,10.613,2.698,-2.092,-1.446
821.0,-7.953,-6.277,10.613,2.698,-2.092,-1.446
825.0,-7.953,-6.277,10.613,2.698,-2.092,-1.446
829.0,-7.487,-5.617,10.621,2.742,-2.434,-1.505
833.0,-7.487,-5.617,10.621,2.742,-2.434,-1.505
837.0,-7.14,-5.034,10.612,2.767,-2.735,-1.554
841.0,-7.14,-5.034,10.612,2.767,-2.735,-1.554
845.0,-7.14,-5.034,10.717,2.767,-2.735,-1.554
849.0,-6.862,-4.504,10.717,2.795,-3.011,-1.6
852.0,-6.862,-4.504,10.717,2.795,-3.011,-1.6
856.0,-6.788,-4.031,10.942,2.838,-3.294,-1.635
860.0,-6.788,-4.031,10.942,2.838,-3.294,-1.635
864.0,-6.788,-3.819,11.228,2.838,-3.294,-1.635
868.0,-6.927,-3.819,11.228,2.906,-3.603,-1.65
872.0,-6.927,-3.819,11.228,2.906,-3.603,-1.65
876.0,-7.111,-3.727,11.201,3.017,-3.932,-1.642
880.0,-7.111,-3.727,11.201,3.017,-3.932,-1.642
884.0,-7.041,-3.373,10.901,3.017,-3.932,-1.642
888.0,-7.041,-3.373,10.901,3.18,-4.25,-1.603
892.0,-7.041,-3.373,10.901,3.18,-4.25,-1.603
896.0,-6.561,-3.022,10.622,3.381,-4.532,-1.526
900.0,-6.561,-3.022,10.622,3.381,-4.532,-1.526
904.0,-5.907,-2.66,10.284,3.381,-4.532,-1.426
908.0,-5.907,-2.66,10.284,3.594,-4.767,-1.426
912.0,-5.907,-2.66,10.284,3.594,-4.767,-1.426
916.0,-5.405,-2.216,9.899,3.788,-4.942,-1.311
920.0,-5.405,-2.216,9.899,3.788,-4.942,-1.311
924.0,-5.244,-1.826,9.53,3.788,-4.992,-1.184
928.0,-5.244,-1.826,9.53,3.922,-4.992,-1.184
932.0,-5.244,-1.826,9.53,3.922,-4.992,-1.184
936.0,-5.253,-1.379,9.142,3.97,-4.992,-1.064
940.0,-5.253,-1.379,9.142,3.97,-4.992,-1.064
944.0,-5.216,-0.849,8.715,3.97,-4.992,-1.064
948.0,-5.216,-0.849,8.715,3.921,-4.992,-0.966
952.0,-5.216,-0.849,8.715,3.921,-4.992,-0.966
955.0,-4.986,-0.504,8.225,3.779,-4.992,-0.903
959.0,-4.986,-0.504,8.225,3.779,-4.992,-0.903
963.0,-4.699,-0.346,7.987,3.779,-4.992,-0.903
967.0,-4.699,-0.346,7.987,3.559,-4.992,-0.895
971.0,-4.699,-0.346,7.987,3.559,-4.992,-0.895
975.0,-4.707,-0.052,7.7,3.287,-4.992,-0.952
979.0,-4.707,-0.052,7.7,3.287,-4.992,-0.952
983.0,-4.707,-0.052,7.359,3.287,-4.992,-0.952
987.0,-5.092,0.057,7.359,2.981,-4.992,-1.058
991.0,-5.092,0.057,7.359,2.981,-4.992,-1.058
994.0,-5.341,-0.213,7.108,2.661,-4.992,-1.2
998.0,-5.341,-0.213,7.108,2.661,-4.992,-1.2
1002.0,-5.341,-0.213,7.108,2.661,-4.992,-1.2
1006.0,-5.414,-0.879,7.025,2.375,-4.992,-1.383
1010.0,-5.414,-0.879,7.025,2.375,-4.992,-1.383
1014.0,-5.426,-1.749,6.689,2.162,-4.992,-1.594
1018.0,-5.426,-1.749,6.689,2.162,-4.992,-1.594
1022.0,-5.426,-1.749,6.285,2.162,-4.992,-1.594
1026.0,-5.303,-2.52,6.285,2.018,-4.992,-1.796
1030.0,-5.303,-2.52,6.285,2.018,-4.992,-1.796
1034.0,-5.122,-3.235,6.028,1.952,-4.992,-1.967
1038.0,-5.122,-3.235,6.028,1.952,-4.992,-1.967
1042.0,-5.122,-3.982,5.971,1.952,-4.992,-1.967
1046.0,-5.051,-3.982,5.971,1.986,-4.992,-2.115
1050.0,-5.051,-3.982,5.971,1.986,-4.992,-2.115
1054.0,-5.042,-4.78,5.926,2.121,-4.992,-2.256
1058.0,-5.042,-4.78,5.926,2.121,-4.992,-2.256
1062.0,-4.919,-5.265,5.602,2.121,-4.992,-2.256
1066.0,-4.919,-5.265,5.602,2.336,-4.992,-2.396
1070.0,-4.919,-5.265,5.602,2.336,-4.992,-2.396
1074.0,-4.763,-5.334,5.22,2.604,-4.947,-2.518
1078.0,-4.763,-5.334,5.22,2.604,-4.947,-2.518
1082.0,-4.512,-4.899,4.784,2.604,-4.947,-2.587
1086.0,-4.512,-4.899,4.784,2.89,-4.767,-2.587
1090.0,-4.512,-4.899,4.784,2.89,-4.767,-2.587
1094.0,-4.187,-3.989,4.527,3.142,-4.538,-2.571
1098.0,-4.187,-3.989,4.527,3.142,-4.538,-2.571
1102.0,-3.763,-2.75,4.462,3.142,-4.286,-2.47
1106.0,-3.763,-2.75,4.462,3.323,-4.286,-2.47
1110.0,-3.763,-2.75,4.462,3.323,-4.286,-2.47
1114.0,-3.274,-1.591,4.47,3.412,-4.023,-2.311
1118.0,-3.274,-1.591,4.47,3.412,-4.023,-2.311
1122.0,-2.761,-0.322,4.689,3.409,-3.759,-2.158
1126.0,-2.761,-0.322,4.689,3.409,-3.759,-2.158
1130.0,-2.761,-0.322,4.689,3.409,-3.759,-2.158
1134.0,-2.556,1.223,4.765,3.362,-3.508,-2.057
1138.0,-2.556,1.223,4.765,3.362,-3.508,-2.057
1142.0,-2.2,3.089,4.6,3.298,-3.284,-1.971
1146.0,-2.2,3.089,4.6,3.298,-3.284,-1.971
1150.0,-2.2,3.089,4.6,3.298,-3.284,-1.971
1153.0,-1.575,5.23,4.207,3.214,-3.071,-1.844
1157.0,-1.575,5.23,4.207,3.214,-3.071,-1.844
1161.0,-0.64,7.401,3.856,3.214,-2.851,-1.667
1165.0,-0.64,7.401,3.856,3.1,-2.851,-1.667
1169.0,-0.64,7.401,3.856,3.1,-2.851,-1.667
1173.0,0.339,9.485,3.558,2.965,-2.623,-1.474
1177.0,0.339,9.485,3.558,2.965,-2.623,-1.474
1181.0,1.243,11.629,3.325,2.965,-2.623,-1.474
1185.0,1.243,11.629,3.325,2.806,-2.395,-1.28
1188.0,1.243,11.629,3.325,2.806,-2.395,-1.28
1192.0,2.037,13.646,3.068,2.617,-2.162,-1.06
1196.0,2.037,13.646,3.068,2.617,-2.162,-1.06
1200.0,2.708,15.396,2.982,2.617,-2.162,-1.06
1204.0,2.708,15.396,2.982,2.39,-1.907,-0.77
1208.0,2.708,15.396,2.982,2.39,-1.907,-0.77
1212.0,3.293,16.571,3.164,2.112,-1.639,-0.411
1216.0,3.293,16.571,3.164,2.112,-1.639,-0.411
1220.0,3.293,16.571,3.352,2.112,-1.639,-0.411
1224.0,4.039,17.153,3.352,1.763,-1.379,-0.035
1227.0,4.039,17.153,3.352,1.763,-1.379,-0.035
1231.0,4.735,17.382,3.706,1.341,-1.117,0.287
1235.0,4.735,17.382,3.706,1.341,-1.117,0.287
1239.0,4.735,17.382,3.706,1.341,-1.117,0.287
1243.0,5.024,17.707,4.122,0.909,-0.882,0.519
1247.0,5.024,17.707,4.122,0.909,-0.882,0.519
1250.0,5.14,17.616,4.323,0.538,-0.678,0.749
1254.0,5.14,17.616,4.323,0.538,-0.678,0.749
1258.0,5.14,17.616,4.323,0.538,-0.678,0.749
1262.0,5.256,16.918,4.603,0.259,-0.464,1.045
1266.0,5.256,16.918,4.603,0.259,-0.464,1.045
1270.0,5.273,15.951,4.944,0.259,-0.464,1.348
1273.0,5.273,15.951,4.944,0.1,-0.249,1.348
1277.0,5.273,15.951,4.944,0.1,-0.249,1.348
1281.0,5.093,15.045,5.716,0.043,-0.069,1.622
1285.0,5.093,15.045,5.716,0.043,-0.069,1.622
1289.0,5.093,15.045,6.482,0.043,-0.069,1.622
1293.0,5.224,14.245,6.482,0.031,0.053,1.885
1296.0,5.224,14.245,6.482,0.031,0.053,1.885
1300.0,5.323,13.626,7.455,0.059,0.153,2.099
1304.0,5.323,13.626,7.455,0.059,0.153,2.099
1307.0,5.323,13.626,7.455,0.059,0.153,2.099
1311.0,4.906,13.364,8.265,0.156,0.211,2.274
1315.0,4.906,13.364,8.265,0.156,0.211,2.274
1319.0,4.196,13.116,8.549,0.156,0.211,2.274
1322.0,4.196,13.116,8.549,0.291,0.222,2.538
1326.0,4.196,13.116,8.549,0.291,0.222,2.538
1330.0,3.528,12.537,8.256,0.387,0.226,2.968
1334.0,3.528,12.537,8.256,0.387,0.226,2.968
1337.0,3.528,12.537,8.256,0.387,0.226,2.968
1341.0,3.095,11.669,7.793,0.401,0.267,3.494
1345.0,3.095,11.669,7.793,0.401,0.267,3.494
1348.0,2.9,10.829,7.491,0.401,0.267,4.008
1352.0,2.9,10.829,7.491,0.33,0.354,4.008
1356.0,2.9,10.829,7.491,0.33,0.354,4.008
1360.0,2.777,10.229,7.304,0.184,0.475,4.46
1363.0,2.777,10.229,7.304,0.184,0.475,4.46
1367.0,2.777,10.229,7.304,0.184,0.475,4.46
1371.0,2.841,9.735,7.459,-0.029,0.599,4.856
1375.0,2.841,9.735,7.459,-0.029,0.599,4.856
1378.0,2.967,9.107,7.624,-0.029,0.696,5.01
1382.0,2.967,9.107,7.624,-0.297,0.696,5.01
1386.0,2.967,9.107,7.624,-0.297,0.696,5.01
1390.0,2.966,8.367,7.74,-0.615,0.763,5.013
1393.0,2.966,8.367,7.74,-0.615,0.763,5.013
1397.0,2.966,8.367,7.74,-0.615,0.763,5.013
1401.0,2.527,7.498,7.985,-0.999,0.795,5.013
1404.0,2.527,7.498,7.985,-0.999,0.795,5.013
1408.0,1.526,6.465,8.02,-1.445,0.774,5.013
1412.0,1.526,6.465,8.02,-1.445,0.774,5.013
1416.0,1.526,6.465,8.02,-1.445,0.774,5.013
1419.0,0.217,5.121,8.028,-1.942,0.702,5.013
1423.0,0.217,5.121,8.028,-1.942,0.702,5.013
1427.0,0.217,5.121,7.651,-1.942,0.702,5.013
1431.0,-0.716,3.505,7.651,-2.455,0.569,5.013
1434.0,-0.716,3.505,7.651,-2.455,0.569,5.013
1438.0,-1.29,1.895,7.104,-2.946,0.378,5.013
1442.0,-1.29,1.895,7.104,-2.946,0.378,5.013
1446.0,-1.29,1.895,7.104,-2.946,0.378,5.013
1450.0,-1.703,-0.185,6.672,-3.399,0.117,5.013
1454.0,-1.703,-0.185,6.672,-3.399,0.117,5.013
1458.0,-1.954,-2.218,5.438,-3.822,-0.178,5.013
1462.0,-1.954,-2.218,5.438,-3.822,-0.178,5.013
1466.0,-1.954,-2.218,5.438,-3.822,-0.178,5.013
1470.0,-2.209,-3.998,3.897,-4.203,-0.403,5.013
1473.0,-2.209,-3.998,3.897,-4.203,-0.403,5.013
1477.0,-2.348,-5.947,2.736,-4.524,-0.566,5.013
1481.0,-2.348,-5.947,2.736,-4.524,-0.566,5.013
1485.0,-2.348,-5.947,2.736,-4.524,-0.566,5.013
1489.0,-2.29,-7.669,1.57,-4.746,-0.703,4.98
1493.0,-2.29,-7.669,1.57,-4.746,-0.703,4.98
1497.0,-2.249,-8.849,0.657,-4.842,-0.789,4.679
1501.0,-2.249,-8.849,0.657,-4.842,-0.789,4.679
1505.0,-2.249,-8.849,0.657,-4.842,-0.789,4.679
1509.0,-2.069,-9.958,-0.129,-4.848,-0.823,4.264
1514.0,-2.069,-9.958,-0.129,-4.848,-0.823,4.264
1518.0,-1.541,-10.881,-1.295,-4.806,-0.779,3.89
1522.0,-1.541,-10.881,-1.295,-4.806,-0.779,3.89
1526.0,-0.875,-12.156,-2.293,-4.806,-0.779,3.89
1530.0,-0.875,-12.156,-2.293,-4.716,-0.645,3.563
1534.0,-0.875,-12.156,-2.293,-4.716,-0.645,3.563
1538.0,-0.371,-14.103,-2.879,-4.542,-0.501,3.232
1543.0,-0.371,-14.103,-2.879,-4.542,-0.501,3.232
1547.0,-0.414,-15.71,-3.348,-4.173,-0.418,2.874
1551.0,-0.414,-15.71,-3.348,-4.173,-0.418,2.874
1555.0,-0.414,-15.71,-3.348,-4.173,-0.418,2.874
1559.0,-0.701,-16.509,-3.909,-3.526,-0.384,2.525
1563.0,-0.701,-16.509,-3.909,-3.526,-0.384,2.525
1568.0,-0.878,-16.524,-4.075,-2.619,-0.342,2.256
1572.0,-0.878,-16.524,-4.075,-2.619,-0.342,2.256
1576.0,-0.589,-16.305,-3.946,-1.579,-0.306,2.09
1580.0,-0.589,-16.305,-3.946,-1.579,-0.306,2.09
1584.0,-0.589,-16.305,-3.946,-1.579,-0.306,2.09
1588.0,0.292,-16.055,-3.984,-0.544,-0.304,1.942
1593.0,0.292,-16.055,-3.984,-0.544,-0.304,1.942
1597.0,1.409,-15.278,-4.143,0.397,-0.308,1.729
1601.0,1.409,-15.278,-4.143,0.397,-0.308,1.729
1605.0,1.409,-15.278,-4.164,0.397,-0.308,1.729
1609.0,2.559,-13.98,-4.164,1.184,-0.281,1.455
1613.0,2.559,-13.98,-4.164,1.184,-0.281,1.455
1617.0,3.776,-12.507,-3.79,1.768,-0.231,1.181
1621.0,3.776,-12.507,-3.79,1.768,-0.231,1.181
1625.0,3.776,-11.133,-3.212,1.768,-0.231,1.181
1629.0,5.049,-11.133,-3.212,2.157,-0.158,0.945
1633.0,5.049,-11.133,-3.212,2.157,-0.158,0.945
1637.0,6.059,-9.868,-2.47,2.382,-0.057,0.75
1640.0,6.059,-9.868,-2.47,2.382,-0.057,0.75
1644.0,6.681,-8.749,-1.75,2.382,-0.057,0.75
1648.0,6.681,-8.749,-1.75,2.474,0.058,0.58
1652.0,6.681,-8.749,-1.75,2.474,0.058,0.58
1656.0,6.953,-7.79,-1.329,2.463,0.16,0.431
1660.0,6.953,-7.79,-1.329,2.463,0.16,0.431
1664.0,6.953,-7.79,-1.329,2.463,0.16,0.431
1667.0,7.109,-6.969,-1.215,2.357,0.241,0.317
1671.0,7.109,-6.969,-1.215,2.357,0.241,0.317
1675.0,7.271,-6.369,-1.201,2.176,0.312,0.259
1679.0,7.271,-6.369,-1.201,2.176,0.312,0.259
1683.0,7.271,-6.369,-1.201,2.176,0.312,0.259
1686.0,7.266,-5.856,-0.917,1.933,0.394,0.249
1690.0,7.266,-5.856,-0.917,1.933,0.394,0.249
1694.0,6.97,-5.352,-0.451,1.933,0.394,0.271
1698.0,6.97,-5.352,-0.451,1.662,0.478,0.271
1702.0,6.97,-5.352,-0.451,1.662,0.478,0.271
1706.0,6.41,-4.896,0.109,1.39,0.551,0.307
1709.0,6.41,-4.896,0.109,1.39,0.551,0.307
1713.0,6.41,-4.896,0.109,1.39,0.551,0.307
1717.0,5.69,-4.464,0.559,1.142,0.609,0.347
1720.0,5.69,-4.464,0.559,1.142,0.609,0.347
1724.0,4.935,-3.988,0.967,0.94,0.659,0.397
1728.0,4.935,-3.988,0.967,0.94,0.659,0.397
1732.0,4.935,-3.988,0.967,0.94,0.659,0.397
1735.0,4.414,-3.581,1.211,0.79,0.707,0.458
1739.0,4.414,-3.581,1.211,0.79,0.707,0.458
1743.0,4.414,-3.581,1.329,0.79,0.707,0.458
1747.0,4.229,-3.235,1.329,0.691,0.761,0.53
1750.0,4.229,-3.235,1.329,0.691,0.761,0.53
1754.0,4.357,-2.995,1.255,0.629,0.824,0.611
1758.0,4.357,-2.995,1.255,0.629,0.824,0.611
1762.0,4.357,-2.995,1.255,0.629,0.824,0.611
1765.0,4.589,-2.827,1.229,0.592,0.912,0.7
1769.0,4.589,-2.827,1.229,0.592,0.912,0.7
1773.0,4.694,-2.71,1.311,0.592,0.912,0.7
1776.0,4.694,-2.71,1.311,0.577,1.03,0.792
1780.0,4.694,-2.71,1.311,0.577,1.03,0.792
1784.0,4.53,-2.64,1.439,0.581,1.164,0.892
1788.0,4.53,-2.64,1.439,0.581,1.164,0.892
1791.0,4.53,-2.64,1.439,0.581,1.164,0.892
1795.0,4.129,-2.632,1.678,0.609,1.311,1.01
1799.0,4.129,-2.632,1.678,0.609,1.311,1.01
1803.0,3.58,-2.648,1.999,0.609,1.311,1.152
1806.0,3.58,-2.648,1.999,0.66,1.458,1.152
1810.0,3.58,-2.648,1.999,0.66,1.458,1.152
1814.0,3.017,-2.671,2.422,0.731,1.601,1.323
1818.0,3.017,-2.671,2.422,0.731,1.601,1.323
1821.0,3.017,-2.671,2.422,0.731,1.601,1.323
1825.0,2.435,-2.688,2.76,0.808,1.744,1.519
1829.0,2.435,-2.688,2.76,0.808,1.744,1.519
1832.0,1.784,-2.793,2.936,0.808,1.88,1.746
1836.0,1.784,-2.793,2.936,0.879,1.88,1.746
1840.0,1.784,-2.793,2.936,0.879,1.88,1.746
1844.0,1.193,-2.914,3.083,0.944,1.998,1.999
1847.0,1.193,-2.914,3.083,0.944,1.998,1.999
1851.0,1.193,-2.914,3.083,0.944,1.998,1.999
1855.0,0.673,-3.062,3.178,1.0,2.108,2.262
1859.0,0.673,-3.062,3.178,1.0,2.108,2.262
1862.0,0.141,-3.312,3.218,1.04,2.216,2.535
1866.0,0.141,-3.312,3.218,1.04,2.216,2.535
1870.0,0.141,-3.312,3.218,1.04,2.216,2.535
1873.0,-0.404,-3.658,3.073,1.049,2.339,2.802
1877.0,-0.404,-3.658,3.073,1.049,2.339,2.802
1881.0,-0.404,-3.968,2.703,1.049,2.339,2.802
1885.0,-0.973,-3.968,2.703,1.013,2.505,3.04
1889.0,-0.973,-3.968,2.703,1.013,2.505,3.04
1893.0,-1.736,-4.154,2.5,0.925,2.734,3.246
1896.0,-1.736,-4.154,2.5,0.925,2.734,3.246
1900.0,-1.736,-4.154,2.5,0.925,2.734,3.246
1904.0,-3.234,-4.37,3.651,0.797,2.991,3.429
1908.0,-3.234,-4.37,3.651,0.797,2.991,3.429
1912.0,-5.038,-4.877,4.949,0.653,3.149,3.603
1916.0,-5.038,-4.877,4.949,0.653,3.149,3.603
1919.0,-5.038,-4.877,4.949,0.653,3.149,3.603
1923.0,-6.574,-5.77,5.506,0.529,3.176,3.77
1927.0,-6.574,-5.77,5.506,0.529,3.176,3.77
1931.0,-7.651,-6.799,5.563,0.529,3.176,3.77
1935.0,-7.651,-6.799,5.563,0.474,3.151,3.905
1938.0,-7.651,-6.799,5.563,0.474,3.151,3.905
1942.0,-8.338,-7.595,5.236,0.534,3.151,3.992
1946.0,-8.338,-7.595,5.236,0.534,3.151,3.992
1950.0,-8.338,-7.595,5.236,0.534,3.151,3.992
1954.0,-8.655,-8.222,4.404,0.745,3.243,4.062
1958.0,-8.655,-8.222,4.404,0.745,3.243,4.062
1961.0,-8.907,-8.941,4.162,1.158,3.469,4.132
1965.0,-8.907,-8.941,4.162,1.158,3.469,4.132
1969.0,-8.907,-8.941,4.162,1.158,3.469,4.132
1973.0,-9.251,-9.956,5.183,1.825,3.741,4.154
1977.0,-9.251,-9.956,5.183,1.825,3.741,4.154
1980.0,-9.896,-10.914,6.575,1.825,3.891,4.06
1984.0,-9.896,-10.914,6.575,2.737,3.891,4.06
1988.0,-9.896,-10.914,6.575,2.737,3.891,4.06
1992.0,-10.494,-10.509,5.572,3.779,3.867,3.88
1996.0,-10.494,-10.509,5.572,3.779,3.867,3.88
2000.0,-10.971,-9.371,3.662,3.779,3.883,3.732
2004.0,-10.971,-9.371,3.662,4.712,3.883,3.732
2008.0,-10.971,-9.371,3.662,4.712,3.883,3.732
2012.0,-10.816,-8.081,1.865,4.993,4.069,3.628
2016.0,-10.816,-8.081,1.865,4.993,4.069,3.628
2020.0,-9.954,-6.888,0.87,4.993,4.069,3.531
2023.0,-9.954,-6.888,0.87,4.995,4.444,3.531
2027.0,-9.954,-6.888,0.87,4.995,4.444,3.531
2031.0,-8.891,-5.882,0.476,4.995,4.889,3.381
2035.0,-8.891,-5.882,0.476,4.995,4.889,3.381
2039.0,-8.891,-5.882,0.476,4.995,4.889,3.381
2043.0,-8.53,-4.935,0.023,4.995,5.015,3.144
2046.0,-8.53,-4.935,0.023,4.995,5.015,3.144
2050.0,-9.132,-3.928,-0.672,4.995,5.015,2.812
2054.0,-9.132,-3.928,-0.672,4.995,5.015,2.812
2058.0,-9.132,-3.928,-0.672,4.995,5.015,2.812
2062.0,-10.502,-2.993,-1.388,4.995,5.015,2.403
2066.0,-10.502,-2.993,-1.388,4.995,5.015,2.403
2070.0,-12.302,-2.415,-2.271,4.995,5.015,1.958
2074.0,-12.302,-2.415,-2.271,4.995,5.015,1.958
2078.0,-12.302,-2.415,-2.271,4.995,5.015,1.958
2082.0,-15.032,-2.444,-3.232,4.995,5.015,1.489
2086.0,-15.032,-2.444,-3.232,4.995,5.015,1.489
2090.0,-18.985,-2.777,-4.225,4.995,5.015,0.982
2094.0,-18.985,-2.777,-4.225,4.995,5.015,0.982
2098.0,-18.985,-2.777,-4.225,4.995,5.015,0.982
2102.0,-19.6,-2.562,-4.571,4.995,5.015,0.463
2106.0,-19.6,-2.562,-4.571,4.995,5.015,0.463
2110.0,-19.6,-1.613,-4.083,4.995,5.015,0.008
2114.0,-19.6,-1.613,-4.083,4.995,5.015,0.008
2118.0,-19.6,-1.613,-3.034,4.995,5.015,0.008
2122.0,-19.6,-1.321,-3.034,4.995,5.015,-0.431
2126.0,-19.6,-1.321,-3.034,4.995,5.015,-0.431
2130.0,-19.6,-0.429,-2.986,4.995,5.015,-0.978
2134.0,-19.6,-0.429,-2.986,4.995,5.015,-0.978
2138.0,-19.6,1.312,-3.452,4.995,5.015,-1.577
2142.0,-19.6,1.312,-3.452,4.995,5.013,-1.577
2146.0,-19.6,1.312,-3.452,4.995,5.013,-1.577
2150.0,-19.6,3.495,-3.473,4.995,4.803,-2.112
2154.0,-19.6,3.495,-3.473,4.995,4.803,-2.112
2158.0,-19.6,5.289,-3.189,4.995,4.208,-2.502
2162.0,-19.6,5.289,-3.189,4.995,4.208,-2.502
2166.0,-19.6,5.289,-3.189,4.995,4.208,-2.502
2170.0,-19.6,6.487,-2.834,4.995,3.534,-2.759
2174.0,-19.6,6.487,-2.834,4.995,3.534,-2.759
2178.0,-19.303,6.82,-2.864,4.995,2.843,-2.885
2182.0,-19.303,6.82,-2.864,4.995,2.843,-2.885
2186.0,-19.303,6.82,-2.864,4.995,2.843,-2.885
2190.0,-17.102,8.733,-3.017,4.995,2.236,-2.864
2194.0,-17.102,8.733,-3.017,4.995,2.236,-2.864
2198.0,-16.412,10.801,-3.323,4.995,1.755,-2.8
2202.0,-16.412,10.801,-3.323,4.995,1.755,-2.8
2206.0,-16.412,10.801,-3.323,4.995,1.755,-2.8
2210.0,-15.415,11.201,-3.216,4.843,1.305,-2.939
2214.0,-15.415,11.201,-3.216,4.843,1.305,-2.939
2218.0,-13.202,10.581,-2.646,3.621,0.872,-3.159
2223.0,-13.202,10.581,-2.646,3.621,0.872,-3.159
2227.0,-13.202,9.849,-1.866,3.621,0.872,-3.159
2231.0,-11.493,9.849,-1.866,2.012,0.544,-3.275
2235.0,-11.493,9.849,-1.866,2.012,0.544,-3.275
2239.0,-10.85,9.025,-1.006,0.594,0.358,-3.295
2243.0,-10.85,9.025,-1.006,0.594,0.358,-3.295
2247.0,-10.975,8.081,-0.176,0.594,0.358,-3.295
2251.0,-10.975,8.081,-0.176,-0.593,0.276,-3.258
2255.0,-10.975,8.081,-0.176,-0.593,0.276,-3.258
2259.0,-10.979,7.076,0.494,-1.563,0.24,-3.198
2263.0,-10.979,7.076,0.494,-1.563,0.24,-3.198
2267.0,-11.014,6.539,1.17,-1.563,0.187,-3.139
2271.0,-11.014,6.539,1.17,-2.339,0.187,-3.139
2275.0,-11.014,6.539,1.17,-2.339,0.187,-3.139
2279.0,-10.692,6.239,1.373,-2.96,0.082,-3.083
2283.0,-10.692,6.239,1.373,-2.96,0.082,-3.083
2287.0,-10.267,5.711,1.596,-3.441,-0.038,-2.983
2291.0,-10.267,5.711,1.596,-3.441,-0.038,-2.983
2295.0,-10.267,5.711,1.596,-3.441,-0.038,-2.983
2299.0,-9.76,5.107,1.649,-3.783,-0.155,-2.818
2303.0,-9.76,5.107,1.649,-3.783,-0.155,-2.818
2307.0,-9.047,4.409,1.554,-4.006,-0.256,-2.61
2311.0,-9.047,4.409,1.554,-4.006,-0.256,-2.61
2315.0,-9.047,4.409,1.554,-4.006,-0.256,-2.61
2319.0,-8.223,3.726,1.551,-4.144,-0.334,-2.386
2323.0,-8.223,3.726,1.551,-4.144,-0.334,-2.386
2327.0,-7.496,3.043,1.517,-4.226,-0.394,-2.163
2331.0,-7.496,3.043,1.517,-4.226,-0.394,-2.163
2335.0,-7.496,3.043,1.517,-4.226,-0.394,-2.163
2339.0,-6.832,2.446,1.481,-4.279,-0.434,-1.957
2343.0,-6.832,2.446,1.481,-4.279,-0.434,-1.957
2347.0,-6.353,2.226,1.423,-4.328,-0.464,-1.767
2351.0,-6.353,2.226,1.423,-4.328,-0.464,-1.767
2355.0,-6.353,2.226,1.246,-4.328,-0.464,-1.767
2359.0,-5.944,2.009,1.246,-4.406,-0.495,-1.585
2363.0,-5.944,2.009,1.246,-4.406,-0.495,-1.585
2367.0,-5.635,1.801,1.105,-4.501,-0.524,-1.421
2371.0,-5.635,1.801,1.105,-4.501,-0.524,-1.421
2375.0,-5.503,1.873,0.913,-4.501,-0.524,-1.421
2379.0,-5.503,1.873,0.913,-4.596,-0.552,-1.277
2383.0,-5.503,1.873,0.913,-4.596,-0.552,-1.277
2387.0,-5.518,2.285,0.711,-4.7,-0.588,-1.141
2391.0,-5.518,2.285,0.711,-4.7,-0.588,-1.141
2395.0,-5.672,2.54,0.55,-4.7,-0.588,-1.141
2399.0,-5.672,2.54,0.55,-4.826,-0.636,-1.015
2403.0,-5.672,2.54,0.55,-4.826,-0.636,-1.015
2407.0,-6.016,2.721,0.447,-4.944,-0.694,-0.921
2411.0,-6.016,2.721,0.447,-4.944,-0.694,-0.921
2415.0,-6.351,2.576,0.29,-4.944,-0.762,-0.87
2419.0,-6.351,2.576,0.29,-5.006,-0.762,-0.87
2423.0,-6.351,2.576,0.29,-5.006,-0.762,-0.87
2427.0,-6.549,2.541,0.236,-5.013,-0.836,-0.854
2431.0,-6.549,2.541,0.236,-5.013,-0.836,-0.854
2435.0,-6.831,2.308,0.058,-5.013,-0.903,-0.844
2439.0,-6.831,2.308,0.058,-5.013,-0.903,-0.844
2443.0,-6.831,2.308,0.058,-5.013,-0.903,-0.844
2447.0,-7.17,2.0,-0.099,-5.007,-0.935,-0.823
2451.0,-7.17,2.0,-0.099,-5.007,-0.935,-0.823
2455.0,-7.382,1.353,-0.226,-4.916,-0.926,-0.789
2459.0,-7.382,1.353,-0.226,-4.916,-0.926,-0.789
2463.0,-7.382,1.353,-0.226,-4.916,-0.926,-0.789
2467.0,-7.65,0.516,-0.323,-4.719,-0.866,-0.769
2471.0,-7.65,0.516,-0.323,-4.719,-0.866,-0.769
2475.0,-8.038,-0.029,-0.239,-4.466,-0.761,-0.773
2479.0,-8.038,-0.029,-0.239,-4.466,-0.761,-0.773
2484.0,-8.911,-0.588,-0.163,-4.466,-0.761,-0.773
2488.0,-8.911,-0.588,-0.163,-4.193,-0.634,-0.79
2492.0,-8.911,-0.588,-0.163,-4.193,-0.634,-0.79
2496.0,-9.257,-0.735,-0.032,-3.951,-0.5,-0.815
2500.0,-9.257,-0.735,-0.032,-3.951,-0.5,-0.815
2504.0,-11.174,-1.255,0.093,-3.79,-0.356,-0.84
2509.0,-11.174,-1.255,0.093,-3.79,-0.356,-0.84
2513.0,-11.174,-1.255,0.324,-3.79,-0.356,-0.84
2517.0,-14.722,-1.274,0.324,-3.677,-0.231,-0.894
2521.0,-14.722,-1.274,0.324,-3.677,-0.231,-0.894
2525.0,-18.267,-0.863,0.519,-3.604,-0.203,-0.892
2529.0,-18.267,-0.863,0.519,-3.604,-0.203,-0.892
2534.0,-18.622,-0.98,0.786,-3.564,-0.276,-0.774
2538.0,-18.622,-0.98,0.786,-3.564,-0.276,-0.774
2542.0,-18.622,-0.98,0.786,-3.564,-0.276,-0.774
2546.0,-16.691,-1.671,1.192,-3.531,-0.368,-0.6
2550.0,-16.691,-1.671,1.192,-3.531,-0.368,-0.6
2554.0,-15.367,-2.482,1.061,-3.448,-0.385,-0.462
2559.0,-15.367,-2.482,1.061,-3.448,-0.385,-0.462
2563.0,-15.114,-3.103,0.62,-3.448,-0.385,-0.395
2567.0,-15.114,-3.103,0.62,-3.284,-0.294,-0.395
2571.0,-15.114,-3.103,0.62,-3.284,-0.294,-0.395
2575.0,-15.115,-3.415,0.196,-3.06,-0.154,-0.384
2579.0,-15.115,-3.415,0.196,-3.06,-0.154,-0.384
2584.0,-14.979,-3.438,-0.187,-2.816,-0.019,-0.392
2588.0,-14.979,-3.438,-0.187,-2.816,-0.019,-0.392
2592.0,-14.658,-3.388,-0.416,-2.816,-0.019,-0.392
2596.0,-14.658,-3.388,-0.416,-2.572,0.106,-0.392
2600.0,-14.658,-3.388,-0.416,-2.572,0.106,-0.392
2605.0,-14.291,-3.353,-0.268,-2.328,0.226,-0.388
2609.0,-14.291,-3.353,-0.268,-2.328,0.226,-0.388
2613.0,-14.106,-3.395,0.093,-2.075,0.32,-0.383
2617.0,-14.106,-3.395,0.093,-2.075,0.32,-0.383
2621.0,-14.106,-3.395,0.093,-2.075,0.32,-0.383
2625.0,-14.122,-3.498,0.43,-1.809,0.371,-0.38
2629.0,-14.122,-3.498,0.43,-1.809,0.371,-0.38
2633.0,-13.966,-3.538,0.77,-1.537,0.376,-0.365
2637.0,-13.966,-3.538,0.77,-1.537,0.376,-0.365
2642.0,-13.436,-3.52,1.114,-1.537,0.376,-0.365
2646.0,-13.436,-3.52,1.114,-1.26,0.34,-0.334
2650.0,-13.436,-3.52,1.114,-1.26,0.34,-0.334
2654.0,-12.73,-3.498,1.348,-0.98,0.277,-0.294
2658.0,-12.73,-3.498,1.348,-0.98,0.277,-0.294
2662.0,-12.299,-3.436,1.381,-0.7,0.204,-0.261
2666.0,-12.299,-3.436,1.381,-0.7,0.204,-0.261
2670.0,-12.299,-3.436,1.381,-0.7,0.204,-0.261
2674.0,-12.222,-3.338,1.279,-0.426,0.131,-0.228
2678.0,-12.222,-3.338,1.279,-0.426,0.131,-0.228
2682.0,-12.427,-3.227,1.073,-0.163,0.053,-0.184
2686.0,-12.427,-3.227,1.073,-0.163,0.053,-0.184
2690.0,-12.427,-3.227,0.745,-0.163,0.053,-0.184
2695.0,-12.608,-3.086,0.745,0.078,-0.034,-0.126
2699.0,-12.608,-3.086,0.745,0.078,-0.034,-0.126
2703.0,-12.338,-2.864,0.546,0.286,-0.126,-0.061
2707.0,-12.338,-2.864,0.546,0.286,-0.126,-0.061
2711.0,-11.521,-2.633,0.494,0.286,-0.217,-0.017
2715.0,-11.521,-2.633,0.494,0.461,-0.217,-0.017
2719.0,-11.521,-2.633,0.494,0.461,-0.217,-0.017
2723.0,-10.653,-2.371,0.452,0.621,-0.304,-0.016
2727.0,-10.653,-2.371,0.452,0.621,-0.304,-0.016
2731.0,-10.078,-2.098,0.154,0.783,-0.385,-0.061
2735.0,-10.078,-2.098,0.154,0.783,-0.385,-0.061
2739.0,-10.078,-2.098,0.154,0.783,-0.385,-0.061
2744.0,-9.727,-1.823,-0.287,0.944,-0.451,-0.133
2748.0,-9.727,-1.823,-0.287,0.944,-0.451,-0.133
2752.0,-9.389,-1.606,-0.657,1.08,-0.49,-0.205
2756.0,-9.389,-1.606,-0.657,1.08,-0.49,-0.205
2760.0,-9.058,-1.493,-0.845,1.08,-0.49,-0.205
2764.0,-9.058,-1.493,-0.845,1.174,-0.495,-0.245
2768.0,-9.058,-1.493,-0.845,1.174,-0.495,-0.245
2772.0,-8.902,-1.523,-0.951,1.222,-0.475,-0.241
2776.0,-8.902,-1.523,-0.951,1.222,-0.475,-0.241
2780.0,-9.02,-1.665,-0.923,1.235,-0.442,-0.191
2784.0,-9.02,-1.665,-0.923,1.235,-0.442,-0.191
2788.0,-9.02,-1.665,-0.923,1.235,-0.442,-0.191
2792.0,-9.263,-1.941,-0.756,1.226,-0.426,-0.093
2797.0,-9.263,-1.941,-0.756,1.226,-0.426,-0.093
2801.0,-9.516,-2.402,-0.522,1.205,-0.457,0.035
2805.0,-9.516,-2.402,-0.522,1.205,-0.457,0.035
2809.0,-9.516,-2.402,-0.522,1.205,-0.457,0.035
2813.0,-9.677,-2.815,-0.393,1.182,-0.549,0.166
2817.0,-9.677,-2.815,-0.393,1.182,-0.549,0.166
2821.0,-9.66,-3.249,-0.418,1.167,-0.695,0.295
2825.0,-9.66,-3.249,-0.418,1.167,-0.695,0.295
2829.0,-9.66,-3.249,-0.581,1.167,-0.695,0.295
2833.0,-9.435,-3.687,-0.581,1.168,-0.87,0.404
2837.0,-9.435,-3.687,-0.581,1.168,-0.87,0.404
2841.0,-9.118,-3.955,-0.842,1.19,-1.046,0.476
2845.0,-9.118,-3.955,-0.842,1.19,-1.046,0.476
2849.0,-9.118,-4.1,-1.04,1.19,-1.046,0.476
2853.0,-8.799,-4.1,-1.04,1.231,-1.203,0.516
2857.0,-8.799,-4.1,-1.04,1.231,-1.203,0.516
2861.0,-8.535,-4.222,-1.106,1.28,-1.328,0.527
2865.0,-8.535,-4.222,-1.106,1.28,-1.328,0.527
2869.0,-8.359,-4.256,-1.043,1.28,-1.328,0.527
2873.0,-8.359,-4.256,-1.043,1.336,-1.416,0.515
2877.0,-8.359,-4.256,-1.043,1.336,-1.416,0.515
2881.0,-8.304,-4.255,-0.817,1.396,-1.475,0.492
2885.0,-8.304,-4.255,-0.817,1.396,-1.475,0.492
2888.0,-8.408,-4.229,-0.534,1.396,-1.52,0.466
2892.0,-8.408,-4.229,-0.534,1.461,-1.52,0.466
2896.0,-8.408,-4.229,-0.534,1.461,-1.52,0.466
2900.0,-8.643,-4.202,-0.322,1.52,-1.564,0.444
2904.0,-8.643,-4.202,-0.322,1.52,-1.564,0.444
2908.0,-8.958,-4.263,-0.16,1.556,-1.613,0.425
2912.0,-8.958,-4.263,-0.16,1.556,-1.613,0.425
2916.0,-8.958,-4.263,-0.16,1.556,-1.613,0.425
2920.0,-9.336,-4.284,-0.013,1.555,-1.665,0.404
2924.0,-9.336,-4.284,-0.013,1.555,-1.665,0.404
2928.0,-9.687,-4.175,0.073,1.515,-1.721,0.387
2932.0,-9.687,-4.175,0.073,1.515,-1.721,0.387
2936.0,-9.687,-4.175,0.073,1.515,-1.721,0.387
2940.0,-9.84,-3.991,0.013,1.442,-1.775,0.381
2944.0,-9.84,-3.991,0.013,1.442,-1.775,0.381
2948.0,-9.777,-3.777,-0.048,1.339,-1.816,0.381
2952.0,-9.777,-3.777,-0.048,1.339,-1.816,0.381
2956.0,-9.777,-3.777,-0.048,1.339,-1.816,0.381
2960.0,-9.572,-3.561,-0.078,1.218,-1.843,0.377
2964.0,-9.572,-3.561,-0.078,1.218,-1.843,0.377
2968.0,-9.3,-3.351,-0.099,1.086,-1.86,0.356
2972.0,-9.3,-3.351,-0.099,1.086,-1.86,0.356
2976.0,-9.3,-3.351,-0.099,1.086,-1.86,0.356
2980.0,-8.95,-3.191,-0.089,0.943,-1.87,0.306
2984.0,-8.95,-3.191,-0.089,0.943,-1.87,0.306
2988.0,-8.487,-3.075,-0.074,0.787,-1.885,0.218
2992.0,-8.487,-3.075,-0.074,0.787,-1.885,0.218
2996.0,-8.487,-3.075,-0.074,0.787,-1.885,0.218
3000.0,-7.932,-2.87,-0.098,0.619,-1.908,0.092
