deltaTime,Acc_X,Acc_Y,Acc_Z,Gyro_X,Gyro_Y,Gyro_Z
0.0,-8.82,-2.253,4.341,0.651,-0.278,-0.109
3.0,-8.811,-2.401,4.274,0.651,-0.268,-0.116
6.0,-8.811,-2.401,4.274,0.802,-0.268,-0.116
9.0,-8.811,-2.401,4.274,0.802,-0.268,-0.116
12.0,-8.811,-2.401,4.274,0.802,-0.268,-0.116
15.0,-8.925,-2.213,4.233,0.961,-0.26,-0.132
18.0,-8.925,-2.213,4.233,0.961,-0.26,-0.132
21.0,-8.925,-2.213,4.233,0.961,-0.26,-0.132
24.0,-7.863,-1.053,4.49,1.105,-0.399,-0.159
27.0,-7.863,-1.053,4.49,1.105,-0.399,-0.159
30.0,-7.863,-1.053,4.49,1.105,-0.399,-0.159
33.0,-9.216,-0.928,4.813,1.022,-0.231,-0.193
37.0,-9.216,-0.928,4.813,1.022,-0.231,-0.193
41.0,-9.216,-0.928,4.813,1.022,-0.231,-0.193
44.0,-9.193,-0.811,5.084,0.946,-0.214,-0.202
48.0,-9.193,-0.811,5.084,0.946,-0.214,-0.202
52.0,-9.129,-0.885,5.142,0.946,-0.223,-0.171
56.0,-9.129,-0.885,5.142,0.86,-0.223,-0.171
60.0,-9.129,-0.885,5.142,0.86,-0.223,-0.171
64.0,-9.187,-1.074,5.164,0.781,-0.219,-0.125
67.0,-9.187,-1.074,5.164,0.781,-0.219,-0.125
71.0,-9.187,-1.074,5.228,0.781,-0.219,-0.125
75.0,-9.178,-1.185,5.228,0.718,-0.215,-0.096
79.0,-9.178,-1.185,5.228,0.718,-0.215,-0.096
83.0,-8.984,-1.311,5.236,0.667,-0.232,-0.105
86.0,-8.984,-1.311,5.236,0.667,-0.232,-0.105
90.0,-8.984,-1.311,5.236,0.667,-0.232,-0.105
94.0,-8.839,-1.44,5.131,0.637,-0.255,-0.141
98.0,-8.839,-1.44,5.131,0.637,-0.255,-0.141
102.0,-8.875,-1.587,5.059,0.645,-0.264,-0.172
106.0,-8.875,-1.587,5.059,0.645,-0.264,-0.172
110.0,-8.875,-1.587,5.059,0.645,-0.264,-0.172
113.0,-8.879,-1.856,4.938,0.705,-0.278,-0.186
117.0,-8.879,-1.856,4.938,0.705,-0.278,-0.186
121.0,-8.786,-1.909,4.789,0.705,-0.294,-0.199
125.0,-8.786,-1.909,4.789,0.809,-0.294,-0.199
129.0,-8.786,-1.909,4.789,0.809,-0.294,-0.199
133.0,-8.569,-1.784,4.693,0.918,-0.299,-0.22
137.0,-8.569,-1.784,4.693,0.918,-0.299,-0.22
141.0,-8.32,-1.533,4.646,0.918,-0.299,-0.248
145.0,-8.32,-1.533,4.646,1.003,-0.299,-0.248
149.0,-8.32,-1.533,4.646,1.003,-0.299,-0.248
152.0,-8.173,-1.24,4.71,1.043,-0.289,-0.271
156.0,-8.173,-1.24,4.71,1.043,-0.289,-0.271
160.0,-8.323,-0.993,4.655,1.043,-0.289,-0.271
164.0,-8.323,-0.993,4.655,1.031,-0.275,-0.283
168.0,-8.323,-0.993,4.655,1.031,-0.275,-0.283
172.0,-8.709,-0.77,4.853,0.963,-0.253,-0.282
176.0,-8.709,-0.77,4.853,0.963,-0.253,-0.282
180.0,-8.709,-0.746,5.127,0.963,-0.253,-0.282
184.0,-9.039,-0.746,5.127,0.867,-0.242,-0.255
188.0,-9.039,-0.746,5.127,0.867,-0.242,-0.255
192.0,-9.187,-0.82,5.289,0.762,-0.245,-0.21
195.0,-9.187,-0.82,5.289,0.762,-0.245,-0.21
199.0,-9.187,-0.82,5.469,0.762,-0.245,-0.21
203.0,-9.241,-0.888,5.469,0.641,-0.243,-0.164
207.0,-9.241,-0.888,5.469,0.641,-0.243,-0.164
211.0,-9.148,-1.14,5.612,0.518,-0.246,-0.128
215.0,-9.148,-1.14,5.612,0.518,-0.246,-0.128
219.0,-9.148,-1.14,5.612,0.518,-0.246,-0.128
223.0,-9.018,-1.618,5.785,0.449,-0.26,-0.115
227.0,-9.018,-1.618,5.785,0.449,-0.26,-0.115
231.0,-8.886,-2.02,5.676,0.478,-0.29,-0.118
235.0,-8.886,-2.02,5.676,0.478,-0.29,-0.118
238.0,-8.886,-2.02,5.676,0.478,-0.29,-0.118
242.0,-8.856,-2.123,5.326,0.582,-0.316,-0.142
246.0,-8.856,-2.123,5.326,0.582,-0.316,-0.142
250.0,-8.791,-1.975,4.982,0.707,-0.33,-0.177
254.0,-8.791,-1.975,4.982,0.707,-0.33,-0.177
258.0,-8.791,-1.975,4.982,0.707,-0.33,-0.177
262.0,-8.753,-1.942,4.89,0.825,-0.328,-0.213
266.0,-8.753,-1.942,4.89,0.825,-0.328,-0.213
270.0,-8.806,-1.886,5.017,0.947,-0.312,-0.239
274.0,-8.806,-1.886,5.017,0.947,-0.312,-0.239
277.0,-8.806,-1.886,5.017,0.947,-0.312,-0.239
281.0,-8.961,-1.789,5.2,1.069,-0.292,-0.256
285.0,-8.961,-1.789,5.2,1.069,-0.292,-0.256
289.0,-9.18,-1.621,5.383,1.16,-0.275,-0.28
293.0,-9.18,-1.621,5.383,1.16,-0.275,-0.28
297.0,-9.18,-1.621,5.383,1.16,-0.275,-0.28
301.0,-9.304,-1.266,5.632,1.202,-0.28,-0.309
305.0,-9.304,-1.266,5.632,1.202,-0.28,-0.309
309.0,-9.315,-0.884,5.645,1.202,-0.32,-0.339
313.0,-9.315,-0.884,5.645,1.177,-0.32,-0.339
317.0,-9.315,-0.884,5.645,1.177,-0.32,-0.339
320.0,-9.184,-0.662,5.414,1.083,-0.374,-0.363
324.0,-9.184,-0.662,5.414,1.083,-0.374,-0.363
328.0,-9.044,-0.755,5.201,1.083,-0.374,-0.371
332.0,-9.044,-0.755,5.201,0.957,-0.403,-0.371
336.0,-9.044,-0.755,5.201,0.957,-0.403,-0.371
340.0,-8.862,-1.035,5.032,0.855,-0.414,-0.36
344.0,-8.862,-1.035,5.032,0.855,-0.414,-0.36
348.0,-8.565,-1.402,4.897,0.855,-0.414,-0.36
352.0,-8.565,-1.402,4.897,0.811,-0.419,-0.344
356.0,-8.565,-1.402,4.897,0.811,-0.419,-0.344
360.0,-8.316,-1.646,4.778,0.822,-0.403,-0.328
363.0,-8.316,-1.646,4.778,0.822,-0.403,-0.328
367.0,-8.316,-1.616,4.77,0.822,-0.403,-0.328
371.0,-8.306,-1.616,4.77,0.855,-0.359,-0.309
375.0,-8.306,-1.616,4.77,0.855,-0.359,-0.309
379.0,-8.501,-1.419,4.866,0.864,-0.315,-0.295
383.0,-8.501,-1.419,4.866,0.864,-0.315,-0.295
387.0,-8.501,-1.419,5.13,0.864,-0.315,-0.295
391.0,-8.553,-1.326,5.13,0.838,-0.29,-0.304
395.0,-8.553,-1.326,5.13,0.838,-0.29,-0.304
399.0,-8.343,-1.299,5.459,0.814,-0.288,-0.331
402.0,-8.343,-1.299,5.459,0.814,-0.288,-0.331
406.0,-8.343,-1.299,5.459,0.814,-0.288,-0.331
410.0,-8.172,-1.129,5.786,0.813,-0.291,-0.355
414.0,-8.172,-1.129,5.786,0.813,-0.291,-0.355
418.0,-8.137,-1.047,6.124,0.813,-0.28,-0.36
422.0,-8.137,-1.047,6.124,0.813,-0.28,-0.36
426.0,-8.137,-1.047,6.124,0.813,-0.28,-0.36
430.0,-8.208,-1.009,6.213,0.812,-0.269,-0.352
434.0,-8.208,-1.009,6.213,0.812,-0.269,-0.352
438.0,-8.634,-0.768,6.171,0.787,-0.263,-0.346
442.0,-8.634,-0.768,6.171,0.787,-0.263,-0.346
445.0,-8.634,-0.768,6.171,0.787,-0.263,-0.346
449.0,-9.133,-0.532,6.156,0.692,-0.265,-0.35
453.0,-9.133,-0.532,6.156,0.692,-0.265,-0.35
457.0,-9.115,-0.555,6.157,0.542,-0.296,-0.376
461.0,-9.115,-0.555,6.157,0.542,-0.296,-0.376
465.0,-9.115,-0.555,6.157,0.542,-0.296,-0.376
469.0,-8.799,-0.757,5.842,0.38,-0.339,-0.418
473.0,-8.799,-0.757,5.842,0.38,-0.339,-0.418
477.0,-8.748,-1.49,5.582,0.249,-0.352,-0.452
481.0,-8.748,-1.49,5.582,0.249,-0.352,-0.452
485.0,-8.748,-1.49,5.582,0.249,-0.352,-0.452
488.0,-8.797,-1.638,5.505,0.211,-0.319,-0.457
492.0,-8.797,-1.638,5.505,0.211,-0.319,-0.457
496.0,-8.897,-2.0,5.712,0.211,-0.286,-0.455
500.0,-8.897,-2.0,5.712,0.222,-0.286,-0.455
504.0,-8.897,-2.0,5.712,0.222,-0.286,-0.455
508.0,-8.734,-2.19,5.837,0.306,-0.298,-0.456
512.0,-8.734,-2.19,5.837,0.306,-0.298,-0.456
516.0,-8.531,-2.536,5.834,0.306,-0.298,-0.472
520.0,-8.531,-2.536,5.834,0.452,-0.348,-0.472
524.0,-8.531,-2.536,5.834,0.452,-0.348,-0.472
527.0,-8.591,-2.764,5.679,0.657,-0.405,-0.487
531.0,-8.591,-2.764,5.679,0.657,-0.405,-0.487
535.0,-8.504,-2.875,5.398,0.657,-0.405,-0.487
539.0,-8.504,-2.875,5.398,0.901,-0.445,-0.477
543.0,-8.504,-2.875,5.398,0.901,-0.445,-0.477
547.0,-8.428,-2.612,5.231,1.141,-0.457,-0.465
551.0,-8.428,-2.612,5.231,1.141,-0.457,-0.465
555.0,-8.428,-2.317,5.283,1.141,-0.457,-0.465
559.0,-8.409,-2.317,5.283,1.321,-0.472,-0.472
563.0,-8.409,-2.317,5.283,1.321,-0.472,-0.472
567.0,-8.296,-1.97,5.167,1.442,-0.504,-0.484
570.0,-8.296,-1.97,5.167,1.442,-0.504,-0.484
574.0,-8.296,-1.97,4.956,1.442,-0.504,-0.484
578.0,-8.179,-1.519,4.956,1.496,-0.519,-0.495
582.0,-8.179,-1.519,4.956,1.496,-0.519,-0.495
586.0,-8.282,-1.221,4.912,1.47,-0.502,-0.497
590.0,-8.282,-1.221,4.912,1.47,-0.502,-0.497
594.0,-8.282,-1.221,4.912,1.47,-0.502,-0.497
598.0,-8.533,-0.989,5.029,1.384,-0.467,-0.491
602.0,-8.533,-0.989,5.029,1.384,-0.467,-0.491
606.0,-8.754,-0.848,5.207,1.257,-0.438,-0.491
610.0,-8.754,-0.848,5.207,1.257,-0.438,-0.491
613.0,-8.754,-0.848,5.207,1.257,-0.438,-0.491
617.0,-8.96,-0.846,5.414,1.114,-0.426,-0.503
621.0,-8.96,-0.846,5.414,1.114,-0.426,-0.503
625.0,-9.186,-0.837,5.739,0.976,-0.43,-0.519
629.0,-9.186,-0.837,5.739,0.976,-0.43,-0.519
633.0,-9.186,-0.837,5.739,0.976,-0.43,-0.519
637.0,-9.133,-0.639,5.944,0.849,-0.454,-0.533
641.0,-9.133,-0.639,5.944,0.849,-0.454,-0.533
645.0,-8.887,-0.476,6.062,0.709,-0.49,-0.554
649.0,-8.887,-0.476,6.062,0.709,-0.49,-0.554
652.0,-8.887,-0.476,6.062,0.709,-0.49,-0.554
656.0,-8.812,-0.529,6.113,0.569,-0.537,-0.598
660.0,-8.812,-0.529,6.113,0.569,-0.537,-0.598
664.0,-8.974,-0.528,6.17,0.448,-0.583,-0.648
668.0,-8.974,-0.528,6.17,0.448,-0.583,-0.648
672.0,-8.974,-0.528,6.17,0.448,-0.583,-0.648
676.0,-9.153,-0.52,6.217,0.338,-0.619,-0.679
680.0,-9.153,-0.52,6.217,0.338,-0.619,-0.679
684.0,-9.078,-0.627,6.298,0.338,-0.652,-0.687
688.0,-9.078,-0.627,6.298,0.227,-0.652,-0.687
692.0,-9.078,-0.627,6.298,0.227,-0.652,-0.687
695.0,-8.953,-0.839,6.684,0.114,-0.69,-0.688
699.0,-8.953,-0.839,6.684,0.114,-0.69,-0.688
703.0,-9.045,-1.142,7.306,0.114,-0.69,-0.695
707.0,-9.045,-1.142,7.306,0.014,-0.745,-0.695
711.0,-9.045,-1.142,7.306,0.014,-0.745,-0.695
715.0,-9.203,-1.439,7.634,-0.06,-0.827,-0.715
719.0,-9.203,-1.439,7.634,-0.06,-0.827,-0.715
723.0,-9.312,-1.719,7.927,-0.06,-0.827,-0.715
727.0,-9.312,-1.719,7.927,-0.103,-0.914,-0.753
731.0,-9.312,-1.719,7.927,-0.103,-0.914,-0.753
735.0,-9.258,-1.918,8.319,-0.112,-0.998,-0.814
739.0,-9.258,-1.918,8.319,-0.112,-0.998,-0.814
743.0,-9.036,-2.022,8.632,-0.112,-1.077,-0.891
747.0,-9.036,-2.022,8.632,-0.089,-1.077,-0.891
751.0,-9.036,-2.022,8.632,-0.089,-1.077,-0.891
755.0,-8.923,-2.045,8.838,-0.037,-1.15,-0.969
759.0,-8.923,-2.045,8.838,-0.037,-1.15,-0.969
763.0,-8.975,-2.087,8.925,0.026,-1.218,-1.031
767.0,-8.975,-2.087,8.925,0.026,-1.218,-1.031
771.0,-8.975,-2.087,8.925,0.026,-1.218,-1.031
775.0,-8.917,-2.085,9.066,0.084,-1.287,-1.084
779.0,-8.917,-2.085,9.066,0.084,-1.287,-1.084
782.0,-8.803,-2.023,9.316,0.084,-1.376,-1.138
786.0,-8.803,-2.023,9.316,0.136,-1.376,-1.138
790.0,-8.803,-2.023,9.316,0.136,-1.376,-1.138
794.0,-8.986,-2.138,9.339,0.178,-1.493,-1.187
798.0,-8.986,-2.138,9.339,0.178,-1.493,-1.187
802.0,-9.142,-2.251,9.135,0.178,-1.493,-1.226
806.0,-9.142,-2.251,9.135,0.191,-1.626,-1.226
810.0,-9.142,-2.251,9.135,0.191,-1.626,-1.226
814.0,-8.972,-2.46,9.007,0.164,-1.755,-1.269
818.0,-8.972,-2.46,9.007,0.164,-1.755,-1.269
821.0,-8.708,-2.86,9.082,0.164,-1.755,-1.269
825.0,-8.708,-2.86,9.082,0.12,-1.871,-1.332
829.0,-8.708,-2.86,9.082,0.12,-1.871,-1.332
833.0,-8.527,-3.325,9.279,0.082,-1.97,-1.426
837.0,-8.527,-3.325,9.279,0.082,-1.97,-1.426
841.0,-8.527,-3.325,9.753,0.082,-1.97,-1.426
845.0,-8.604,-3.571,9.753,0.06,-2.06,-1.54
849.0,-8.604,-3.571,9.753,0.06,-2.06,-1.54
853.0,-8.834,-3.779,10.209,0.059,-2.165,-1.644
857.0,-8.834,-3.779,10.209,0.059,-2.165,-1.644
861.0,-8.834,-3.779,10.378,0.059,-2.165,-1.644
865.0,-9.136,-4.142,10.378,0.073,-2.294,-1.732
869.0,-9.136,-4.142,10.378,0.073,-2.294,-1.732
873.0,-9.213,-4.596,10.414,0.107,-2.415,-1.81
877.0,-9.213,-4.596,10.414,0.107,-2.415,-1.81
881.0,-9.034,-5.006,10.473,0.107,-2.415,-1.81
885.0,-9.034,-5.006,10.473,0.171,-2.508,-1.894
889.0,-9.034,-5.006,10.473,0.171,-2.508,-1.894
893.0,-8.834,-5.304,10.688,0.27,-2.591,-2.003
897.0,-8.834,-5.304,10.688,0.27,-2.591,-2.003
901.0,-8.754,-5.464,10.836,0.27,-2.591,-2.131
905.0,-8.754,-5.464,10.836,0.391,-2.693,-2.131
909.0,-8.754,-5.464,10.836,0.391,-2.693,-2.131
913.0,-8.774,-5.637,10.838,0.513,-2.809,-2.263
917.0,-8.774,-5.637,10.838,0.513,-2.809,-2.263
921.0,-8.734,-5.783,10.893,0.513,-2.923,-2.391
925.0,-8.734,-5.783,10.893,0.622,-2.923,-2.391
929.0,-8.734,-5.783,10.893,0.622,-2.923,-2.391
933.0,-8.629,-5.804,11.006,0.724,-3.037,-2.518
937.0,-8.629,-5.804,11.006,0.724,-3.037,-2.518
941.0,-8.552,-5.859,11.02,0.817,-3.159,-2.63
945.0,-8.552,-5.859,11.02,0.817,-3.159,-2.63
949.0,-8.552,-5.859,11.02,0.817,-3.159,-2.63
953.0,-8.439,-5.766,10.849,0.898,-3.269,-2.717
957.0,-8.439,-5.766,10.849,0.898,-3.269,-2.717
961.0,-7.99,-5.624,10.653,0.97,-3.36,-2.788
965.0,-7.99,-5.624,10.653,0.97,-3.36,-2.788
969.0,-7.99,-5.624,10.653,0.97,-3.36,-2.788
973.0,-7.406,-5.343,10.445,1.039,-3.438,-2.858
977.0,-7.406,-5.343,10.445,1.039,-3.438,-2.858
981.0,-7.01,-4.976,10.535,1.105,-3.503,-2.913
985.0,-7.01,-4.976,10.535,1.105,-3.503,-2.913
989.0,-7.01,-4.976,10.535,1.105,-3.503,-2.913
993.0,-6.854,-4.702,10.742,1.154,-3.579,-2.938
996.0,-6.854,-4.702,10.742,1.154,-3.579,-2.938
1000.0,-6.763,-4.609,10.939,1.2,-3.673,-2.955
1005.0,-6.763,-4.609,10.939,1.2,-3.673,-2.955
1009.0,-6.763,-4.609,11.07,1.2,-3.673,-2.955
1013.0,-6.592,-4.606,11.07,1.26,-3.783,-2.992
1017.0,-6.592,-4.606,11.07,1.26,-3.783,-2.992
1021.0,-6.333,-4.479,10.969,1.36,-3.894,-3.035
1025.0,-6.333,-4.479,10.969,1.36,-3.894,-3.035
1029.0,-6.074,-4.332,10.715,1.36,-3.894,-3.05
1033.0,-6.074,-4.332,10.715,1.506,-3.991,-3.05
1037.0,-6.074,-4.332,10.715,1.506,-3.991,-3.05
1041.0,-5.615,-4.272,10.423,1.679,-4.067,-3.017
1045.0,-5.615,-4.272,10.423,1.679,-4.067,-3.017
1049.0,-4.995,-4.178,10.09,1.886,-4.112,-2.965
1054.0,-4.995,-4.178,10.09,1.886,-4.112,-2.965
1058.0,-4.995,-4.178,10.09,1.886,-4.112,-2.965
1062.0,-4.51,-3.816,9.846,2.122,-4.139,-2.92
1066.0,-4.51,-3.816,9.846,2.122,-4.139,-2.92
1070.0,-3.92,-3.143,9.468,2.36,-4.163,-2.88
1074.0,-3.92,-3.143,9.468,2.36,-4.163,-2.88
1078.0,-3.92,-3.143,9.468,2.36,-4.163,-2.88
1082.0,-3.162,-2.598,9.087,2.58,-4.166,-2.843
1086.0,-3.162,-2.598,9.087,2.58,-4.166,-2.843
1090.0,-2.294,-2.032,8.647,2.793,-4.142,-2.829
1094.0,-2.294,-2.032,8.647,2.793,-4.142,-2.829
1098.0,-2.294,-2.032,8.157,2.793,-4.142,-2.829
1102.0,-1.586,-1.253,8.157,3.0,-4.072,-2.824
1106.0,-1.586,-1.253,8.157,3.0,-4.072,-2.824
1110.0,-1.443,-0.797,8.271,3.169,-3.973,-2.799
1114.0,-1.443,-0.797,8.271,3.169,-3.973,-2.799
1118.0,-1.679,-0.334,8.049,3.169,-3.973,-2.799
1122.0,-1.679,-0.334,8.049,3.281,-3.906,-2.765
1126.0,-1.679,-0.334,8.049,3.281,-3.906,-2.765
1130.0,-1.568,0.464,7.138,3.339,-3.846,-2.738
1133.0,-1.568,0.464,7.138,3.339,-3.846,-2.738
1137.0,-0.912,1.161,6.361,3.339,-3.846,-2.738
1141.0,-0.912,1.161,6.361,3.321,-3.748,-2.702
1145.0,-0.912,1.161,6.361,3.321,-3.748,-2.702
1149.0,0.033,1.646,5.7,3.224,-3.602,-2.66
1153.0,0.033,1.646,5.7,3.224,-3.602,-2.66
1157.0,0.033,1.646,5.216,3.224,-3.602,-2.66
1161.0,0.818,1.912,5.216,3.076,-3.404,-2.625
1164.0,0.818,1.912,5.216,3.076,-3.404,-2.625
1168.0,1.321,2.093,4.944,2.909,-3.168,-2.621
1172.0,1.321,2.093,4.944,2.909,-3.168,-2.621
1176.0,1.321,2.093,4.944,2.909,-3.168,-2.621
1180.0,0.991,2.171,4.627,2.751,-2.901,-2.655
1183.0,0.991,2.171,4.627,2.751,-2.901,-2.655
1187.0,1.269,2.42,4.656,2.669,-2.776,-2.682
1191.0,1.269,2.42,4.656,2.669,-2.776,-2.682
1195.0,1.269,2.42,4.656,2.669,-2.776,-2.682
1199.0,1.092,2.443,4.569,2.603,-2.604,-2.672
1203.0,1.092,2.443,4.569,2.603,-2.604,-2.672
1206.0,0.878,2.589,4.326,2.603,-2.604,-2.672
1210.0,0.878,2.589,4.326,2.567,-2.419,-2.631
1214.0,0.878,2.589,4.326,2.567,-2.419,-2.631
1218.0,0.827,2.89,4.218,2.548,-2.242,-2.553
1222.0,0.827,2.89,4.218,2.548,-2.242,-2.553
1225.0,0.827,2.89,4.218,2.548,-2.242,-2.553
1229.0,0.671,3.026,4.307,2.529,-2.081,-2.445
1233.0,0.671,3.026,4.307,2.529,-2.081,-2.445
1237.0,0.531,3.084,4.168,2.513,-1.949,-2.335
1241.0,0.531,3.084,4.168,2.513,-1.949,-2.335
1245.0,0.531,3.084,4.168,2.513,-1.949,-2.335
1248.0,0.498,3.392,3.864,2.494,-1.829,-2.244
1252.0,0.498,3.392,3.864,2.494,-1.829,-2.244
1256.0,0.748,3.782,3.43,2.494,-1.829,-2.151
1260.0,0.748,3.782,3.43,2.448,-1.71,-2.151
1264.0,0.748,3.782,3.43,2.448,-1.71,-2.151
1268.0,1.162,4.094,3.116,2.344,-1.559,-2.045
1271.0,1.162,4.094,3.116,2.344,-1.559,-2.045
1275.0,1.162,4.094,3.024,2.344,-1.559,-2.045
1279.0,1.254,4.424,3.024,2.191,-1.393,-1.957
1283.0,1.254,4.424,3.024,2.191,-1.393,-1.957
1287.0,1.176,4.889,2.834,2.01,-1.257,-1.89
1290.0,1.176,4.889,2.834,2.01,-1.257,-1.89
1294.0,1.176,4.889,2.834,2.01,-1.257,-1.89
1298.0,1.321,5.323,2.823,1.8,-1.138,-1.796
1302.0,1.321,5.323,2.823,1.8,-1.138,-1.796
1306.0,1.47,5.65,2.943,1.576,-1.015,-1.663
1310.0,1.47,5.65,2.943,1.576,-1.015,-1.663
1313.0,1.47,5.65,2.943,1.576,-1.015,-1.663
1317.0,1.452,5.963,3.054,1.36,-0.896,-1.495
1321.0,1.452,5.963,3.054,1.36,-0.896,-1.495
1325.0,1.452,6.167,3.173,1.36,-0.896,-1.495
1329.0,1.512,6.167,3.173,1.159,-0.784,-1.295
1332.0,1.512,6.167,3.173,1.159,-0.784,-1.295
1336.0,1.668,6.176,3.293,0.979,-0.684,-1.079
1340.0,1.668,6.176,3.293,0.979,-0.684,-1.079
1344.0,1.668,6.176,3.293,0.979,-0.684,-1.079
1348.0,1.798,6.009,3.343,0.831,-0.591,-0.875
1352.0,1.798,6.009,3.343,0.831,-0.591,-0.875
1355.0,1.889,5.894,3.307,0.711,-0.501,-0.698
1359.0,1.889,5.894,3.307,0.711,-0.501,-0.698
1363.0,1.889,5.894,3.307,0.711,-0.501,-0.698
1367.0,2.029,5.885,3.301,0.604,-0.405,-0.547
1371.0,2.029,5.885,3.301,0.604,-0.405,-0.547
1374.0,2.149,5.937,3.343,0.604,-0.405,-0.43
1378.0,2.149,5.937,3.343,0.51,-0.311,-0.43
1382.0,2.149,5.937,3.343,0.51,-0.311,-0.43
1386.0,2.164,6.155,3.477,0.434,-0.233,-0.343
1390.0,2.164,6.155,3.477,0.434,-0.233,-0.343
1394.0,2.164,6.155,3.631,0.434,-0.233,-0.343
1397.0,2.283,6.457,3.631,0.376,-0.172,-0.256
1401.0,2.283,6.457,3.631,0.376,-0.172,-0.256
1405.0,2.391,6.69,4.046,0.332,-0.112,-0.156
1409.0,2.391,6.69,4.046,0.332,-0.112,-0.156
1413.0,2.391,6.69,4.046,0.332,-0.112,-0.156
1416.0,2.285,6.776,4.396,0.299,-0.072,-0.054
1420.0,2.285,6.776,4.396,0.299,-0.072,-0.054
1424.0,2.226,6.906,4.488,0.299,-0.048,0.027
1428.0,2.226,6.906,4.488,0.273,-0.048,0.027
1432.0,2.226,6.906,4.488,0.273,-0.048,0.027
1435.0,2.166,7.002,4.575,0.244,-0.03,0.079
1439.0,2.166,7.002,4.575,0.244,-0.03,0.079
1443.0,2.166,7.002,4.575,0.244,-0.03,0.079
1446.0,2.301,7.059,4.592,0.214,-0.035,0.11
1450.0,2.301,7.059,4.592,0.214,-0.035,0.11
1454.0,2.724,7.07,4.549,0.193,-0.043,0.132
1458.0,2.724,7.07,4.549,0.193,-0.043,0.132
1461.0,2.724,7.07,4.549,0.193,-0.043,0.132
1465.0,3.115,7.128,4.56,0.182,-0.03,0.154
1469.0,3.115,7.128,4.56,0.182,-0.03,0.154
1473.0,3.115,7.128,4.532,0.182,-0.03,0.154
1476.0,3.334,7.159,4.532,0.181,-0.004,0.179
1480.0,3.334,7.159,4.532,0.181,-0.004,0.179
1484.0,3.459,7.168,4.525,0.177,0.024,0.201
1487.0,3.459,7.168,4.525,0.177,0.024,0.201
1491.0,3.459,7.168,4.525,0.177,0.024,0.201
1495.0,3.459,7.225,4.549,0.172,0.056,0.208
1498.0,3.459,7.225,4.549,0.172,0.056,0.208
1502.0,3.459,7.225,4.549,0.172,0.056,0.208
1506.0,3.398,7.321,4.52,0.161,0.085,0.205
1509.0,3.398,7.321,4.52,0.161,0.085,0.205
1513.0,3.415,7.302,4.612,0.14,0.109,0.201
1517.0,3.415,7.302,4.612,0.14,0.109,0.201
1520.0,3.415,7.302,4.612,0.14,0.109,0.201
1524.0,3.427,7.211,4.701,0.12,0.125,0.193
1528.0,3.427,7.211,4.701,0.12,0.125,0.193
1531.0,3.427,7.211,4.701,0.12,0.125,0.193
1535.0,3.489,7.05,4.858,0.104,0.14,0.189
1539.0,3.489,7.05,4.858,0.104,0.14,0.189
1542.0,3.55,6.84,5.002,0.104,0.14,0.189
1546.0,3.55,6.84,5.002,0.094,0.153,0.181
1549.0,3.55,6.84,5.002,0.094,0.153,0.181
1553.0,3.57,6.745,5.143,0.091,0.167,0.162
1557.0,3.57,6.745,5.143,0.091,0.167,0.162
1560.0,3.57,6.745,5.143,0.091,0.167,0.162
1564.0,3.538,6.763,5.277,0.094,0.183,0.139
1568.0,3.538,6.763,5.277,0.094,0.183,0.139
1571.0,3.538,6.763,5.382,0.094,0.183,0.139
1575.0,3.538,6.988,5.382,0.104,0.188,0.12
1579.0,3.538,6.988,5.382,0.104,0.188,0.12
1582.0,3.518,7.256,5.399,0.112,0.185,0.123
1586.0,3.518,7.256,5.399,0.112,0.185,0.123
1590.0,3.518,7.256,5.399,0.112,0.185,0.123
1593.0,3.537,7.396,5.487,0.113,0.178,0.152
1597.0,3.537,7.396,5.487,0.113,0.178,0.152
1600.0,3.537,7.396,5.487,0.113,0.178,0.152
1604.0,3.551,7.403,5.539,0.106,0.166,0.18
1608.0,3.551,7.403,5.539,0.106,0.166,0.18
1611.0,3.614,7.347,5.501,0.106,0.166,0.198
1615.0,3.614,7.347,5.501,0.09,0.154,0.198
1619.0,3.614,7.347,5.501,0.09,0.154,0.198
1622.0,3.748,7.301,5.444,0.063,0.147,0.203
1626.0,3.748,7.301,5.444,0.063,0.147,0.203
1630.0,3.748,7.301,5.444,0.063,0.147,0.203
1633.0,3.864,7.298,5.481,0.031,0.151,0.197
1637.0,3.864,7.298,5.481,0.031,0.151,0.197
1641.0,3.864,7.309,5.565,0.031,0.151,0.197
1644.0,3.75,7.309,5.565,0.013,0.173,0.188
1648.0,3.75,7.309,5.565,0.013,0.173,0.188
1652.0,3.65,7.388,5.7,0.024,0.194,0.188
1655.0,3.65,7.388,5.7,0.024,0.194,0.188
1659.0,3.65,7.388,5.7,0.024,0.194,0.188
1662.0,3.578,7.552,5.864,0.065,0.21,0.196
1666.0,3.578,7.552,5.864,0.065,0.21,0.196
1670.0,3.578,7.552,5.864,0.065,0.21,0.196
1673.0,3.409,7.784,5.95,0.132,0.219,0.208
1677.0,3.409,7.784,5.95,0.132,0.219,0.208
1681.0,3.308,8.069,5.967,0.132,0.224,0.237
1684.0,3.308,8.069,5.967,0.218,0.224,0.237
1688.0,3.308,8.069,5.967,0.218,0.224,0.237
1692.0,3.184,8.327,5.907,0.312,0.232,0.29
1695.0,3.184,8.327,5.907,0.312,0.232,0.29
1699.0,3.184,8.327,5.907,0.312,0.232,0.29
1703.0,3.025,8.607,5.792,0.408,0.243,0.362
1706.0,3.025,8.607,5.792,0.408,0.243,0.362
1710.0,2.699,8.956,5.59,0.408,0.243,0.362
1714.0,2.699,8.956,5.59,0.508,0.255,0.442
1717.0,2.699,8.956,5.59,0.508,0.255,0.442
1721.0,2.6,9.252,5.333,0.609,0.256,0.538
1724.0,2.6,9.252,5.333,0.609,0.256,0.538
1728.0,2.6,9.252,5.333,0.609,0.256,0.538
1732.0,2.695,9.528,5.231,0.698,0.265,0.646
1735.0,2.695,9.528,5.231,0.698,0.265,0.646
1739.0,2.695,9.528,5.205,0.698,0.265,0.646
1743.0,2.808,9.811,5.205,0.775,0.29,0.759
1746.0,2.808,9.811,5.205,0.775,0.29,0.759
1750.0,2.914,10.122,5.273,0.831,0.333,0.875
1754.0,2.914,10.122,5.273,0.831,0.333,0.875
1757.0,2.914,10.122,5.273,0.831,0.333,0.875
1761.0,2.842,10.505,5.39,0.866,0.39,0.976
1765.0,2.842,10.505,5.39,0.866,0.39,0.976
1769.0,2.842,10.505,5.488,0.866,0.39,0.976
1772.0,2.721,10.903,5.488,0.881,0.44,1.068
1776.0,2.721,10.903,5.488,0.881,0.44,1.068
1780.0,2.683,11.28,5.543,0.866,0.492,1.182
1784.0,2.683,11.28,5.543,0.866,0.492,1.182
1787.0,2.683,11.28,5.543,0.866,0.492,1.182
1791.0,2.679,11.647,5.736,0.829,0.552,1.311
1795.0,2.679,11.647,5.736,0.829,0.552,1.311
1798.0,2.679,12.101,5.978,0.829,0.552,1.311
1802.0,2.475,12.101,5.978,0.797,0.611,1.44
1806.0,2.475,12.101,5.978,0.797,0.611,1.44
1810.0,2.16,12.514,6.289,0.793,0.656,1.572
1813.0,2.16,12.514,6.289,0.793,0.656,1.572
1817.0,2.16,12.514,6.289,0.793,0.656,1.572
1821.0,1.951,12.793,6.451,0.838,0.674,1.705
1825.0,1.951,12.793,6.451,0.838,0.674,1.705
1828.0,1.962,13.031,6.708,0.838,0.674,1.705
1832.0,1.962,13.031,6.708,0.921,0.692,1.843
1836.0,1.962,13.031,6.708,0.921,0.692,1.843
1840.0,1.953,13.191,7.023,1.04,0.727,1.995
1843.0,1.953,13.191,7.023,1.04,0.727,1.995
1847.0,1.953,13.191,7.023,1.04,0.727,1.995
1851.0,1.872,13.35,7.362,1.196,0.761,2.167
1854.0,1.872,13.35,7.362,1.196,0.761,2.167
1858.0,1.856,13.405,7.633,1.196,0.779,2.364
1862.0,1.856,13.405,7.633,1.366,0.779,2.364
1866.0,1.856,13.405,7.633,1.366,0.779,2.364
1869.0,1.952,13.433,7.762,1.513,0.797,2.585
1873.0,1.952,13.433,7.762,1.513,0.797,2.585
1877.0,1.952,13.433,7.762,1.513,0.797,2.585
1881.0,2.011,13.385,7.917,1.614,0.826,2.813
1884.0,2.011,13.385,7.917,1.614,0.826,2.813
1888.0,1.855,13.321,8.003,1.675,0.846,3.024
1892.0,1.855,13.321,8.003,1.675,0.846,3.024
1896.0,1.855,13.321,8.003,1.675,0.846,3.024
1899.0,1.619,13.209,7.923,1.696,0.845,3.229
1903.0,1.619,13.209,7.923,1.696,0.845,3.229
1907.0,1.619,13.209,7.923,1.696,0.845,3.229
1910.0,1.561,13.006,7.816,1.681,0.835,3.439
1914.0,1.561,13.006,7.816,1.681,0.835,3.439
1918.0,1.63,12.635,7.803,1.647,0.831,3.643
1922.0,1.63,12.635,7.803,1.647,0.831,3.643
1925.0,1.63,12.635,7.803,1.647,0.831,3.643
1929.0,1.701,12.175,7.764,1.611,0.828,3.815
1933.0,1.701,12.175,7.764,1.611,0.828,3.815
1937.0,1.701,11.944,7.911,1.611,0.828,3.815
1940.0,1.698,11.944,7.911,1.593,0.823,3.942
1944.0,1.698,11.944,7.911,1.593,0.823,3.942
1948.0,1.439,11.734,8.221,1.598,0.802,4.059
1952.0,1.439,11.734,8.221,1.598,0.802,4.059
1955.0,1.439,11.734,8.221,1.598,0.802,4.059
1959.0,1.209,11.384,8.341,1.601,0.762,4.204
1963.0,1.209,11.384,8.341,1.601,0.762,4.204
1966.0,0.985,10.949,8.468,1.601,0.762,4.204
1970.0,0.985,10.949,8.468,1.597,0.725,4.354
1974.0,0.985,10.949,8.468,1.597,0.725,4.354
1978.0,0.681,10.482,8.445,1.593,0.671,4.486
1981.0,0.681,10.482,8.445,1.593,0.671,4.486
1985.0,0.681,10.482,8.445,1.593,0.671,4.486
1989.0,0.619,9.994,8.174,1.571,0.599,4.614
1992.0,0.619,9.994,8.174,1.571,0.599,4.614
1996.0,0.786,9.31,7.569,1.571,0.599,4.614
2000.0,0.786,9.31,7.569,1.509,0.536,4.746
2003.0,0.786,9.31,7.569,1.509,0.536,4.746
2007.0,1.117,8.507,6.887,1.398,0.505,4.869
2011.0,1.117,8.507,6.887,1.398,0.505,4.869
2014.0,1.117,8.507,6.887,1.398,0.505,4.869
2018.0,1.461,7.8,6.396,1.244,0.511,4.949
2022.0,1.461,7.8,6.396,1.244,0.511,4.949
2025.0,1.461,7.8,6.098,1.244,0.511,4.949
2029.0,1.563,7.356,6.098,1.066,0.532,4.979
2033.0,1.563,7.356,6.098,1.066,0.532,4.979
2036.0,1.439,7.043,5.806,0.87,0.548,4.997
2040.0,1.439,7.043,5.806,0.87,0.548,4.997
2044.0,1.439,7.043,5.806,0.87,0.548,4.997
2047.0,1.233,6.597,5.352,0.661,0.56,5.011
2051.0,1.233,6.597,5.352,0.661,0.56,5.011
2054.0,1.233,6.597,5.352,0.661,0.56,5.011
2058.0,1.114,6.071,4.95,0.427,0.564,5.013
2062.0,1.114,6.071,4.95,0.427,0.564,5.013
2065.0,1.108,5.493,4.633,0.427,0.564,5.013
2069.0,1.108,5.493,4.633,0.173,0.555,5.013
2073.0,1.108,5.493,4.633,0.173,0.555,5.013
2076.0,1.142,4.641,4.173,-0.089,0.54,5.013
2080.0,1.142,4.641,4.173,-0.089,0.54,5.013
2084.0,1.142,4.641,4.173,-0.089,0.54,5.013
2088.0,1.199,3.632,3.621,-0.358,0.542,5.013
2091.0,1.199,3.632,3.621,-0.358,0.542,5.013
2095.0,1.213,2.775,3.244,-0.358,0.542,5.013
2099.0,1.213,2.775,3.244,-0.626,0.58,5.013
2102.0,1.213,2.775,3.244,-0.626,0.58,5.013
2106.0,1.019,2.061,3.093,-0.877,0.639,5.013
2110.0,1.019,2.061,3.093,-0.877,0.639,5.013
2114.0,1.019,2.061,3.093,-0.877,0.639,5.013
2117.0,0.644,1.311,2.971,-1.107,0.69,5.013
2121.0,0.644,1.311,2.971,-1.107,0.69,5.013
2125.0,0.194,0.477,2.924,-1.322,0.722,5.007
2129.0,0.194,0.477,2.924,-1.322,0.722,5.007
2132.0,0.194,0.477,2.924,-1.322,0.722,5.007
2136.0,-0.282,-0.294,2.888,-1.518,0.734,4.963
2140.0,-0.282,-0.294,2.888,-1.518,0.734,4.963
2144.0,-0.282,-1.095,2.76,-1.518,0.734,4.963
2148.0,-0.779,-1.095,2.76,-1.682,0.727,4.88
2152.0,-0.779,-1.095,2.76,-1.682,0.727,4.88
2156.0,-1.256,-1.875,2.529,-1.816,0.696,4.772
2160.0,-1.256,-1.875,2.529,-1.816,0.696,4.772
2163.0,-1.256,-1.875,2.171,-1.816,0.696,4.772
2167.0,-1.756,-2.513,2.171,-1.933,0.642,4.645
2171.0,-1.756,-2.513,2.171,-1.933,0.642,4.645
2175.0,-2.136,-3.074,1.735,-2.043,0.563,4.508
2179.0,-2.136,-3.074,1.735,-2.043,0.563,4.508
2183.0,-2.136,-3.074,1.735,-2.043,0.563,4.508
2187.0,-2.448,-3.569,1.521,-2.159,0.464,4.372
2191.0,-2.448,-3.569,1.521,-2.159,0.464,4.372
2195.0,-2.667,-4.047,1.439,-2.276,0.326,4.257
2199.0,-2.667,-4.047,1.439,-2.276,0.326,4.257
2202.0,-2.667,-4.047,1.439,-2.276,0.326,4.257
2206.0,-2.634,-4.871,1.348,-2.341,0.146,4.178
2210.0,-2.634,-4.871,1.348,-2.341,0.146,4.178
2214.0,-2.367,-6.167,1.149,-2.282,-0.02,4.105
2218.0,-2.367,-6.167,1.149,-2.282,-0.02,4.105
2222.0,-2.367,-6.167,1.149,-2.282,-0.02,4.105
2226.0,-2.019,-7.653,0.903,-2.073,-0.142,4.015
2230.0,-2.019,-7.653,0.903,-2.073,-0.142,4.015
2234.0,-1.357,-8.859,0.665,-1.722,-0.22,3.911
2238.0,-1.357,-8.859,0.665,-1.722,-0.22,3.911
2242.0,-1.357,-8.859,0.665,-1.722,-0.22,3.911
2246.0,-0.455,-9.471,0.638,-1.301,-0.237,3.781
2250.0,-0.455,-9.471,0.638,-1.301,-0.237,3.781
2254.0,0.314,-9.638,0.766,-0.909,-0.207,3.614
2258.0,0.314,-9.638,0.766,-0.909,-0.207,3.614
2262.0,0.314,-9.638,0.766,-0.909,-0.207,3.614
2266.0,0.915,-9.635,0.882,-0.605,-0.172,3.42
2270.0,0.915,-9.635,0.882,-0.605,-0.172,3.42
2274.0,1.364,-9.49,1.022,-0.388,-0.156,3.221
2278.0,1.364,-9.49,1.022,-0.388,-0.156,3.221
2281.0,1.364,-9.49,1.022,-0.388,-0.156,3.221
2285.0,1.807,-9.461,1.12,-0.223,-0.164,3.059
2289.0,1.807,-9.461,1.12,-0.223,-0.164,3.059
2293.0,2.267,-9.507,1.228,-0.089,-0.176,2.939
2297.0,2.267,-9.507,1.228,-0.089,-0.176,2.939
2301.0,2.267,-9.507,1.228,-0.089,-0.176,2.939
2305.0,2.842,-9.72,1.387,0.037,-0.173,2.855
2309.0,2.842,-9.72,1.387,0.037,-0.173,2.855
2313.0,3.588,-10.1,1.643,0.164,-0.136,2.796
2316.0,3.588,-10.1,1.643,0.164,-0.136,2.796
2320.0,3.588,-10.1,1.643,0.164,-0.136,2.796
2324.0,4.378,-10.583,2.005,0.272,-0.048,2.749
2328.0,4.378,-10.583,2.005,0.272,-0.048,2.749
2332.0,5.343,-11.078,2.642,0.272,0.038,2.699
2336.0,5.343,-11.078,2.642,0.385,0.038,2.699
2340.0,5.343,-11.078,2.642,0.385,0.038,2.699
2344.0,6.278,-11.495,3.367,0.45,0.127,2.64
2347.0,6.278,-11.495,3.367,0.45,0.127,2.64
2351.0,6.278,-11.901,3.937,0.45,0.127,2.64
2355.0,6.805,-11.901,3.937,0.486,0.147,2.559
2359.0,6.805,-11.901,3.937,0.486,0.147,2.559
2363.0,7.402,-11.935,4.418,0.478,0.071,2.478
2366.0,7.402,-11.935,4.418,0.478,0.071,2.478
2370.0,7.402,-11.935,4.418,0.478,0.071,2.478
2374.0,7.509,-11.944,4.74,0.382,0.017,2.385
2378.0,7.509,-11.944,4.74,0.382,0.017,2.385
2382.0,7.482,-12.228,4.838,0.246,-0.055,2.291
2386.0,7.482,-12.228,4.838,0.246,-0.055,2.291
2390.0,7.482,-12.228,4.838,0.246,-0.055,2.291
2393.0,7.297,-12.55,4.73,0.106,-0.132,2.177
2397.0,7.297,-12.55,4.73,0.106,-0.132,2.177
2401.0,7.1,-12.802,4.661,-0.018,-0.187,2.045
2405.0,7.1,-12.802,4.661,-0.018,-0.187,2.045
2409.0,7.1,-12.802,4.661,-0.018,-0.187,2.045
2413.0,7.109,-13.15,4.789,-0.118,-0.22,1.924
2417.0,7.109,-13.15,4.789,-0.118,-0.22,1.924
2421.0,7.128,-13.543,4.932,-0.174,-0.253,1.801
2425.0,7.128,-13.543,4.932,-0.174,-0.253,1.801
2429.0,7.128,-13.543,4.932,-0.174,-0.253,1.801
2433.0,6.848,-13.738,5.12,-0.177,-0.287,1.64
2437.0,6.848,-13.738,5.12,-0.177,-0.287,1.64
2441.0,6.435,-13.717,5.21,-0.14,-0.327,1.452
2445.0,6.435,-13.717,5.21,-0.14,-0.327,1.452
2449.0,6.435,-13.717,5.21,-0.14,-0.327,1.452
2453.0,5.947,-13.458,5.113,-0.088,-0.372,1.266
2457.0,5.947,-13.458,5.113,-0.088,-0.372,1.266
2461.0,5.604,-13.014,4.903,-0.034,-0.41,1.086
2465.0,5.604,-13.014,4.903,-0.034,-0.41,1.086
2469.0,5.604,-13.014,4.903,-0.034,-0.41,1.086
2473.0,5.449,-12.507,4.799,0.016,-0.433,0.946
2477.0,5.449,-12.507,4.799,0.016,-0.433,0.946
2481.0,5.599,-12.277,4.712,0.077,-0.468,0.861
2485.0,5.599,-12.277,4.712,0.077,-0.468,0.861
2489.0,5.599,-12.277,4.712,0.077,-0.468,0.861
2493.0,5.762,-12.083,4.527,0.174,-0.492,0.79
2497.0,5.762,-12.083,4.527,0.174,-0.492,0.79
2500.0,5.852,-11.925,4.472,0.306,-0.487,0.731
2504.0,5.852,-11.925,4.472,0.306,-0.487,0.731
2508.0,5.852,-11.925,4.472,0.306,-0.487,0.731
2512.0,5.719,-11.769,4.437,0.461,-0.472,0.685
2516.0,5.719,-11.769,4.437,0.461,-0.472,0.685
2520.0,5.441,-11.547,4.345,0.627,-0.45,0.635
2524.0,5.441,-11.547,4.345,0.627,-0.45,0.635
2528.0,5.441,-11.547,4.345,0.627,-0.45,0.635
2532.0,5.152,-11.152,4.417,0.772,-0.425,0.585
2536.0,5.152,-11.152,4.417,0.772,-0.425,0.585
2540.0,4.951,-10.644,4.506,0.866,-0.427,0.521
2543.0,4.951,-10.644,4.506,0.866,-0.427,0.521
2547.0,4.951,-10.644,4.506,0.866,-0.427,0.521
2551.0,4.813,-10.07,4.452,0.895,-0.454,0.439
2555.0,4.813,-10.07,4.452,0.895,-0.454,0.439
2559.0,4.873,-9.491,4.376,0.895,-0.48,0.363
2563.0,4.873,-9.491,4.376,0.862,-0.48,0.363
2567.0,4.873,-9.491,4.376,0.862,-0.48,0.363
2571.0,5.058,-8.987,4.333,0.783,-0.503,0.302
2574.0,5.058,-8.987,4.333,0.783,-0.503,0.302
2578.0,5.058,-8.588,4.312,0.783,-0.503,0.302
2582.0,5.234,-8.588,4.312,0.681,-0.532,0.25
2586.0,5.234,-8.588,4.312,0.681,-0.532,0.25
2590.0,5.352,-8.328,4.272,0.569,-0.557,0.207
2593.0,5.352,-8.328,4.272,0.569,-0.557,0.207
2597.0,5.352,-8.328,4.272,0.569,-0.557,0.207
2601.0,5.333,-8.183,4.179,0.461,-0.576,0.176
2605.0,5.333,-8.183,4.179,0.461,-0.576,0.176
2609.0,5.222,-8.094,4.052,0.368,-0.585,0.144
2613.0,5.222,-8.094,4.052,0.368,-0.585,0.144
2616.0,5.222,-8.094,4.052,0.368,-0.585,0.144
2620.0,5.141,-8.03,4.074,0.295,-0.579,0.114
2624.0,5.141,-8.03,4.074,0.295,-0.579,0.114
2628.0,5.054,-7.959,4.145,0.295,-0.579,0.114
2632.0,5.054,-7.959,4.145,0.243,-0.576,0.09
2635.0,5.054,-7.959,4.145,0.243,-0.576,0.09
2639.0,4.89,-7.844,4.102,0.211,-0.58,0.064
2643.0,4.89,-7.844,4.102,0.211,-0.58,0.064
2647.0,4.89,-7.844,4.102,0.211,-0.58,0.064
2651.0,4.772,-7.696,4.054,0.193,-0.571,0.047
2655.0,4.772,-7.696,4.054,0.193,-0.571,0.047
2658.0,4.746,-7.541,4.042,0.192,-0.557,0.042
2662.0,4.746,-7.541,4.042,0.192,-0.557,0.042
2666.0,4.746,-7.541,4.042,0.192,-0.557,0.042
2670.0,4.836,-7.354,3.986,0.211,-0.549,0.041
2674.0,4.836,-7.354,3.986,0.211,-0.549,0.041
2677.0,4.951,-7.212,3.861,0.211,-0.538,0.051
2681.0,4.951,-7.212,3.861,0.245,-0.538,0.051
2685.0,4.951,-7.212,3.861,0.245,-0.538,0.051
2689.0,5.02,-7.061,3.745,0.288,-0.523,0.074
2693.0,5.02,-7.061,3.745,0.288,-0.523,0.074
2697.0,5.02,-6.91,3.699,0.288,-0.523,0.074
2700.0,4.993,-6.91,3.699,0.34,-0.496,0.104
2704.0,4.993,-6.91,3.699,0.34,-0.496,0.104
2708.0,4.92,-6.797,3.669,0.392,-0.47,0.145
2712.0,4.92,-6.797,3.669,0.392,-0.47,0.145
2716.0,4.92,-6.797,3.669,0.392,-0.47,0.145
2719.0,4.81,-6.7,3.641,0.439,-0.449,0.187
2723.0,4.81,-6.7,3.641,0.439,-0.449,0.187
2727.0,4.722,-6.59,3.608,0.48,-0.423,0.222
2731.0,4.722,-6.59,3.608,0.48,-0.423,0.222
2735.0,4.722,-6.59,3.608,0.48,-0.423,0.222
2739.0,4.681,-6.471,3.65,0.514,-0.391,0.256
2742.0,4.681,-6.471,3.65,0.514,-0.391,0.256
2746.0,4.66,-6.348,3.718,0.514,-0.391,0.256
2750.0,4.66,-6.348,3.718,0.543,-0.367,0.292
2754.0,4.66,-6.348,3.718,0.543,-0.367,0.292
2758.0,4.574,-6.226,3.787,0.567,-0.346,0.32
2761.0,4.574,-6.226,3.787,0.567,-0.346,0.32
2765.0,4.574,-6.226,3.787,0.567,-0.346,0.32
2769.0,4.409,-6.096,3.778,0.584,-0.324,0.343
2773.0,4.409,-6.096,3.778,0.584,-0.324,0.343
2777.0,4.222,-5.966,3.739,0.591,-0.289,0.367
2781.0,4.222,-5.966,3.739,0.591,-0.289,0.367
2784.0,4.222,-5.966,3.739,0.591,-0.289,0.367
2788.0,4.073,-5.857,3.732,0.59,-0.238,0.399
2792.0,4.073,-5.857,3.732,0.59,-0.238,0.399
2796.0,4.013,-5.785,3.809,0.59,-0.19,0.436
2800.0,4.013,-5.785,3.809,0.584,-0.19,0.436
2804.0,4.013,-5.785,3.809,0.584,-0.19,0.436
2807.0,4.095,-5.739,3.961,0.578,-0.154,0.476
2811.0,4.095,-5.739,3.961,0.578,-0.154,0.476
2815.0,4.095,-5.739,4.119,0.578,-0.154,0.476
2819.0,4.284,-5.686,4.119,0.576,-0.127,0.521
2823.0,4.284,-5.686,4.119,0.576,-0.127,0.521
2826.0,4.454,-5.696,4.149,0.576,-0.102,0.574
2830.0,4.454,-5.696,4.149,0.576,-0.102,0.574
2834.0,4.454,-5.696,4.149,0.576,-0.102,0.574
2838.0,4.536,-5.722,4.124,0.574,-0.069,0.626
2842.0,4.536,-5.722,4.124,0.574,-0.069,0.626
2846.0,4.44,-5.689,4.135,0.565,-0.029,0.667
2849.0,4.44,-5.689,4.135,0.565,-0.029,0.667
2853.0,4.44,-5.689,4.135,0.565,-0.029,0.667
2857.0,4.155,-5.575,4.19,0.546,0.011,0.701
2861.0,4.155,-5.575,4.19,0.546,0.011,0.701
2864.0,4.155,-5.45,4.244,0.546,0.011,0.701
2868.0,3.765,-5.45,4.244,0.514,0.052,0.739
2872.0,3.765,-5.45,4.244,0.514,0.052,0.739
2876.0,3.393,-5.393,4.217,0.475,0.095,0.778
2879.0,3.393,-5.393,4.217,0.475,0.095,0.778
2883.0,3.393,-5.393,4.217,0.475,0.095,0.778
2887.0,3.083,-5.319,4.26,0.439,0.14,0.805
2891.0,3.083,-5.319,4.26,0.439,0.14,0.805
2894.0,3.014,-5.225,4.295,0.439,0.14,0.805
2898.0,3.014,-5.225,4.295,0.41,0.187,0.832
2902.0,3.014,-5.225,4.295,0.41,0.187,0.832
2906.0,3.046,-5.216,4.233,0.383,0.236,0.876
2909.0,3.046,-5.216,4.233,0.383,0.236,0.876
2913.0,3.046,-5.216,4.233,0.383,0.236,0.876
2917.0,3.034,-5.33,4.085,0.368,0.283,0.917
2920.0,3.034,-5.33,4.085,0.368,0.283,0.917
2924.0,2.91,-5.424,3.86,0.368,0.344,0.937
2928.0,2.91,-5.424,3.86,0.374,0.344,0.937
2932.0,2.91,-5.424,3.86,0.374,0.344,0.937
2935.0,2.634,-5.402,3.711,0.396,0.43,0.952
2939.0,2.634,-5.402,3.711,0.396,0.43,0.952
2943.0,2.634,-5.402,3.711,0.396,0.43,0.952
2947.0,2.36,-5.362,3.619,0.431,0.53,0.982
2950.0,2.36,-5.362,3.619,0.431,0.53,0.982
2954.0,2.057,-5.371,3.525,0.479,0.636,1.023
2958.0,2.057,-5.371,3.525,0.479,0.636,1.023
2961.0,2.057,-5.371,3.525,0.479,0.636,1.023
2965.0,1.764,-5.463,3.397,0.541,0.752,1.058
2969.0,1.764,-5.463,3.397,0.541,0.752,1.058
2973.0,1.764,-5.463,3.223,0.541,0.752,1.058
2976.0,1.515,-5.591,3.223,0.617,0.894,1.077
2980.0,1.515,-5.591,3.223,0.617,0.894,1.077
2984.0,1.26,-5.743,3.039,0.71,1.071,1.073
2988.0,1.26,-5.743,3.039,0.71,1.071,1.073
2991.0,1.26,-5.743,3.039,0.71,1.071,1.073
2995.0,0.988,-5.876,2.81,0.824,1.28,1.046
2999.0,0.988,-5.876,2.81,0.824,1.28,1.046
