deltaTime,Acc_X,Acc_Y,Acc_Z,Gyro_X,Gyro_Y,Gyro_Z
0.0,-8.898,-5.128,4.891,0.572,-0.382,-0.033
3.0,-8.898,-5.014,4.958,0.572,-0.382,-0.033
6.0,-8.83,-5.014,4.958,0.673,-0.348,-0.12
9.0,-8.83,-5.014,4.958,0.673,-0.348,-0.12
12.0,-8.83,-5.014,4.958,0.673,-0.348,-0.12
15.0,-8.565,-4.477,4.953,0.786,-0.338,-0.191
18.0,-8.565,-4.477,4.953,0.786,-0.338,-0.191
21.0,-8.565,-4.477,4.953,0.786,-0.338,-0.191
24.0,-8.915,-4.059,4.736,0.83,-0.28,-0.244
27.0,-8.915,-4.059,4.736,0.83,-0.28,-0.244
30.0,-8.915,-4.059,4.736,0.83,-0.28,-0.244
33.0,-8.918,-3.912,4.739,0.83,-0.249,-0.259
37.0,-8.918,-3.912,4.739,0.833,-0.249,-0.259
41.0,-8.918,-3.912,4.739,0.833,-0.249,-0.259
45.0,-8.971,-4.046,4.684,0.822,-0.218,-0.247
49.0,-8.971,-4.046,4.684,0.822,-0.218,-0.247
53.0,-8.971,-4.046,4.692,0.822,-0.218,-0.247
56.0,-8.6,-4.301,4.692,0.844,-0.225,-0.23
60.0,-8.6,-4.301,4.692,0.844,-0.225,-0.23
64.0,-8.037,-4.589,4.796,0.9,-0.276,-0.203
68.0,-8.037,-4.589,4.796,0.9,-0.276,-0.203
72.0,-8.037,-4.589,4.796,0.9,-0.276,-0.203
75.0,-7.689,-4.385,4.651,0.959,-0.29,-0.174
79.0,-7.689,-4.385,4.651,0.959,-0.29,-0.174
83.0,-7.35,-4.357,4.664,0.962,-0.242,-0.173
87.0,-7.35,-4.357,4.664,0.962,-0.242,-0.173
91.0,-7.35,-4.357,4.664,0.962,-0.242,-0.173
95.0,-6.808,-4.31,4.75,0.966,-0.224,-0.186
98.0,-6.808,-4.31,4.75,0.966,-0.224,-0.186
102.0,-6.535,-4.223,4.762,0.966,-0.224,-0.186
106.0,-6.535,-4.223,4.762,0.988,-0.202,-0.199
110.0,-6.535,-4.223,4.762,0.988,-0.202,-0.199
114.0,-6.462,-4.1,4.77,1.034,-0.178,-0.212
118.0,-6.462,-4.1,4.77,1.034,-0.178,-0.212
122.0,-6.462,-3.914,4.868,1.034,-0.178,-0.212
126.0,-6.365,-3.914,4.868,1.087,-0.152,-0.224
130.0,-6.365,-3.914,4.868,1.087,-0.152,-0.224
133.0,-6.193,-3.538,5.101,1.117,-0.116,-0.238
137.0,-6.193,-3.538,5.101,1.117,-0.116,-0.238
141.0,-6.193,-3.538,5.437,1.117,-0.116,-0.238
145.0,-5.844,-3.324,5.437,1.099,-0.073,-0.263
149.0,-5.844,-3.324,5.437,1.099,-0.073,-0.263
153.0,-5.448,-3.585,6.05,1.077,-0.02,-0.299
157.0,-5.448,-3.585,6.05,1.077,-0.02,-0.299
161.0,-5.448,-3.585,6.05,1.077,-0.02,-0.299
165.0,-5.436,-3.821,6.563,1.125,0.023,-0.323
168.0,-5.436,-3.821,6.563,1.125,0.023,-0.323
172.0,-5.743,-4.178,6.781,1.243,0.028,-0.344
176.0,-5.743,-4.178,6.781,1.243,0.028,-0.344
180.0,-5.743,-4.178,6.781,1.243,0.028,-0.344
184.0,-5.712,-4.356,6.789,1.41,-0.011,-0.379
188.0,-5.712,-4.356,6.789,1.41,-0.011,-0.379
192.0,-5.886,-4.868,6.668,1.63,-0.042,-0.428
195.0,-5.886,-4.868,6.668,1.63,-0.042,-0.428
199.0,-5.886,-4.868,6.668,1.63,-0.042,-0.428
203.0,-5.548,-3.581,6.018,1.894,-0.148,-0.49
207.0,-5.548,-3.581,6.018,1.894,-0.148,-0.49
211.0,-5.739,-2.606,5.367,1.894,-0.263,-0.587
215.0,-5.739,-2.606,5.367,1.933,-0.263,-0.587
219.0,-5.739,-2.606,5.367,1.933,-0.263,-0.587
223.0,-6.138,-2.326,5.072,1.832,-0.317,-0.636
227.0,-6.138,-2.326,5.072,1.832,-0.317,-0.636
231.0,-6.462,-2.157,5.081,1.832,-0.317,-0.634
235.0,-6.462,-2.157,5.081,1.708,-0.323,-0.634
238.0,-6.462,-2.157,5.081,1.708,-0.323,-0.634
242.0,-6.887,-2.02,5.231,1.579,-0.315,-0.605
246.0,-6.887,-2.02,5.231,1.579,-0.315,-0.605
250.0,-7.304,-2.037,5.515,1.579,-0.315,-0.605
254.0,-7.304,-2.037,5.515,1.465,-0.332,-0.565
258.0,-7.304,-2.037,5.515,1.465,-0.332,-0.565
262.0,-7.751,-2.207,5.816,1.374,-0.378,-0.525
266.0,-7.751,-2.207,5.816,1.374,-0.378,-0.525
270.0,-7.751,-2.207,6.191,1.374,-0.378,-0.525
274.0,-8.268,-2.326,6.191,1.298,-0.44,-0.498
278.0,-8.268,-2.326,6.191,1.298,-0.44,-0.498
281.0,-8.828,-2.412,6.793,1.234,-0.522,-0.482
285.0,-8.828,-2.412,6.793,1.234,-0.522,-0.482
289.0,-8.828,-2.412,6.793,1.234,-0.522,-0.482
293.0,-9.364,-2.418,7.351,1.184,-0.643,-0.468
297.0,-9.364,-2.418,7.351,1.184,-0.643,-0.468
301.0,-9.821,-2.455,7.789,1.145,-0.784,-0.443
305.0,-9.821,-2.455,7.789,1.145,-0.784,-0.443
309.0,-9.821,-2.455,7.789,1.145,-0.784,-0.443
313.0,-10.344,-2.642,7.977,1.108,-0.925,-0.394
317.0,-10.344,-2.642,7.977,1.108,-0.925,-0.394
321.0,-10.787,-2.879,8.086,1.063,-1.055,-0.335
325.0,-10.787,-2.879,8.086,1.063,-1.055,-0.335
329.0,-10.787,-2.879,8.086,1.063,-1.055,-0.335
333.0,-10.874,-3.135,8.555,1.032,-1.175,-0.307
337.0,-10.874,-3.135,8.555,1.032,-1.175,-0.307
341.0,-11.139,-3.34,9.058,1.044,-1.302,-0.347
345.0,-11.139,-3.34,9.058,1.044,-1.302,-0.347
349.0,-11.139,-3.34,9.397,1.044,-1.302,-0.347
353.0,-11.969,-3.485,9.397,1.105,-1.448,-0.412
357.0,-11.969,-3.485,9.397,1.105,-1.448,-0.412
361.0,-12.933,-3.568,9.659,1.179,-1.6,-0.444
365.0,-12.933,-3.568,9.659,1.179,-1.6,-0.444
369.0,-13.641,-3.615,10.11,1.179,-1.6,-0.444
373.0,-13.641,-3.615,10.11,1.227,-1.743,-0.431
377.0,-13.641,-3.615,10.11,1.227,-1.743,-0.431
381.0,-14.011,-3.859,10.637,1.248,-1.883,-0.393
385.0,-14.011,-3.859,10.637,1.248,-1.883,-0.393
389.0,-13.872,-4.034,11.027,1.249,-2.043,-0.383
393.0,-13.872,-4.034,11.027,1.249,-2.043,-0.383
397.0,-13.872,-4.034,11.027,1.249,-2.043,-0.383
401.0,-13.116,-3.96,11.396,1.236,-2.218,-0.437
405.0,-13.116,-3.96,11.396,1.236,-2.218,-0.437
409.0,-12.132,-3.685,11.508,1.222,-2.399,-0.55
413.0,-12.132,-3.685,11.508,1.222,-2.399,-0.55
418.0,-12.132,-3.685,11.508,1.222,-2.399,-0.55
422.0,-11.096,-3.467,11.386,1.205,-2.573,-0.706
426.0,-11.096,-3.467,11.386,1.205,-2.573,-0.706
430.0,-10.031,-3.258,11.134,1.199,-2.706,-0.876
434.0,-10.031,-3.258,11.134,1.199,-2.706,-0.876
438.0,-8.922,-3.136,10.825,1.199,-2.706,-1.036
442.0,-8.922,-3.136,10.825,1.2,-2.782,-1.036
446.0,-8.922,-3.136,10.825,1.2,-2.782,-1.036
450.0,-7.951,-3.293,10.808,1.214,-2.829,-1.165
454.0,-7.951,-3.293,10.808,1.214,-2.829,-1.165
458.0,-7.163,-3.844,10.855,1.214,-2.874,-1.292
462.0,-7.163,-3.844,10.855,1.262,-2.874,-1.292
466.0,-7.163,-3.844,10.855,1.262,-2.874,-1.292
470.0,-6.523,-4.432,11.033,1.372,-2.933,-1.431
474.0,-6.523,-4.432,11.033,1.372,-2.933,-1.431
478.0,-6.092,-4.824,10.911,1.555,-3.012,-1.555
482.0,-6.092,-4.824,10.911,1.555,-3.012,-1.555
486.0,-6.092,-4.824,10.911,1.555,-3.012,-1.555
490.0,-5.889,-5.08,10.534,1.769,-3.099,-1.604
494.0,-5.889,-5.08,10.534,1.769,-3.099,-1.604
498.0,-5.548,-5.524,10.21,1.992,-3.159,-1.559
502.0,-5.548,-5.524,10.21,1.992,-3.159,-1.559
506.0,-5.548,-5.524,10.21,1.992,-3.159,-1.559
510.0,-4.954,-6.165,10.222,2.233,-3.174,-1.479
514.0,-4.954,-6.165,10.222,2.233,-3.174,-1.479
518.0,-4.34,-6.552,10.308,2.497,-3.173,-1.473
522.0,-4.34,-6.552,10.308,2.497,-3.173,-1.473
526.0,-4.34,-6.552,10.308,2.497,-3.173,-1.473
530.0,-3.848,-6.76,10.299,2.766,-3.195,-1.585
534.0,-3.848,-6.76,10.299,2.766,-3.195,-1.585
538.0,-3.575,-6.49,10.041,3.01,-3.246,-1.772
542.0,-3.575,-6.49,10.041,3.01,-3.246,-1.772
546.0,-3.575,-6.49,10.041,3.01,-3.246,-1.772
550.0,-3.215,-5.938,9.607,3.185,-3.316,-1.958
554.0,-3.215,-5.938,9.607,3.185,-3.316,-1.958
558.0,-2.678,-5.299,8.934,3.263,-3.376,-2.105
561.0,-2.678,-5.299,8.934,3.263,-3.376,-2.105
565.0,-2.678,-5.299,8.934,3.263,-3.376,-2.105
569.0,-2.123,-4.827,8.358,3.249,-3.4,-2.223
573.0,-2.123,-4.827,8.358,3.249,-3.4,-2.223
577.0,-1.652,-4.533,7.898,3.182,-3.411,-2.332
581.0,-1.652,-4.533,7.898,3.182,-3.411,-2.332
585.0,-1.652,-4.533,7.898,3.182,-3.411,-2.332
589.0,-1.297,-4.559,7.676,3.111,-3.416,-2.442
593.0,-1.297,-4.559,7.676,3.111,-3.416,-2.442
597.0,-1.101,-4.637,7.497,3.068,-3.41,-2.546
601.0,-1.101,-4.637,7.497,3.068,-3.41,-2.546
604.0,-1.101,-4.637,7.497,3.068,-3.41,-2.546
608.0,-1.091,-5.107,7.78,3.072,-3.399,-2.617
612.0,-1.091,-5.107,7.78,3.072,-3.399,-2.617
616.0,-1.175,-5.509,7.916,3.14,-3.41,-2.649
620.0,-1.175,-5.509,7.916,3.14,-3.41,-2.649
624.0,-1.175,-5.509,7.916,3.14,-3.41,-2.649
628.0,-1.218,-5.446,7.723,3.294,-3.431,-2.636
632.0,-1.218,-5.446,7.723,3.294,-3.431,-2.636
636.0,-1.06,-5.182,7.509,3.528,-3.447,-2.599
640.0,-1.06,-5.182,7.509,3.528,-3.447,-2.599
643.0,-1.06,-5.182,7.509,3.528,-3.447,-2.599
647.0,-0.685,-4.589,6.922,3.819,-3.464,-2.583
651.0,-0.685,-4.589,6.922,3.819,-3.464,-2.583
655.0,-0.248,-4.009,6.128,3.819,-3.464,-2.608
659.0,-0.248,-4.009,6.128,4.14,-3.449,-2.608
663.0,-0.248,-4.009,6.128,4.14,-3.449,-2.608
667.0,-0.036,-3.319,5.255,4.466,-3.403,-2.665
671.0,-0.036,-3.319,5.255,4.466,-3.403,-2.665
675.0,-0.014,-2.321,4.478,4.466,-3.403,-2.665
679.0,-0.014,-2.321,4.478,4.757,-3.348,-2.696
683.0,-0.014,-2.321,4.478,4.757,-3.348,-2.696
686.0,0.165,-1.468,3.967,4.949,-3.274,-2.671
690.0,0.165,-1.468,3.967,4.949,-3.274,-2.671
694.0,0.165,-1.468,3.523,4.949,-3.274,-2.671
698.0,0.041,-0.639,3.523,4.995,-3.168,-2.613
702.0,0.041,-0.639,3.523,4.995,-3.168,-2.613
706.0,-0.235,0.453,3.197,4.995,-3.069,-2.562
709.0,-0.235,0.453,3.197,4.995,-3.069,-2.562
713.0,-0.235,0.453,3.197,4.995,-3.069,-2.562
717.0,-0.399,1.414,2.666,4.955,-2.996,-2.535
721.0,-0.399,1.414,2.666,4.955,-2.996,-2.535
725.0,-0.216,2.42,2.101,4.692,-2.92,-2.534
728.0,-0.216,2.42,2.101,4.692,-2.92,-2.534
732.0,-0.216,2.42,2.101,4.692,-2.92,-2.534
736.0,0.1,3.363,1.758,4.232,-2.814,-2.564
740.0,0.1,3.363,1.758,4.232,-2.814,-2.564
744.0,0.1,4.169,1.461,4.232,-2.814,-2.564
747.0,0.264,4.169,1.461,3.672,-2.683,-2.643
751.0,0.264,4.169,1.461,3.672,-2.683,-2.643
755.0,0.074,4.946,1.122,3.079,-2.536,-2.745
758.0,0.074,4.946,1.122,3.079,-2.536,-2.745
762.0,0.074,4.946,1.122,3.079,-2.536,-2.745
766.0,-0.223,5.73,0.836,2.506,-2.389,-2.788
770.0,-0.223,5.73,0.836,2.506,-2.389,-2.788
774.0,-0.376,6.237,0.528,2.506,-2.389,-2.715
777.0,-0.376,6.237,0.528,1.988,-2.246,-2.715
781.0,-0.376,6.237,0.528,1.988,-2.246,-2.715
785.0,-0.264,6.551,0.3,1.547,-2.102,-2.547
789.0,-0.264,6.551,0.3,1.547,-2.102,-2.547
793.0,-0.264,6.551,0.215,1.547,-2.102,-2.547
797.0,-0.337,6.931,0.215,1.198,-1.951,-2.345
800.0,-0.337,6.931,0.215,1.198,-1.951,-2.345
804.0,-0.676,7.488,0.162,0.942,-1.8,-2.127
808.0,-0.676,7.488,0.162,0.942,-1.8,-2.127
812.0,-0.676,7.488,0.162,0.942,-1.8,-2.127
816.0,-0.989,8.011,0.163,0.766,-1.649,-1.864
819.0,-0.989,8.011,0.163,0.766,-1.649,-1.864
823.0,-1.021,8.493,0.198,0.649,-1.489,-1.566
827.0,-1.021,8.493,0.198,0.649,-1.489,-1.566
831.0,-1.021,8.493,0.198,0.649,-1.489,-1.566
835.0,-1.117,9.023,0.293,0.574,-1.31,-1.259
839.0,-1.117,9.023,0.293,0.574,-1.31,-1.259
842.0,-1.124,9.604,0.527,0.574,-1.31,-1.259
846.0,-1.124,9.604,0.527,0.53,-1.124,-0.95
850.0,-1.124,9.604,0.527,0.53,-1.124,-0.95
854.0,-1.254,10.378,0.949,0.504,-0.941,-0.629
858.0,-1.254,10.378,0.949,0.504,-0.941,-0.629
862.0,-1.254,10.378,0.949,0.504,-0.941,-0.629
866.0,-1.215,11.032,1.478,0.48,-0.774,-0.268
869.0,-1.215,11.032,1.478,0.48,-0.774,-0.268
873.0,-0.935,11.535,2.021,0.449,-0.617,0.091
877.0,-0.935,11.535,2.021,0.449,-0.617,0.091
881.0,-0.935,11.535,2.021,0.449,-0.617,0.091
885.0,-0.475,11.946,2.36,0.404,-0.463,0.414
889.0,-0.475,11.946,2.36,0.404,-0.463,0.414
892.0,0.048,12.31,2.766,0.329,-0.303,0.704
896.0,0.048,12.31,2.766,0.329,-0.303,0.704
900.0,0.048,12.31,2.766,0.329,-0.303,0.704
904.0,0.465,12.624,3.053,0.218,-0.146,0.956
907.0,0.465,12.624,3.053,0.218,-0.146,0.956
911.0,0.465,12.624,3.352,0.218,-0.146,0.956
915.0,0.778,12.904,3.352,0.073,0.014,1.155
918.0,0.778,12.904,3.352,0.073,0.014,1.155
922.0,1.003,12.987,3.895,-0.084,0.153,1.299
926.0,1.003,12.987,3.895,-0.084,0.153,1.299
930.0,1.003,12.987,3.895,-0.084,0.153,1.299
933.0,1.452,12.721,4.484,-0.226,0.249,1.41
937.0,1.452,12.721,4.484,-0.226,0.249,1.41
941.0,1.452,12.721,5.073,-0.226,0.249,1.41
945.0,1.755,12.299,5.073,-0.349,0.33,1.509
948.0,1.755,12.299,5.073,-0.349,0.33,1.509
952.0,1.728,11.73,5.789,-0.442,0.392,1.614
956.0,1.728,11.73,5.789,-0.442,0.392,1.614
959.0,1.728,11.73,5.789,-0.442,0.392,1.614
963.0,1.564,11.067,6.542,-0.474,0.415,1.73
967.0,1.564,11.067,6.542,-0.474,0.415,1.73
971.0,1.549,10.22,7.266,-0.474,0.415,1.73
974.0,1.549,10.22,7.266,-0.432,0.398,1.88
978.0,1.549,10.22,7.266,-0.432,0.398,1.88
982.0,1.631,9.504,7.838,-0.336,0.351,2.073
985.0,1.631,9.504,7.838,-0.336,0.351,2.073
989.0,1.631,9.504,7.838,-0.336,0.351,2.073
993.0,1.511,8.842,8.296,-0.215,0.289,2.295
996.0,1.511,8.842,8.296,-0.215,0.289,2.295
1000.0,1.511,8.842,8.484,-0.215,0.289,2.295
1004.0,1.254,8.37,8.484,-0.087,0.188,2.519
1008.0,1.254,8.37,8.484,-0.087,0.188,2.519
1011.0,1.3,8.047,8.28,0.01,0.047,2.743
1015.0,1.3,8.047,8.28,0.01,0.047,2.743
1019.0,1.3,8.047,8.28,0.01,0.047,2.743
1022.0,1.878,7.649,7.918,0.048,-0.094,2.942
1026.0,1.878,7.649,7.918,0.048,-0.094,2.942
1030.0,1.878,7.649,7.58,0.048,-0.094,2.942
1033.0,2.49,7.464,7.58,0.045,-0.214,3.058
1037.0,2.49,7.464,7.58,0.045,-0.214,3.058
1041.0,2.699,7.413,6.955,0.02,-0.324,3.132
1045.0,2.699,7.413,6.955,0.02,-0.324,3.132
1048.0,2.699,7.413,6.955,0.02,-0.324,3.132
1052.0,2.877,7.321,6.785,-0.023,-0.409,3.191
1056.0,2.877,7.321,6.785,-0.023,-0.409,3.191
1060.0,2.487,7.346,6.625,-0.023,-0.409,3.191
1064.0,2.487,7.346,6.625,-0.036,-0.491,3.158
1067.0,2.487,7.346,6.625,-0.036,-0.491,3.158
1071.0,1.889,7.551,6.223,-0.064,-0.579,3.14
1075.0,1.889,7.551,6.223,-0.064,-0.579,3.14
1079.0,1.889,7.551,6.223,-0.064,-0.579,3.14
1083.0,1.755,7.476,6.3,-0.159,-0.636,3.226
1086.0,1.755,7.476,6.3,-0.159,-0.636,3.226
1090.0,1.774,7.251,6.483,-0.247,-0.701,3.301
1094.0,1.774,7.251,6.483,-0.247,-0.701,3.301
1098.0,1.774,7.251,6.483,-0.247,-0.701,3.301
1102.0,1.921,7.421,6.687,-0.264,-0.78,3.267
1106.0,1.921,7.421,6.687,-0.264,-0.78,3.267
1109.0,2.218,7.764,6.732,-0.264,-0.867,3.182
1113.0,2.218,7.764,6.732,-0.206,-0.867,3.182
1117.0,2.218,7.764,6.732,-0.206,-0.867,3.182
1121.0,2.928,7.953,6.735,-0.101,-0.935,3.129
1125.0,2.928,7.953,6.735,-0.101,-0.935,3.129
1128.0,2.928,8.011,6.758,-0.101,-0.935,3.129
1132.0,3.625,8.011,6.758,0.041,-0.961,3.085
1136.0,3.625,8.011,6.758,0.041,-0.961,3.085
1140.0,4.056,8.3,6.811,0.21,-0.948,3.054
1143.0,4.056,8.3,6.811,0.21,-0.948,3.054
1147.0,4.056,8.3,6.811,0.21,-0.948,3.054
1151.0,3.993,8.589,6.887,0.378,-0.906,3.112
1155.0,3.993,8.589,6.887,0.378,-0.906,3.112
1158.0,4.006,8.465,6.976,0.378,-0.906,3.112
1162.0,4.006,8.465,6.976,0.513,-0.849,3.275
1166.0,4.006,8.465,6.976,0.513,-0.849,3.275
1170.0,3.983,8.075,7.113,0.622,-0.773,3.423
1173.0,3.983,8.075,7.113,0.622,-0.773,3.423
1177.0,3.983,8.075,7.113,0.622,-0.773,3.423
1181.0,3.829,7.653,7.018,0.719,-0.698,3.503
1185.0,3.829,7.653,7.018,0.719,-0.698,3.503
1188.0,3.639,7.39,6.962,0.719,-0.608,3.523
1192.0,3.639,7.39,6.962,0.797,-0.608,3.523
1196.0,3.639,7.39,6.962,0.797,-0.608,3.523
1199.0,3.452,7.202,6.875,0.857,-0.528,3.522
1203.0,3.452,7.202,6.875,0.857,-0.528,3.522
1207.0,3.452,7.202,6.875,0.857,-0.528,3.522
1211.0,3.299,6.954,6.731,0.884,-0.457,3.547
1214.0,3.299,6.954,6.731,0.884,-0.457,3.547
1218.0,3.194,6.625,6.639,0.861,-0.39,3.603
1222.0,3.194,6.625,6.639,0.861,-0.39,3.603
1226.0,3.194,6.625,6.639,0.861,-0.39,3.603
1229.0,3.244,6.223,6.433,0.799,-0.324,3.654
1233.0,3.244,6.223,6.433,0.799,-0.324,3.654
1237.0,3.244,6.223,6.433,0.799,-0.324,3.654
1241.0,3.37,5.943,6.394,0.708,-0.248,3.667
1244.0,3.37,5.943,6.394,0.708,-0.248,3.667
1248.0,3.289,5.934,6.427,0.601,-0.181,3.671
1252.0,3.289,5.934,6.427,0.601,-0.181,3.671
1255.0,3.289,5.934,6.427,0.601,-0.181,3.671
1259.0,3.077,5.882,6.334,0.491,-0.125,3.723
1263.0,3.077,5.882,6.334,0.491,-0.125,3.723
1267.0,3.077,5.716,6.123,0.491,-0.125,3.723
1270.0,2.862,5.716,6.123,0.391,-0.06,3.813
1274.0,2.862,5.716,6.123,0.391,-0.06,3.813
1278.0,2.614,5.588,5.861,0.308,0.022,3.917
1281.0,2.614,5.588,5.861,0.308,0.022,3.917
1285.0,2.614,5.588,5.861,0.308,0.022,3.917
1289.0,2.395,5.383,5.76,0.242,0.111,4.042
1292.0,2.395,5.383,5.76,0.242,0.111,4.042
1296.0,2.395,5.383,5.733,0.242,0.111,4.042
1300.0,2.095,5.177,5.733,0.183,0.19,4.186
1303.0,2.095,5.177,5.733,0.183,0.19,4.186
1307.0,1.783,4.962,5.605,0.113,0.263,4.35
1311.0,1.783,4.962,5.605,0.113,0.263,4.35
1314.0,1.783,4.962,5.605,0.113,0.263,4.35
1318.0,1.309,4.854,5.411,0.025,0.344,4.536
1322.0,1.309,4.854,5.411,0.025,0.344,4.536
1325.0,1.309,4.854,5.411,0.025,0.344,4.536
1329.0,0.814,4.586,5.028,-0.077,0.439,4.754
1333.0,0.814,4.586,5.028,-0.077,0.439,4.754
1336.0,0.492,4.168,4.781,-0.077,0.554,4.953
1340.0,0.492,4.168,4.781,-0.19,0.554,4.953
1344.0,0.492,4.168,4.781,-0.19,0.554,4.953
1348.0,0.258,3.744,4.789,-0.306,0.67,5.013
1351.0,0.258,3.744,4.789,-0.306,0.67,5.013
1355.0,0.258,3.744,4.789,-0.306,0.67,5.013
1359.0,0.109,3.459,4.834,-0.429,0.758,5.013
1362.0,0.109,3.459,4.834,-0.429,0.758,5.013
1366.0,-0.05,3.06,4.908,-0.587,0.797,5.013
1370.0,-0.05,3.06,4.908,-0.587,0.797,5.013
1374.0,-0.05,3.06,4.908,-0.587,0.797,5.013
1378.0,-0.026,2.247,4.719,-0.8,0.779,5.013
1381.0,-0.026,2.247,4.719,-0.8,0.779,5.013
1385.0,0.141,1.024,4.528,-0.8,0.779,5.013
1389.0,0.141,1.024,4.528,-1.065,0.736,5.013
1393.0,0.141,1.024,4.528,-1.065,0.736,5.013
1397.0,0.058,-0.428,4.582,-1.378,0.684,5.013
1400.0,0.058,-0.428,4.582,-1.378,0.684,5.013
1404.0,0.058,-0.428,4.582,-1.378,0.684,5.013
1408.0,-0.464,-1.674,4.716,-1.738,0.601,5.013
1412.0,-0.464,-1.674,4.716,-1.738,0.601,5.013
1416.0,-1.638,-2.921,4.808,-2.123,0.499,5.013
1420.0,-1.638,-2.921,4.808,-2.123,0.499,5.013
1424.0,-1.638,-2.921,4.808,-2.123,0.499,5.013
1427.0,-3.47,-4.507,4.622,-2.525,0.373,5.013
1431.0,-3.47,-4.507,4.622,-2.525,0.373,5.013
1435.0,-5.517,-5.868,3.349,-2.941,0.199,5.013
1439.0,-5.517,-5.868,3.349,-2.941,0.199,5.013
1443.0,-5.517,-5.868,3.349,-2.941,0.199,5.013
1447.0,-7.296,-7.087,1.807,-3.366,-0.004,5.013
1451.0,-7.296,-7.087,1.807,-3.366,-0.004,5.013
1455.0,-8.306,-8.748,1.018,-3.798,-0.236,5.013
1459.0,-8.306,-8.748,1.018,-3.798,-0.236,5.013
1463.0,-8.306,-8.748,1.018,-3.798,-0.236,5.013
1467.0,-8.154,-11.397,0.531,-4.184,-0.557,5.013
1471.0,-8.154,-11.397,0.531,-4.184,-0.557,5.013
1475.0,-7.56,-14.694,-0.429,-4.379,-0.924,5.013
1479.0,-7.56,-14.694,-0.429,-4.379,-0.924,5.013
1483.0,-7.56,-14.694,-0.429,-4.379,-0.924,5.013
1488.0,-7.269,-17.86,-1.293,-4.207,-1.219,4.89
1492.0,-7.269,-17.86,-1.293,-4.207,-1.219,4.89
1496.0,-6.268,-19.577,-1.571,-3.614,-1.417,4.449
1500.0,-6.268,-19.577,-1.571,-3.614,-1.417,4.449
1504.0,-4.401,-19.6,-1.36,-2.694,-1.531,3.939
1508.0,-4.401,-19.6,-1.36,-2.694,-1.531,3.939
1513.0,-4.401,-19.6,-1.36,-2.694,-1.531,3.939
1517.0,-1.732,-19.6,-1.546,-1.619,-1.581,3.439
1521.0,-1.732,-19.6,-1.546,-1.619,-1.581,3.439
1525.0,0.771,-19.6,-2.043,-0.599,-1.519,2.969
1529.0,0.771,-19.6,-2.043,-0.599,-1.519,2.969
1533.0,2.693,-18.799,-2.486,-0.599,-1.519,2.969
1537.0,2.693,-18.799,-2.486,0.22,-1.343,2.537
1541.0,2.693,-18.799,-2.486,0.22,-1.343,2.537
1545.0,3.847,-17.055,-2.495,0.794,-1.088,2.148
1549.0,3.847,-17.055,-2.495,0.794,-1.088,2.148
1553.0,4.534,-15.811,-1.889,0.794,-1.088,1.832
1557.0,4.534,-15.811,-1.889,1.153,-0.819,1.832
1561.0,4.534,-15.811,-1.889,1.153,-0.819,1.832
1565.0,5.072,-15.288,-1.397,1.329,-0.595,1.594
1569.0,5.072,-15.288,-1.397,1.329,-0.595,1.594
1573.0,5.655,-14.955,-0.997,1.329,-0.431,1.366
1577.0,5.655,-14.955,-0.997,1.384,-0.431,1.366
1581.0,5.655,-14.955,-0.997,1.384,-0.431,1.366
1585.0,6.135,-14.758,-0.5,1.368,-0.309,1.144
1589.0,6.135,-14.758,-0.5,1.368,-0.309,1.144
1593.0,6.23,-14.523,-0.091,1.299,-0.232,0.923
1597.0,6.23,-14.523,-0.091,1.299,-0.232,0.923
1601.0,6.23,-14.523,-0.091,1.299,-0.232,0.923
1605.0,5.94,-14.039,0.16,1.183,-0.185,0.69
1609.0,5.94,-14.039,0.16,1.183,-0.185,0.69
1613.0,5.469,-13.379,0.552,1.016,-0.135,0.48
1617.0,5.469,-13.379,0.552,1.016,-0.135,0.48
1621.0,5.469,-13.379,0.552,1.016,-0.135,0.48
1625.0,5.125,-12.729,1.009,0.81,-0.09,0.323
1629.0,5.125,-12.729,1.009,0.81,-0.09,0.323
1633.0,5.047,-12.281,1.438,0.585,-0.053,0.214
1637.0,5.047,-12.281,1.438,0.585,-0.053,0.214
1640.0,5.047,-12.281,1.438,0.585,-0.053,0.214
1644.0,5.051,-12.057,1.854,0.368,-0.008,0.139
1648.0,5.051,-12.057,1.854,0.368,-0.008,0.139
1652.0,5.125,-11.958,2.401,0.368,0.03,0.082
1656.0,5.125,-11.958,2.401,0.188,0.03,0.082
1660.0,5.125,-11.958,2.401,0.188,0.03,0.082
1664.0,5.252,-11.949,2.922,0.064,0.058,0.031
1667.0,5.252,-11.949,2.922,0.064,0.058,0.031
1671.0,5.252,-11.949,3.343,0.064,0.058,0.031
1675.0,5.288,-11.975,3.343,0.012,0.082,-0.023
1679.0,5.288,-11.975,3.343,0.012,0.082,-0.023
1683.0,5.217,-11.928,3.724,0.026,0.107,-0.079
1687.0,5.217,-11.928,3.724,0.026,0.107,-0.079
1691.0,5.217,-11.928,3.724,0.026,0.107,-0.079
1695.0,4.978,-11.77,4.052,0.083,0.14,-0.119
1698.0,4.978,-11.77,4.052,0.083,0.14,-0.119
1702.0,4.436,-11.536,4.293,0.159,0.157,-0.152
1706.0,4.436,-11.536,4.293,0.159,0.157,-0.152
1710.0,4.436,-11.536,4.293,0.159,0.157,-0.152
1714.0,3.811,-11.227,4.414,0.233,0.13,-0.194
1718.0,3.811,-11.227,4.414,0.233,0.13,-0.194
1722.0,3.242,-10.857,4.416,0.287,0.084,-0.244
1726.0,3.242,-10.857,4.416,0.287,0.084,-0.244
1730.0,3.242,-10.857,4.416,0.287,0.084,-0.244
1734.0,2.87,-10.419,4.433,0.316,0.037,-0.303
1738.0,2.87,-10.419,4.433,0.316,0.037,-0.303
1741.0,2.81,-9.884,4.494,0.329,-0.01,-0.375
1745.0,2.81,-9.884,4.494,0.329,-0.01,-0.375
1749.0,2.81,-9.884,4.494,0.329,-0.01,-0.375
1753.0,3.099,-9.368,4.741,0.334,-0.045,-0.442
1757.0,3.099,-9.368,4.741,0.334,-0.045,-0.442
1761.0,3.686,-8.995,5.018,0.341,-0.068,-0.484
1765.0,3.686,-8.995,5.018,0.341,-0.068,-0.484
1769.0,3.686,-8.995,5.018,0.341,-0.068,-0.484
1773.0,4.235,-8.704,5.262,0.364,-0.093,-0.501
1777.0,4.235,-8.704,5.262,0.364,-0.093,-0.501
1781.0,4.67,-8.572,5.224,0.364,-0.127,-0.489
1784.0,4.67,-8.572,5.224,0.401,-0.127,-0.489
1788.0,4.67,-8.572,5.224,0.401,-0.127,-0.489
1792.0,4.753,-8.552,4.807,0.444,-0.147,-0.462
1796.0,4.753,-8.552,4.807,0.444,-0.147,-0.462
1800.0,4.369,-8.464,4.473,0.444,-0.147,-0.439
1804.0,4.369,-8.464,4.473,0.483,-0.127,-0.439
1808.0,4.369,-8.464,4.473,0.483,-0.127,-0.439
1812.0,3.813,-8.298,4.256,0.508,-0.09,-0.409
1816.0,3.813,-8.298,4.256,0.508,-0.09,-0.409
1820.0,3.235,-8.085,4.214,0.508,-0.09,-0.409
1823.0,3.235,-8.085,4.214,0.507,-0.048,-0.368
1827.0,3.235,-8.085,4.214,0.507,-0.048,-0.368
1831.0,2.901,-7.899,4.339,0.484,-0.013,-0.306
1835.0,2.901,-7.899,4.339,0.484,-0.013,-0.306
1839.0,2.901,-7.698,4.548,0.484,-0.013,-0.306
1843.0,3.08,-7.698,4.548,0.449,-0.014,-0.236
1847.0,3.08,-7.698,4.548,0.449,-0.014,-0.236
1851.0,3.72,-7.49,4.862,0.414,-0.043,-0.166
1855.0,3.72,-7.49,4.862,0.414,-0.043,-0.166
1859.0,3.72,-7.49,5.014,0.414,-0.043,-0.166
1863.0,4.489,-7.427,5.014,0.387,-0.088,-0.086
1866.0,4.489,-7.427,5.014,0.387,-0.088,-0.086
1870.0,4.969,-7.371,4.917,0.377,-0.122,-0.008
1874.0,4.969,-7.371,4.917,0.377,-0.122,-0.008
1878.0,4.969,-7.371,4.917,0.377,-0.122,-0.008
1882.0,4.994,-7.304,4.732,0.38,-0.117,0.067
1886.0,4.994,-7.304,4.732,0.38,-0.117,0.067
1890.0,4.766,-7.171,4.551,0.384,-0.077,0.14
1894.0,4.766,-7.171,4.551,0.384,-0.077,0.14
1897.0,4.766,-7.171,4.551,0.384,-0.077,0.14
1901.0,4.591,-7.033,4.632,0.381,-0.029,0.203
1905.0,4.591,-7.033,4.632,0.381,-0.029,0.203
1909.0,4.649,-6.946,4.785,0.381,-0.004,0.266
1913.0,4.649,-6.946,4.785,0.365,-0.004,0.266
1916.0,4.649,-6.946,4.785,0.365,-0.004,0.266
1920.0,4.756,-6.963,4.777,0.34,-0.003,0.336
1924.0,4.756,-6.963,4.777,0.34,-0.003,0.336
1928.0,4.756,-6.963,4.622,0.34,-0.003,0.336
1932.0,4.609,-7.072,4.622,0.313,-0.001,0.401
1936.0,4.609,-7.072,4.622,0.313,-0.001,0.401
1939.0,4.103,-7.159,4.503,0.293,0.014,0.457
1943.0,4.103,-7.159,4.503,0.293,0.014,0.457
1947.0,4.103,-7.159,4.503,0.293,0.014,0.457
1951.0,3.405,-7.305,4.564,0.278,0.043,0.519
1954.0,3.405,-7.305,4.564,0.278,0.043,0.519
1958.0,2.832,-7.548,4.821,0.278,0.043,0.585
1962.0,2.832,-7.548,4.821,0.264,0.07,0.585
1966.0,2.832,-7.548,4.821,0.264,0.07,0.585
1969.0,2.57,-7.865,5.085,0.254,0.067,0.626
1973.0,2.57,-7.865,5.085,0.254,0.067,0.626
1977.0,2.57,-7.865,5.085,0.254,0.067,0.626
1980.0,2.657,-8.261,5.126,0.253,0.035,0.624
1984.0,2.657,-8.261,5.126,0.253,0.035,0.624
1988.0,3.013,-8.41,5.078,0.264,-0.012,0.562
1992.0,3.013,-8.41,5.078,0.264,-0.012,0.562
1996.0,3.013,-8.41,5.078,0.264,-0.012,0.562
1999.0,3.459,-8.23,5.066,0.279,-0.054,0.462
2003.0,3.459,-8.23,5.066,0.279,-0.054,0.462
2007.0,3.459,-8.023,5.072,0.279,-0.054,0.462
2011.0,3.758,-8.023,5.072,0.284,-0.086,0.377
2015.0,3.758,-8.023,5.072,0.284,-0.086,0.377
2018.0,3.742,-7.966,4.905,0.266,-0.105,0.308
2022.0,3.742,-7.966,4.905,0.266,-0.105,0.308
2026.0,3.742,-7.966,4.905,0.266,-0.105,0.308
2030.0,3.421,-7.978,4.625,0.229,-0.091,0.229
2034.0,3.421,-7.978,4.625,0.229,-0.091,0.229
2038.0,3.129,-7.927,4.521,0.19,-0.039,0.148
2041.0,3.129,-7.927,4.521,0.19,-0.039,0.148
2045.0,3.129,-7.927,4.521,0.19,-0.039,0.148
2049.0,3.129,-7.991,4.729,0.172,0.051,0.104
2053.0,3.129,-7.991,4.729,0.172,0.051,0.104
2056.0,3.424,-8.283,5.164,0.172,0.051,0.104
2060.0,3.424,-8.283,5.164,0.195,0.132,0.117
2064.0,3.424,-8.283,5.164,0.195,0.132,0.117
2068.0,3.888,-8.764,5.616,0.272,0.163,0.157
2071.0,3.888,-8.764,5.616,0.272,0.163,0.157
2075.0,3.888,-8.764,5.616,0.272,0.163,0.157
2079.0,4.1,-9.19,5.804,0.399,0.156,0.196
2083.0,4.1,-9.19,5.804,0.399,0.156,0.196
2086.0,3.778,-9.435,5.643,0.399,0.156,0.22
2090.0,3.778,-9.435,5.643,0.553,0.147,0.22
2094.0,3.778,-9.435,5.643,0.553,0.147,0.22
2098.0,3.058,-9.323,5.623,0.706,0.163,0.224
2101.0,3.058,-9.323,5.623,0.706,0.163,0.224
2105.0,3.058,-9.323,5.623,0.706,0.163,0.224
2109.0,2.431,-8.95,5.941,0.822,0.18,0.226
2112.0,2.431,-8.95,5.941,0.822,0.18,0.226
2116.0,2.292,-8.497,6.351,0.822,0.146,0.238
2120.0,2.292,-8.497,6.351,0.888,0.146,0.238
2124.0,2.292,-8.497,6.351,0.888,0.146,0.238
2127.0,2.906,-8.057,6.364,0.908,0.067,0.245
2131.0,2.906,-8.057,6.364,0.908,0.067,0.245
2135.0,2.906,-8.057,6.364,0.908,0.067,0.245
2139.0,3.693,-7.806,6.057,0.897,-0.004,0.24
2142.0,3.693,-7.806,6.057,0.897,-0.004,0.24
2146.0,4.125,-7.597,5.761,0.861,-0.047,0.212
2150.0,4.125,-7.597,5.761,0.861,-0.047,0.212
2154.0,4.125,-7.597,5.761,0.861,-0.047,0.212
2158.0,4.066,-7.312,5.791,0.802,-0.059,0.158
2162.0,4.066,-7.312,5.791,0.802,-0.059,0.158
2165.0,3.685,-7.122,6.001,0.802,-0.059,0.11
2169.0,3.685,-7.122,6.001,0.709,-0.072,0.11
2173.0,3.685,-7.122,6.001,0.709,-0.072,0.11
2177.0,3.221,-7.013,5.888,0.597,-0.103,0.058
2181.0,3.221,-7.013,5.888,0.597,-0.103,0.058
2184.0,3.221,-7.013,5.737,0.597,-0.103,0.058
2188.0,2.758,-6.931,5.737,0.489,-0.105,-0.003
2192.0,2.758,-6.931,5.737,0.489,-0.105,-0.003
2196.0,2.47,-6.874,5.719,0.399,-0.07,-0.037
2200.0,2.47,-6.874,5.719,0.399,-0.07,-0.037
2204.0,2.47,-6.874,5.719,0.399,-0.07,-0.037
2208.0,2.388,-6.834,5.975,0.33,-0.026,-0.042
2212.0,2.388,-6.834,5.975,0.33,-0.026,-0.042
2216.0,2.503,-6.847,6.236,0.281,-0.012,-0.027
2219.0,2.503,-6.847,6.236,0.281,-0.012,-0.027
2223.0,2.503,-6.847,6.236,0.281,-0.012,-0.027
2227.0,2.865,-6.934,6.175,0.243,-0.014,0.006
2231.0,2.865,-6.934,6.175,0.243,-0.014,0.006
2235.0,3.038,-7.121,5.892,0.207,-0.012,0.048
2239.0,3.038,-7.121,5.892,0.207,-0.012,0.048
2243.0,3.038,-7.121,5.892,0.207,-0.012,0.048
2246.0,3.022,-7.254,5.641,0.172,-0.013,0.069
2250.0,3.022,-7.254,5.641,0.172,-0.013,0.069
2254.0,2.792,-7.14,5.632,0.172,-0.013,0.072
2258.0,2.792,-7.14,5.632,0.131,0.002,0.072
2262.0,2.792,-7.14,5.632,0.131,0.002,0.072
2265.0,2.644,-6.954,5.886,0.072,0.005,0.085
2269.0,2.644,-6.954,5.886,0.072,0.005,0.085
2273.0,2.644,-6.954,5.886,0.072,0.005,0.085
2277.0,2.691,-6.872,6.214,0.004,-0.033,0.099
2280.0,2.691,-6.872,6.214,0.004,-0.033,0.099
2284.0,2.778,-6.823,6.346,-0.054,-0.104,0.108
2288.0,2.778,-6.823,6.346,-0.054,-0.104,0.108
2292.0,2.778,-6.823,6.346,-0.054,-0.104,0.108
2296.0,2.771,-6.751,6.345,-0.092,-0.162,0.125
2300.0,2.771,-6.751,6.345,-0.092,-0.162,0.125
2304.0,2.966,-6.587,5.829,-0.092,-0.171,0.161
2308.0,2.966,-6.587,5.829,-0.117,-0.171,0.161
2312.0,2.966,-6.587,5.829,-0.117,-0.171,0.161
2315.0,3.121,-6.833,5.03,-0.128,-0.087,0.237
2319.0,3.121,-6.833,5.03,-0.128,-0.087,0.237
2323.0,3.107,-7.153,5.051,-0.128,-0.087,0.284
2327.0,3.107,-7.153,5.051,-0.098,0.018,0.284
2331.0,3.107,-7.153,5.051,-0.098,0.018,0.284
2335.0,3.364,-7.234,5.611,-0.018,0.037,0.25
2339.0,3.364,-7.234,5.611,-0.018,0.037,0.25
2342.0,3.364,-7.234,6.206,-0.018,0.037,0.25
2346.0,3.586,-7.077,6.206,0.067,-0.031,0.211
2350.0,3.586,-7.077,6.206,0.067,-0.031,0.211
2354.0,3.599,-7.055,6.068,0.135,-0.131,0.22
2358.0,3.599,-7.055,6.068,0.135,-0.131,0.22
2362.0,3.599,-7.055,6.068,0.135,-0.131,0.22
2365.0,3.148,-7.156,5.3,0.195,-0.156,0.248
2369.0,3.148,-7.156,5.3,0.195,-0.156,0.248
2373.0,2.315,-7.07,4.922,0.252,-0.063,0.273
2377.0,2.315,-7.07,4.922,0.252,-0.063,0.273
2381.0,2.315,-7.07,4.922,0.252,-0.063,0.273
2384.0,1.715,-6.822,5.334,0.293,0.066,0.32
2388.0,1.715,-6.822,5.334,0.293,0.066,0.32
2392.0,1.715,-6.774,5.97,0.293,0.066,0.32
2396.0,1.711,-6.774,5.97,0.304,0.136,0.419
2399.0,1.711,-6.774,5.97,0.304,0.136,0.419
2403.0,2.12,-6.872,6.535,0.291,0.123,0.531
2407.0,2.12,-6.872,6.535,0.291,0.123,0.531
2411.0,2.12,-6.872,6.535,0.291,0.123,0.531
2414.0,2.515,-7.207,6.415,0.271,0.065,0.629
2418.0,2.515,-7.207,6.415,0.271,0.065,0.629
2422.0,2.78,-7.464,6.041,0.271,0.065,0.629
2425.0,2.78,-7.464,6.041,0.248,0.045,0.691
2429.0,2.78,-7.464,6.041,0.248,0.045,0.691
2433.0,2.847,-7.57,5.806,0.212,0.081,0.736
2437.0,2.847,-7.57,5.806,0.212,0.081,0.736
2440.0,2.847,-7.57,5.806,0.212,0.081,0.736
2444.0,2.889,-7.633,5.694,0.16,0.151,0.777
2448.0,2.889,-7.633,5.694,0.16,0.151,0.777
2452.0,2.984,-7.74,5.679,0.16,0.151,0.807
2455.0,2.984,-7.74,5.679,0.107,0.227,0.807
2459.0,2.984,-7.74,5.679,0.107,0.227,0.807
2463.0,2.956,-7.857,5.812,0.071,0.29,0.814
2467.0,2.956,-7.857,5.812,0.071,0.29,0.814
2470.0,2.956,-7.857,5.812,0.071,0.29,0.814
2474.0,2.818,-7.764,5.8,0.067,0.317,0.811
2478.0,2.818,-7.764,5.8,0.067,0.317,0.811
2481.0,2.578,-7.69,5.544,0.093,0.317,0.827
2485.0,2.578,-7.69,5.544,0.093,0.317,0.827
2489.0,2.578,-7.69,5.544,0.093,0.317,0.827
2493.0,2.233,-7.862,5.371,0.132,0.304,0.862
2496.0,2.233,-7.862,5.371,0.132,0.304,0.862
2500.0,2.233,-7.862,5.371,0.132,0.304,0.862
2504.0,1.786,-8.233,5.106,0.177,0.284,0.872
2508.0,1.786,-8.233,5.106,0.177,0.284,0.872
2511.0,1.236,-8.596,4.742,0.224,0.261,0.811
2515.0,1.236,-8.596,4.742,0.224,0.261,0.811
2519.0,1.236,-8.596,4.742,0.224,0.261,0.811
2523.0,0.725,-8.85,4.394,0.269,0.25,0.681
2526.0,0.725,-8.85,4.394,0.269,0.25,0.681
2530.0,0.725,-8.85,3.992,0.269,0.25,0.681
2534.0,0.416,-9.045,3.992,0.314,0.281,0.511
2537.0,0.416,-9.045,3.992,0.314,0.281,0.511
2541.0,0.022,-8.981,4.284,0.371,0.377,0.322
2545.0,0.022,-8.981,4.284,0.371,0.377,0.322
2549.0,0.022,-8.981,4.284,0.371,0.377,0.322
2552.0,-0.244,-8.629,5.034,0.444,0.454,0.161
2556.0,-0.244,-8.629,5.034,0.444,0.454,0.161
2560.0,-0.12,-8.32,5.642,0.444,0.454,0.07
2564.0,-0.12,-8.32,5.642,0.533,0.459,0.07
2568.0,-0.12,-8.32,5.642,0.533,0.459,0.07
2571.0,0.184,-8.134,5.916,0.639,0.425,0.037
2575.0,0.184,-8.134,5.916,0.639,0.425,0.037
2579.0,0.184,-8.134,5.916,0.639,0.425,0.037
2583.0,0.504,-7.927,5.925,0.764,0.393,0.041
2586.0,0.504,-7.927,5.925,0.764,0.393,0.041
2590.0,0.878,-7.692,5.857,0.887,0.384,0.076
2594.0,0.878,-7.692,5.857,0.887,0.384,0.076
2598.0,0.878,-7.692,5.857,0.887,0.384,0.076
2601.0,1.317,-7.521,5.819,0.991,0.407,0.142
2605.0,1.317,-7.521,5.819,0.991,0.407,0.142
2609.0,1.317,-7.521,5.739,0.991,0.407,0.142
2613.0,1.711,-7.463,5.739,1.076,0.452,0.221
2616.0,1.711,-7.463,5.739,1.076,0.452,0.221
2620.0,1.905,-7.424,5.623,1.146,0.513,0.277
2624.0,1.905,-7.424,5.623,1.146,0.513,0.277
2627.0,1.905,-7.424,5.623,1.146,0.513,0.277
2631.0,1.816,-7.356,5.387,1.21,0.585,0.309
2635.0,1.816,-7.356,5.387,1.21,0.585,0.309
2639.0,1.816,-7.058,5.372,1.21,0.585,0.309
2642.0,1.359,-7.058,5.372,1.269,0.666,0.323
2646.0,1.359,-7.058,5.372,1.269,0.666,0.323
2650.0,0.845,-6.591,5.416,1.31,0.726,0.365
2654.0,0.845,-6.591,5.416,1.31,0.726,0.365
2657.0,0.845,-6.591,5.416,1.31,0.726,0.365
2661.0,0.479,-6.317,5.413,1.322,0.762,0.452
2665.0,0.479,-6.317,5.413,1.322,0.762,0.452
2669.0,0.283,-6.181,5.411,1.322,0.762,0.452
2672.0,0.283,-6.181,5.411,1.31,0.795,0.559
2676.0,0.283,-6.181,5.411,1.31,0.795,0.559
2680.0,0.343,-6.157,5.139,1.284,0.838,0.664
2683.0,0.343,-6.157,5.139,1.284,0.838,0.664
2687.0,0.343,-6.157,5.139,1.284,0.838,0.664
2691.0,0.526,-6.258,4.717,1.261,0.924,0.741
2695.0,0.526,-6.258,4.717,1.261,0.924,0.741
2698.0,0.622,-6.442,4.351,1.261,1.073,0.777
2702.0,0.622,-6.442,4.351,1.258,1.073,0.777
2706.0,0.622,-6.442,4.351,1.258,1.073,0.777
2710.0,0.192,-6.342,4.883,1.291,1.254,0.761
2713.0,0.192,-6.342,4.883,1.291,1.254,0.761
2717.0,0.192,-6.342,4.883,1.291,1.254,0.761
2721.0,-0.464,-5.81,5.885,1.358,1.338,0.744
2725.0,-0.464,-5.81,5.885,1.358,1.338,0.744
2728.0,-0.855,-5.442,6.188,1.434,1.285,0.796
2732.0,-0.855,-5.442,6.188,1.434,1.285,0.796
2736.0,-0.855,-5.442,6.188,1.434,1.285,0.796
2740.0,-1.178,-5.366,6.02,1.512,1.211,0.909
2744.0,-1.178,-5.366,6.02,1.512,1.211,0.909
2748.0,-1.335,-5.39,5.637,1.512,1.211,0.909
2751.0,-1.335,-5.39,5.637,1.597,1.182,1.046
2755.0,-1.335,-5.39,5.637,1.597,1.182,1.046
2759.0,-1.318,-5.439,5.142,1.694,1.224,1.181
2763.0,-1.318,-5.439,5.142,1.694,1.224,1.181
2767.0,-1.318,-5.439,5.142,1.694,1.224,1.181
2770.0,-1.046,-5.525,4.531,1.804,1.352,1.292
2774.0,-1.046,-5.525,4.531,1.804,1.352,1.292
2778.0,-0.699,-5.599,3.884,1.933,1.58,1.366
2782.0,-0.699,-5.599,3.884,1.933,1.58,1.366
2786.0,-0.699,-5.599,3.884,1.933,1.58,1.366
2790.0,-0.55,-5.594,3.465,2.092,1.898,1.401
2793.0,-0.55,-5.594,3.465,2.092,1.898,1.401
2797.0,-0.688,-5.403,3.584,2.092,2.254,1.403
2801.0,-0.688,-5.403,3.584,2.293,2.254,1.403
2805.0,-0.688,-5.403,3.584,2.293,2.254,1.403
2809.0,-1.175,-5.194,4.277,2.541,2.579,1.403
2812.0,-1.175,-5.194,4.277,2.541,2.579,1.403
2816.0,-1.175,-4.816,5.667,2.541,2.579,1.403
2820.0,-2.153,-4.816,5.667,2.833,2.787,1.415
2824.0,-2.153,-4.816,5.667,2.833,2.787,1.415
2828.0,-3.113,-4.424,6.56,3.146,2.799,1.467
2832.0,-3.113,-4.424,6.56,3.146,2.799,1.467
2835.0,-3.113,-4.424,6.56,3.146,2.799,1.467
2839.0,-3.616,-4.466,6.464,3.45,2.699,1.559
2843.0,-3.616,-4.466,6.464,3.45,2.699,1.559
2847.0,-3.763,-4.665,5.624,3.735,2.64,1.643
2851.0,-3.763,-4.665,5.624,3.735,2.64,1.643
2854.0,-3.763,-4.665,5.624,3.735,2.64,1.643
2858.0,-3.663,-4.82,4.282,4.005,2.706,1.687
2862.0,-3.663,-4.82,4.282,4.005,2.706,1.687
2866.0,-3.713,-4.735,3.408,4.005,2.706,1.687
2870.0,-3.713,-4.735,3.408,4.254,2.928,1.677
2874.0,-3.713,-4.735,3.408,4.254,2.928,1.677
2877.0,-4.394,-4.301,3.948,4.486,3.204,1.614
2881.0,-4.394,-4.301,3.948,4.486,3.204,1.614
2885.0,-4.394,-4.301,3.948,4.486,3.204,1.614
2889.0,-5.308,-3.717,4.677,4.685,3.34,1.521
2893.0,-5.308,-3.717,4.677,4.685,3.34,1.521
2896.0,-6.013,-3.176,4.826,4.813,3.315,1.418
2900.0,-6.013,-3.176,4.826,4.813,3.315,1.418
2904.0,-6.013,-3.176,4.826,4.813,3.315,1.418
2908.0,-6.314,-2.713,4.587,4.851,3.244,1.316
2912.0,-6.314,-2.713,4.587,4.851,3.244,1.316
2916.0,-6.142,-2.413,4.248,4.851,3.228,1.217
2919.0,-6.142,-2.413,4.248,4.808,3.228,1.217
2923.0,-6.142,-2.413,4.248,4.808,3.228,1.217
2927.0,-5.658,-2.187,4.055,4.713,3.295,1.108
2931.0,-5.658,-2.187,4.055,4.713,3.295,1.108
2935.0,-5.658,-2.187,4.438,4.713,3.295,1.108
2939.0,-5.314,-2.013,4.438,4.607,3.423,0.968
2942.0,-5.314,-2.013,4.438,4.607,3.423,0.968
2946.0,-5.703,-1.539,5.383,4.523,3.515,0.784
2950.0,-5.703,-1.539,5.383,4.523,3.515,0.784
2954.0,-5.703,-1.539,5.383,4.523,3.515,0.784
2958.0,-6.388,-1.077,5.639,4.463,3.499,0.6
2961.0,-6.388,-1.077,5.639,4.463,3.499,0.6
2965.0,-7.11,-0.69,5.483,4.41,3.446,0.428
2969.0,-7.11,-0.69,5.483,4.41,3.446,0.428
2973.0,-7.11,-0.69,5.483,4.41,3.446,0.428
2977.0,-7.75,-0.377,5.14,4.364,3.422,0.271
2981.0,-7.75,-0.377,5.14,4.364,3.422,0.271
2984.0,-8.319,-0.159,4.667,4.364,3.422,0.271
2988.0,-8.319,-0.159,4.667,4.334,3.448,0.125
2992.0,-8.319,-0.159,4.667,4.334,3.448,0.125
2996.0,-8.831,0.081,4.135,4.337,3.517,-0.005
3000.0,-8.831,0.081,4.135,4.337,3.517,-0.005
