deltaTime,Acc_X,Acc_Y,Acc_Z,Gyro_X,Gyro_Y,Gyro_Z
0.0,-12.388,-1.65,1.412,0.543,-0.014,0.022
3.0,-12.388,-1.65,1.412,0.543,-0.014,0.022
6.0,-12.388,-1.65,1.412,0.543,-0.014,0.022
9.0,-12.057,-1.678,1.409,0.543,-0.081,0.066
12.0,-12.057,-1.678,1.409,0.461,-0.081,0.066
15.0,-12.057,-1.678,1.409,0.461,-0.081,0.066
18.0,-12.057,-1.678,1.409,0.461,-0.081,0.066
21.0,-12.1,-1.728,1.356,0.37,-0.099,0.11
24.0,-12.1,-1.728,1.356,0.37,-0.099,0.11
27.0,-12.1,-1.728,1.356,0.37,-0.099,0.11
30.0,-12.586,-1.9,1.106,0.285,-0.107,0.157
34.0,-12.586,-1.9,1.106,0.285,-0.107,0.157
37.0,-12.586,-1.9,1.106,0.285,-0.107,0.157
41.0,-13.27,-2.235,0.749,0.212,-0.141,0.208
45.0,-13.27,-2.235,0.749,0.212,-0.141,0.208
49.0,-13.76,-2.237,0.282,0.212,-0.14,0.279
53.0,-13.76,-2.237,0.282,0.155,-0.14,0.279
57.0,-13.76,-2.237,0.282,0.155,-0.14,0.279
60.0,-13.813,-2.3,0.125,0.079,-0.14,0.33
64.0,-13.813,-2.3,0.125,0.079,-0.14,0.33
68.0,-13.813,-2.3,0.199,0.079,-0.14,0.33
72.0,-13.498,-2.195,0.199,-0.006,-0.124,0.361
76.0,-13.498,-2.195,0.199,-0.006,-0.124,0.361
80.0,-12.671,-2.058,0.446,-0.081,-0.101,0.367
84.0,-12.671,-2.058,0.446,-0.081,-0.101,0.367
87.0,-12.671,-2.058,0.446,-0.081,-0.101,0.367
91.0,-11.339,-1.896,0.804,-0.131,-0.075,0.35
95.0,-11.339,-1.896,0.804,-0.131,-0.075,0.35
99.0,-10.093,-1.915,1.196,-0.15,-0.04,0.311
103.0,-10.093,-1.915,1.196,-0.15,-0.04,0.311
107.0,-10.093,-1.915,1.196,-0.15,-0.04,0.311
111.0,-9.193,-1.79,1.619,-0.132,-0.009,0.249
115.0,-9.193,-1.79,1.619,-0.132,-0.009,0.249
119.0,-8.792,-1.792,1.97,-0.121,0.008,0.185
123.0,-8.792,-1.792,1.97,-0.121,0.008,0.185
127.0,-8.792,-1.792,1.97,-0.121,0.008,0.185
130.0,-9.11,-1.971,2.026,-0.124,-0.004,0.148
134.0,-9.11,-1.971,2.026,-0.124,-0.004,0.148
138.0,-8.421,-2.442,1.847,-0.156,-0.108,0.149
142.0,-8.421,-2.442,1.847,-0.156,-0.108,0.149
146.0,-8.421,-2.442,1.847,-0.156,-0.108,0.149
150.0,-10.626,-2.425,-0.285,-0.077,-0.249,0.187
154.0,-10.626,-2.425,-0.285,-0.077,-0.249,0.187
158.0,-11.873,-2.248,1.478,-0.035,-0.151,0.23
162.0,-11.873,-2.248,1.478,-0.035,-0.151,0.23
166.0,-11.873,-2.248,1.478,-0.035,-0.151,0.23
170.0,-10.793,-1.902,0.738,-0.13,-0.123,0.328
174.0,-10.793,-1.902,0.738,-0.13,-0.123,0.328
178.0,-10.86,-2.21,0.175,-0.321,-0.097,0.399
182.0,-10.86,-2.21,0.175,-0.321,-0.097,0.399
186.0,-10.86,-2.21,0.175,-0.321,-0.097,0.399
190.0,-10.56,-2.543,0.044,-0.419,-0.123,0.416
194.0,-10.56,-2.543,0.044,-0.419,-0.123,0.416
198.0,-9.899,-2.457,0.078,-0.426,-0.137,0.376
202.0,-9.899,-2.457,0.078,-0.426,-0.137,0.376
206.0,-9.899,-2.457,0.078,-0.426,-0.137,0.376
210.0,-9.293,-2.216,0.222,-0.394,-0.14,0.293
214.0,-9.293,-2.216,0.222,-0.394,-0.14,0.293
218.0,-8.932,-1.857,0.453,-0.351,-0.144,0.183
221.0,-8.932,-1.857,0.453,-0.351,-0.144,0.183
225.0,-8.932,-1.857,0.453,-0.351,-0.144,0.183
229.0,-8.761,-1.317,0.504,-0.345,-0.157,0.057
233.0,-8.761,-1.317,0.504,-0.345,-0.157,0.057
237.0,-9.09,-1.009,0.614,-0.419,-0.161,-0.059
241.0,-9.09,-1.009,0.614,-0.419,-0.161,-0.059
245.0,-9.09,-1.009,0.614,-0.419,-0.161,-0.059
249.0,-9.702,-1.117,0.416,-0.547,-0.174,-0.157
253.0,-9.702,-1.117,0.416,-0.547,-0.174,-0.157
257.0,-9.799,-1.044,0.246,-0.653,-0.178,-0.235
261.0,-9.799,-1.044,0.246,-0.653,-0.178,-0.235
265.0,-9.799,-1.044,0.246,-0.653,-0.178,-0.235
269.0,-9.796,-0.767,0.164,-0.732,-0.175,-0.299
273.0,-9.796,-0.767,0.164,-0.732,-0.175,-0.299
277.0,-10.007,-0.485,-0.053,-0.822,-0.188,-0.346
281.0,-10.007,-0.485,-0.053,-0.822,-0.188,-0.346
285.0,-10.007,-0.313,0.096,-0.822,-0.188,-0.346
289.0,-9.991,-0.313,0.096,-0.923,-0.185,-0.365
293.0,-9.991,-0.313,0.096,-0.923,-0.185,-0.365
297.0,-9.919,-0.241,0.33,-1.006,-0.191,-0.371
301.0,-9.919,-0.241,0.33,-1.006,-0.191,-0.371
305.0,-9.648,-0.071,0.354,-1.006,-0.191,-0.371
309.0,-9.648,-0.071,0.354,-1.059,-0.202,-0.371
313.0,-9.648,-0.071,0.354,-1.059,-0.202,-0.371
317.0,-9.065,-0.052,0.745,-1.062,-0.182,-0.344
321.0,-9.065,-0.052,0.745,-1.062,-0.182,-0.344
325.0,-8.78,0.008,1.222,-1.062,-0.168,-0.297
329.0,-8.78,0.008,1.222,-1.021,-0.168,-0.297
333.0,-8.78,0.008,1.222,-1.021,-0.168,-0.297
337.0,-8.725,-0.051,1.215,-0.972,-0.182,-0.251
341.0,-8.725,-0.051,1.215,-0.972,-0.182,-0.251
345.0,-8.706,-0.02,1.118,-0.972,-0.182,-0.202
349.0,-8.706,-0.02,1.118,-0.914,-0.187,-0.202
353.0,-8.706,-0.02,1.118,-0.914,-0.187,-0.202
357.0,-8.792,0.058,1.089,-0.864,-0.188,-0.156
361.0,-8.792,0.058,1.089,-0.864,-0.188,-0.156
365.0,-8.868,0.235,1.01,-0.864,-0.203,-0.116
369.0,-8.868,0.235,1.01,-0.853,-0.203,-0.116
373.0,-8.868,0.235,1.01,-0.853,-0.203,-0.116
377.0,-9.005,0.449,0.916,-0.882,-0.217,-0.076
380.0,-9.005,0.449,0.916,-0.882,-0.217,-0.076
384.0,-9.162,0.517,1.032,-0.882,-0.217,-0.036
388.0,-9.162,0.517,1.032,-0.949,-0.227,-0.036
392.0,-9.162,0.517,1.032,-0.949,-0.227,-0.036
396.0,-9.163,0.275,1.202,-1.016,-0.244,-0.004
400.0,-9.163,0.275,1.202,-1.016,-0.244,-0.004
404.0,-9.075,0.013,1.417,-1.016,-0.244,-0.004
408.0,-9.075,0.013,1.417,-1.042,-0.265,0.013
412.0,-9.075,0.013,1.417,-1.042,-0.265,0.013
415.0,-9.117,-0.236,1.683,-1.02,-0.289,0.013
419.0,-9.117,-0.236,1.683,-1.02,-0.289,0.013
423.0,-9.117,-0.236,1.916,-1.02,-0.289,0.013
427.0,-9.194,-0.544,1.916,-0.943,-0.322,0.003
431.0,-9.194,-0.544,1.916,-0.943,-0.322,0.003
435.0,-9.035,-0.823,2.01,-0.786,-0.362,0.0
439.0,-9.035,-0.823,2.01,-0.786,-0.362,0.0
443.0,-9.035,-0.823,2.01,-0.786,-0.362,0.0
447.0,-8.773,-0.854,1.665,-0.546,-0.409,0.011
451.0,-8.773,-0.854,1.665,-0.546,-0.409,0.011
455.0,-8.779,-0.519,1.086,-0.307,-0.432,0.026
458.0,-8.779,-0.519,1.086,-0.307,-0.432,0.026
462.0,-8.779,-0.519,1.086,-0.307,-0.432,0.026
466.0,-8.801,-0.324,0.83,-0.16,-0.421,0.041
470.0,-8.801,-0.324,0.83,-0.16,-0.421,0.041
474.0,-8.573,-0.124,0.738,-0.107,-0.413,0.049
478.0,-8.573,-0.124,0.738,-0.107,-0.413,0.049
482.0,-8.573,-0.124,0.738,-0.107,-0.413,0.049
486.0,-8.274,0.166,0.879,-0.139,-0.413,0.037
490.0,-8.274,0.166,0.879,-0.139,-0.413,0.037
493.0,-8.044,0.447,1.092,-0.257,-0.427,0.009
497.0,-8.044,0.447,1.092,-0.257,-0.427,0.009
501.0,-8.044,0.447,1.092,-0.257,-0.427,0.009
505.0,-7.997,0.498,1.254,-0.431,-0.449,-0.032
509.0,-7.997,0.498,1.254,-0.431,-0.449,-0.032
513.0,-8.012,0.515,1.369,-0.431,-0.449,-0.032
517.0,-8.012,0.515,1.369,-0.602,-0.488,-0.083
520.0,-8.012,0.515,1.369,-0.602,-0.488,-0.083
524.0,-7.848,0.394,1.329,-0.759,-0.533,-0.128
528.0,-7.848,0.394,1.329,-0.759,-0.533,-0.128
532.0,-7.481,0.069,1.191,-0.759,-0.533,-0.128
536.0,-7.481,0.069,1.191,-0.882,-0.566,-0.148
540.0,-7.481,0.069,1.191,-0.882,-0.566,-0.148
544.0,-7.052,-0.192,1.036,-0.945,-0.575,-0.141
548.0,-7.052,-0.192,1.036,-0.945,-0.575,-0.141
552.0,-7.052,-0.056,1.0,-0.945,-0.575,-0.141
556.0,-6.804,-0.056,1.0,-0.982,-0.555,-0.132
560.0,-6.804,-0.056,1.0,-0.982,-0.555,-0.132
564.0,-7.082,-0.272,1.167,-1.057,-0.508,-0.126
568.0,-7.082,-0.272,1.167,-1.057,-0.508,-0.126
572.0,-7.156,-0.329,1.295,-1.057,-0.508,-0.126
576.0,-7.156,-0.329,1.295,-1.115,-0.498,-0.126
580.0,-7.156,-0.329,1.295,-1.115,-0.498,-0.126
584.0,-7.247,-0.452,1.295,-1.167,-0.502,-0.138
588.0,-7.247,-0.452,1.295,-1.167,-0.502,-0.138
592.0,-7.335,-0.307,1.236,-1.167,-0.502,-0.166
596.0,-7.335,-0.307,1.236,-1.197,-0.514,-0.166
600.0,-7.335,-0.307,1.236,-1.197,-0.514,-0.166
604.0,-7.423,-0.042,1.238,-1.238,-0.523,-0.208
608.0,-7.423,-0.042,1.238,-1.238,-0.523,-0.208
612.0,-7.525,0.163,1.262,-1.293,-0.524,-0.241
616.0,-7.525,0.163,1.262,-1.293,-0.524,-0.241
620.0,-7.525,0.163,1.262,-1.293,-0.524,-0.241
624.0,-7.534,0.325,1.434,-1.343,-0.519,-0.262
627.0,-7.534,0.325,1.434,-1.343,-0.519,-0.262
631.0,-7.347,0.425,1.698,-1.343,-0.513,-0.273
635.0,-7.347,0.425,1.698,-1.382,-0.513,-0.273
639.0,-7.347,0.425,1.698,-1.382,-0.513,-0.273
643.0,-7.079,0.357,1.944,-1.409,-0.503,-0.288
647.0,-7.079,0.357,1.944,-1.409,-0.503,-0.288
651.0,-6.991,0.126,2.419,-1.409,-0.503,-0.288
655.0,-6.991,0.126,2.419,-1.418,-0.475,-0.308
659.0,-6.991,0.126,2.419,-1.418,-0.475,-0.308
663.0,-7.05,-0.124,3.065,-1.398,-0.445,-0.342
667.0,-7.05,-0.124,3.065,-1.398,-0.445,-0.342
671.0,-7.186,-0.306,3.714,-1.398,-0.445,-0.342
675.0,-7.186,-0.306,3.714,-1.351,-0.442,-0.396
679.0,-7.186,-0.306,3.714,-1.351,-0.442,-0.396
683.0,-7.405,-0.437,4.293,-1.286,-0.475,-0.464
687.0,-7.405,-0.437,4.293,-1.286,-0.475,-0.464
691.0,-7.72,-0.607,4.718,-1.286,-0.475,-0.541
695.0,-7.72,-0.607,4.718,-1.216,-0.537,-0.541
699.0,-7.72,-0.607,4.718,-1.216,-0.537,-0.541
703.0,-8.007,-0.619,4.869,-1.149,-0.606,-0.62
706.0,-8.007,-0.619,4.869,-1.149,-0.606,-0.62
710.0,-8.296,-0.586,4.925,-1.089,-0.647,-0.681
714.0,-8.296,-0.586,4.925,-1.089,-0.647,-0.681
718.0,-8.296,-0.586,4.925,-1.089,-0.647,-0.681
722.0,-8.707,-0.625,5.085,-1.026,-0.655,-0.719
726.0,-8.707,-0.625,5.085,-1.026,-0.655,-0.719
730.0,-9.127,-0.814,5.396,-0.961,-0.653,-0.736
734.0,-9.127,-0.814,5.396,-0.961,-0.653,-0.736
738.0,-9.127,-0.814,5.396,-0.961,-0.653,-0.736
742.0,-9.633,-1.035,5.743,-0.901,-0.652,-0.745
746.0,-9.633,-1.035,5.743,-0.901,-0.652,-0.745
750.0,-10.172,-1.137,6.062,-0.862,-0.666,-0.755
754.0,-10.172,-1.137,6.062,-0.862,-0.666,-0.755
759.0,-10.172,-1.137,6.062,-0.862,-0.666,-0.755
763.0,-10.557,-1.21,6.368,-0.853,-0.684,-0.75
767.0,-10.557,-1.21,6.368,-0.853,-0.684,-0.75
771.0,-11.131,-1.376,6.679,-0.864,-0.689,-0.725
775.0,-11.131,-1.376,6.679,-0.864,-0.689,-0.725
779.0,-11.518,-1.565,6.998,-0.864,-0.689,-0.725
783.0,-11.518,-1.565,6.998,-0.878,-0.698,-0.686
787.0,-11.518,-1.565,6.998,-0.878,-0.698,-0.686
791.0,-11.839,-1.967,7.217,-0.913,-0.713,-0.687
795.0,-11.839,-1.967,7.217,-0.913,-0.713,-0.687
799.0,-11.46,-2.319,7.172,-0.927,-0.738,-0.693
803.0,-11.46,-2.319,7.172,-0.927,-0.738,-0.693
808.0,-11.46,-2.319,7.172,-0.927,-0.738,-0.693
812.0,-11.2,-2.591,7.091,-0.899,-0.744,-0.681
816.0,-11.2,-2.591,7.091,-0.899,-0.744,-0.681
820.0,-11.364,-2.841,7.055,-0.837,-0.717,-0.712
824.0,-11.364,-2.841,7.055,-0.837,-0.717,-0.712
828.0,-11.364,-2.841,7.055,-0.837,-0.717,-0.712
832.0,-11.658,-3.078,6.94,-0.769,-0.672,-0.764
836.0,-11.658,-3.078,6.94,-0.769,-0.672,-0.764
840.0,-12.089,-3.4,6.626,-0.708,-0.627,-0.826
844.0,-12.089,-3.4,6.626,-0.708,-0.627,-0.826
848.0,-12.497,-3.774,6.311,-0.708,-0.627,-0.886
852.0,-12.497,-3.774,6.311,-0.629,-0.591,-0.886
856.0,-12.497,-3.774,6.311,-0.629,-0.591,-0.886
861.0,-12.915,-3.909,5.934,-0.531,-0.559,-0.942
865.0,-12.915,-3.909,5.934,-0.531,-0.559,-0.942
869.0,-13.4,-4.203,5.513,-0.459,-0.508,-0.99
873.0,-13.4,-4.203,5.513,-0.459,-0.508,-0.99
877.0,-13.4,-4.203,5.513,-0.459,-0.508,-0.99
881.0,-13.744,-4.762,5.146,-0.409,-0.427,-1.022
885.0,-13.744,-4.762,5.146,-0.409,-0.427,-1.022
889.0,-13.851,-5.344,4.774,-0.352,-0.335,-1.043
893.0,-13.851,-5.344,4.774,-0.352,-0.335,-1.043
897.0,-13.851,-5.938,4.387,-0.352,-0.335,-1.043
901.0,-13.835,-5.938,4.387,-0.285,-0.243,-1.055
905.0,-13.835,-5.938,4.387,-0.285,-0.243,-1.055
910.0,-13.616,-6.565,3.778,-0.222,-0.158,-1.061
914.0,-13.616,-6.565,3.778,-0.222,-0.158,-1.061
918.0,-12.968,-7.185,3.165,-0.222,-0.071,-1.073
922.0,-12.968,-7.185,3.165,-0.149,-0.071,-1.073
926.0,-12.968,-7.185,3.165,-0.149,-0.071,-1.073
930.0,-12.029,-7.949,2.958,-0.027,0.023,-1.107
934.0,-12.029,-7.949,2.958,-0.027,0.023,-1.107
938.0,-10.841,-8.792,3.007,0.196,0.12,-1.187
942.0,-10.841,-8.792,3.007,0.196,0.12,-1.187
946.0,-10.841,-8.792,3.007,0.196,0.12,-1.187
950.0,-9.602,-9.437,2.872,0.555,0.212,-1.324
953.0,-9.602,-9.437,2.872,0.555,0.212,-1.324
957.0,-8.427,-9.703,2.316,1.041,0.317,-1.5
961.0,-8.427,-9.703,2.316,1.041,0.317,-1.5
965.0,-8.427,-9.703,2.316,1.041,0.317,-1.5
969.0,-7.604,-9.745,1.521,1.609,0.47,-1.668
973.0,-7.604,-9.745,1.521,1.609,0.47,-1.668
976.0,-7.604,-9.754,0.698,1.609,0.47,-1.668
980.0,-7.305,-9.754,0.698,2.191,0.698,-1.786
984.0,-7.305,-9.754,0.698,2.191,0.698,-1.786
988.0,-7.491,-9.88,0.139,2.726,0.982,-1.814
992.0,-7.491,-9.88,0.139,2.726,0.982,-1.814
995.0,-7.491,-9.88,0.139,2.726,0.982,-1.814
999.0,-8.09,-10.15,0.082,3.171,1.263,-1.761
1003.0,-8.09,-10.15,0.082,3.171,1.263,-1.761
1007.0,-8.865,-10.39,0.402,3.484,1.478,-1.66
1011.0,-8.865,-10.39,0.402,3.484,1.478,-1.66
1015.0,-8.865,-10.39,0.402,3.484,1.478,-1.66
1019.0,-9.356,-10.63,0.857,3.661,1.585,-1.549
1023.0,-9.356,-10.63,0.857,3.661,1.585,-1.549
1027.0,-9.34,-10.6,1.316,3.738,1.582,-1.473
1031.0,-9.34,-10.6,1.316,3.738,1.582,-1.473
1035.0,-9.34,-10.6,1.316,3.738,1.582,-1.473
1039.0,-9.038,-10.147,1.583,3.727,1.501,-1.455
1043.0,-9.038,-10.147,1.583,3.727,1.501,-1.455
1047.0,-8.662,-9.503,1.558,3.624,1.386,-1.473
1051.0,-8.662,-9.503,1.558,3.624,1.386,-1.473
1055.0,-8.662,-9.503,1.558,3.624,1.386,-1.473
1059.0,-8.261,-8.709,1.318,3.434,1.27,-1.491
1063.0,-8.261,-8.709,1.318,3.434,1.27,-1.491
1067.0,-7.8,-7.943,1.109,3.182,1.154,-1.493
1071.0,-7.8,-7.943,1.109,3.182,1.154,-1.493
1074.0,-7.8,-7.943,1.109,3.182,1.154,-1.493
1078.0,-7.244,-7.356,1.281,2.901,1.042,-1.486
1082.0,-7.244,-7.356,1.281,2.901,1.042,-1.486
1086.0,-6.772,-7.057,1.933,2.625,0.933,-1.492
1090.0,-6.772,-7.057,1.933,2.625,0.933,-1.492
1094.0,-6.772,-7.057,1.933,2.625,0.933,-1.492
1098.0,-6.45,-6.89,2.816,2.38,0.808,-1.53
1102.0,-6.45,-6.89,2.816,2.38,0.808,-1.53
1106.0,-6.285,-6.721,3.773,2.184,0.664,-1.584
1110.0,-6.285,-6.721,3.773,2.184,0.664,-1.584
1114.0,-6.285,-6.721,3.773,2.184,0.664,-1.584
1117.0,-6.208,-6.562,4.717,2.046,0.503,-1.624
1121.0,-6.208,-6.562,4.717,2.046,0.503,-1.624
1125.0,-6.24,-6.53,5.691,1.972,0.333,-1.63
1129.0,-6.24,-6.53,5.691,1.972,0.333,-1.63
1133.0,-6.24,-6.53,5.691,1.972,0.333,-1.63
1137.0,-6.394,-6.479,6.645,1.954,0.154,-1.617
1141.0,-6.394,-6.479,6.645,1.954,0.154,-1.617
1145.0,-6.49,-6.406,7.458,1.954,-0.051,-1.595
1149.0,-6.49,-6.406,7.458,1.984,-0.051,-1.595
1153.0,-6.49,-6.406,7.458,1.984,-0.051,-1.595
1157.0,-6.439,-6.305,8.217,2.055,-0.28,-1.568
1161.0,-6.439,-6.305,8.217,2.055,-0.28,-1.568
1165.0,-6.292,-6.086,8.742,2.143,-0.519,-1.526
1169.0,-6.292,-6.086,8.742,2.143,-0.519,-1.526
1173.0,-6.292,-6.086,8.742,2.143,-0.519,-1.526
1177.0,-6.168,-5.971,9.178,2.218,-0.75,-1.468
1181.0,-6.168,-5.971,9.178,2.218,-0.75,-1.468
1185.0,-6.355,-5.786,9.617,2.279,-0.97,-1.414
1189.0,-6.355,-5.786,9.617,2.279,-0.97,-1.414
1193.0,-6.355,-5.786,9.617,2.279,-0.97,-1.414
1197.0,-6.75,-5.602,9.689,2.33,-1.194,-1.385
1201.0,-6.75,-5.602,9.689,2.33,-1.194,-1.385
1205.0,-7.057,-5.497,9.671,2.383,-1.408,-1.399
1209.0,-7.057,-5.497,9.671,2.383,-1.408,-1.399
1213.0,-7.057,-5.497,9.671,2.383,-1.408,-1.399
1217.0,-7.074,-5.288,9.79,2.455,-1.618,-1.464
1221.0,-7.074,-5.288,9.79,2.455,-1.618,-1.464
1225.0,-6.9,-4.917,10.254,2.551,-1.837,-1.568
1229.0,-6.9,-4.917,10.254,2.551,-1.837,-1.568
1233.0,-6.9,-4.917,10.872,2.551,-1.837,-1.568
1237.0,-6.824,-4.474,10.872,2.668,-2.074,-1.673
1241.0,-6.824,-4.474,10.872,2.668,-2.074,-1.673
1245.0,-6.987,-4.196,11.637,2.8,-2.329,-1.72
1249.0,-6.987,-4.196,11.637,2.8,-2.329,-1.72
1253.0,-7.411,-4.205,12.441,2.8,-2.329,-1.673
1257.0,-7.411,-4.205,12.441,2.951,-2.62,-1.673
1261.0,-7.411,-4.205,12.441,2.951,-2.62,-1.673
1265.0,-7.803,-4.576,12.827,3.116,-2.958,-1.541
1270.0,-7.803,-4.576,12.827,3.116,-2.958,-1.541
1274.0,-7.973,-5.337,12.993,3.31,-3.304,-1.372
1278.0,-7.973,-5.337,12.993,3.31,-3.304,-1.372
1282.0,-7.973,-5.337,12.993,3.31,-3.304,-1.372
1286.0,-8.052,-6.306,13.09,3.567,-3.62,-1.226
1290.0,-8.052,-6.306,13.09,3.567,-3.62,-1.226
1294.0,-8.306,-6.836,12.969,3.914,-3.886,-1.141
1298.0,-8.306,-6.836,12.969,3.914,-3.886,-1.141
1302.0,-8.576,-6.47,12.828,3.914,-3.886,-1.141
1306.0,-8.576,-6.47,12.828,4.329,-4.123,-1.096
1310.0,-8.576,-6.47,12.828,4.329,-4.123,-1.096
1314.0,-8.639,-5.702,12.808,4.765,-4.354,-1.048
1318.0,-8.639,-5.702,12.808,4.765,-4.354,-1.048
1323.0,-8.477,-4.611,12.715,4.986,-4.56,-0.967
1327.0,-8.477,-4.611,12.715,4.986,-4.56,-0.967
1331.0,-8.477,-4.611,12.715,4.986,-4.56,-0.967
1335.0,-8.011,-3.121,12.574,4.995,-4.721,-0.817
1339.0,-8.011,-3.121,12.574,4.995,-4.721,-0.817
1343.0,-7.322,-1.579,12.267,4.995,-4.828,-0.589
1347.0,-7.322,-1.579,12.267,4.995,-4.828,-0.589
1351.0,-7.322,-1.579,12.267,4.995,-4.828,-0.589
1355.0,-6.578,-0.452,12.002,4.995,-4.883,-0.325
1359.0,-6.578,-0.452,12.002,4.995,-4.883,-0.325
1363.0,-6.039,0.439,11.9,4.995,-4.897,-0.094
1367.0,-6.039,0.439,11.9,4.995,-4.897,-0.094
1371.0,-5.685,0.982,11.959,4.995,-4.897,-0.094
1375.0,-5.685,0.982,11.959,4.995,-4.887,0.078
1379.0,-5.685,0.982,11.959,4.995,-4.887,0.078
1383.0,-5.279,1.166,12.049,4.979,-4.851,0.185
1387.0,-5.279,1.166,12.049,4.979,-4.851,0.185
1391.0,-5.279,1.276,12.346,4.979,-4.851,0.185
1395.0,-4.617,1.276,12.346,4.713,-4.767,0.236
1399.0,-4.617,1.276,12.346,4.713,-4.767,0.236
1403.0,-3.888,1.126,12.681,4.246,-4.638,0.25
1407.0,-3.888,1.126,12.681,4.246,-4.638,0.25
1410.0,-3.888,1.126,12.878,4.246,-4.638,0.25
1414.0,-3.52,0.655,12.878,3.807,-4.49,0.249
1418.0,-3.52,0.655,12.878,3.807,-4.49,0.249
1422.0,-3.414,-0.144,12.798,3.44,-4.349,0.253
1426.0,-3.414,-0.144,12.798,3.44,-4.349,0.253
1430.0,-3.414,-0.144,12.278,3.44,-4.349,0.253
1434.0,-2.983,-0.984,12.278,3.165,-4.211,0.259
1438.0,-2.983,-0.984,12.278,3.165,-4.211,0.259
1442.0,-2.099,-1.767,11.627,3.001,-4.07,0.253
1446.0,-2.099,-1.767,11.627,3.001,-4.07,0.253
1450.0,-2.099,-2.203,10.887,3.001,-4.07,0.253
1454.0,-0.936,-2.203,10.887,2.958,-3.922,0.227
1458.0,-0.936,-2.203,10.887,2.958,-3.922,0.227
1462.0,0.124,-2.572,10.152,3.028,-3.74,0.206
1466.0,0.124,-2.572,10.152,3.028,-3.74,0.206
1470.0,0.686,-2.745,9.488,3.028,-3.74,0.206
1474.0,0.686,-2.745,9.488,3.177,-3.518,0.224
1478.0,0.686,-2.745,9.488,3.177,-3.518,0.224
1481.0,0.781,-3.108,9.047,3.362,-3.267,0.309
1485.0,0.781,-3.108,9.047,3.362,-3.267,0.309
1489.0,0.781,-3.108,9.047,3.362,-3.267,0.309
1493.0,0.945,-3.712,8.697,3.553,-3.013,0.419
1497.0,0.945,-3.712,8.697,3.553,-3.013,0.419
1500.0,1.236,-4.112,8.529,3.722,-2.771,0.492
1504.0,1.236,-4.112,8.529,3.722,-2.771,0.492
1508.0,1.236,-4.112,8.529,3.722,-2.771,0.492
1512.0,1.296,-4.089,8.147,3.836,-2.575,0.502
1516.0,1.296,-4.089,8.147,3.836,-2.575,0.502
1520.0,1.297,-3.779,7.223,3.836,-2.575,0.456
1523.0,1.297,-3.779,7.223,3.872,-2.421,0.456
1527.0,1.297,-3.779,7.223,3.872,-2.421,0.456
1531.0,1.479,-3.19,5.976,3.831,-2.276,0.358
1535.0,1.479,-3.19,5.976,3.831,-2.276,0.358
1539.0,1.479,-3.19,4.746,3.831,-2.276,0.358
1543.0,1.789,-2.358,4.746,3.727,-2.12,0.239
1546.0,1.789,-2.358,4.746,3.727,-2.12,0.239
1550.0,1.987,-1.602,3.614,3.568,-1.943,0.138
1554.0,1.987,-1.602,3.614,3.568,-1.943,0.138
1558.0,1.987,-1.602,3.614,3.568,-1.943,0.138
1562.0,2.011,-0.868,2.637,3.355,-1.743,0.077
1565.0,2.011,-0.868,2.637,3.355,-1.743,0.077
1569.0,1.871,-0.14,1.849,3.355,-1.524,0.054
1573.0,1.871,-0.14,1.849,3.104,-1.524,0.054
1577.0,1.871,-0.14,1.849,3.104,-1.524,0.054
1581.0,1.579,0.517,1.341,2.825,-1.293,0.073
1584.0,1.579,0.517,1.341,2.825,-1.293,0.073
1588.0,1.579,0.517,1.033,2.825,-1.293,0.073
1592.0,1.204,1.041,1.033,2.534,-1.065,0.129
1596.0,1.204,1.041,1.033,2.534,-1.065,0.129
1599.0,0.769,1.461,1.066,2.252,-0.854,0.212
1603.0,0.769,1.461,1.066,2.252,-0.854,0.212
1607.0,0.769,1.461,1.066,2.252,-0.854,0.212
1611.0,0.407,1.625,1.228,1.994,-0.679,0.298
1614.0,0.407,1.625,1.228,1.994,-0.679,0.298
1618.0,0.264,1.844,1.341,1.994,-0.679,0.298
1622.0,0.264,1.844,1.341,1.76,-0.532,0.363
1625.0,0.264,1.844,1.341,1.76,-0.532,0.363
1629.0,0.354,2.145,1.44,1.555,-0.393,0.406
1633.0,0.354,2.145,1.44,1.555,-0.393,0.406
1637.0,0.354,2.145,1.44,1.555,-0.393,0.406
1640.0,0.538,2.682,1.586,1.375,-0.251,0.425
1644.0,0.538,2.682,1.586,1.375,-0.251,0.425
1648.0,0.708,3.442,1.707,1.375,-0.251,0.435
1652.0,0.708,3.442,1.707,1.215,-0.117,0.435
1655.0,0.708,3.442,1.707,1.215,-0.117,0.435
1659.0,0.863,4.353,1.8,1.062,0.011,0.46
1663.0,0.863,4.353,1.8,1.062,0.011,0.46
1666.0,0.863,4.353,1.8,1.062,0.011,0.46
1670.0,0.992,5.432,1.923,0.913,0.135,0.505
1674.0,0.992,5.432,1.923,0.913,0.135,0.505
1677.0,1.025,6.667,2.165,0.913,0.135,0.505
1681.0,1.025,6.667,2.165,0.776,0.247,0.591
1685.0,1.025,6.667,2.165,0.776,0.247,0.591
1688.0,1.158,7.668,2.43,0.652,0.339,0.742
1692.0,1.158,7.668,2.43,0.652,0.339,0.742
1696.0,1.158,7.668,2.43,0.652,0.339,0.742
1699.0,1.489,8.407,2.805,0.556,0.422,0.928
1703.0,1.489,8.407,2.805,0.556,0.422,0.928
1706.0,1.489,8.407,2.805,0.556,0.422,0.928
1710.0,1.762,8.942,3.266,0.512,0.507,1.097
1714.0,1.762,8.942,3.266,0.512,0.507,1.097
1717.0,1.838,9.4,3.77,0.521,0.598,1.227
1721.0,1.838,9.4,3.77,0.521,0.598,1.227
1725.0,1.838,9.4,3.77,0.521,0.598,1.227
1728.0,1.525,9.963,4.415,0.558,0.698,1.342
1732.0,1.525,9.963,4.415,0.558,0.698,1.342
1736.0,1.525,9.963,4.415,0.558,0.698,1.342
1739.0,0.896,10.765,5.05,0.6,0.8,1.473
1743.0,0.896,10.765,5.05,0.6,0.8,1.473
1747.0,0.246,11.748,5.598,0.6,0.893,1.623
1750.0,0.246,11.748,5.598,0.629,0.893,1.623
1754.0,0.246,11.748,5.598,0.629,0.893,1.623
1758.0,-0.054,12.797,6.293,0.63,0.968,1.787
1762.0,-0.054,12.797,6.293,0.63,0.968,1.787
1766.0,-0.054,12.797,6.293,0.63,0.968,1.787
1769.0,-0.139,13.774,6.996,0.605,1.002,1.982
1773.0,-0.139,13.774,6.996,0.605,1.002,1.982
1777.0,-0.212,14.308,7.337,0.549,0.998,2.225
1781.0,-0.212,14.308,7.337,0.549,0.998,2.225
1785.0,-0.212,14.308,7.337,0.549,0.998,2.225
1789.0,-0.24,14.258,7.368,0.463,0.983,2.496
1792.0,-0.24,14.258,7.368,0.463,0.983,2.496
1796.0,-0.176,13.897,7.387,0.463,0.963,2.751
1800.0,-0.176,13.897,7.387,0.354,0.963,2.751
1804.0,-0.176,13.897,7.387,0.354,0.963,2.751
1808.0,-0.197,13.704,7.43,0.236,0.928,2.981
1811.0,-0.197,13.704,7.43,0.236,0.928,2.981
1815.0,-0.197,13.704,7.312,0.236,0.928,2.981
1819.0,-0.352,13.534,7.312,0.109,0.882,3.23
1823.0,-0.352,13.534,7.312,0.109,0.882,3.23
1827.0,-0.52,13.141,7.213,-0.029,0.837,3.508
1831.0,-0.52,13.141,7.213,-0.029,0.837,3.508
1835.0,-0.52,13.141,7.213,-0.029,0.837,3.508
1838.0,-0.567,12.468,7.19,-0.182,0.788,3.786
1842.0,-0.567,12.468,7.19,-0.182,0.788,3.786
1846.0,-0.604,11.617,7.114,-0.341,0.726,4.055
1850.0,-0.604,11.617,7.114,-0.341,0.726,4.055
1854.0,-0.604,11.617,7.114,-0.341,0.726,4.055
1858.0,-0.548,10.573,6.882,-0.499,0.649,4.323
1862.0,-0.548,10.573,6.882,-0.499,0.649,4.323
1866.0,-0.479,9.568,6.687,-0.648,0.578,4.577
1870.0,-0.479,9.568,6.687,-0.648,0.578,4.577
1873.0,-0.479,9.568,6.687,-0.648,0.578,4.577
1877.0,-0.538,8.538,6.26,-0.775,0.518,4.819
1881.0,-0.538,8.538,6.26,-0.775,0.518,4.819
1885.0,-0.546,7.432,5.646,-0.775,0.518,4.991
1889.0,-0.546,7.432,5.646,-0.887,0.484,4.991
1893.0,-0.546,7.432,5.646,-0.887,0.484,4.991
1896.0,-0.689,6.368,5.106,-0.977,0.484,5.013
1900.0,-0.689,6.368,5.106,-0.977,0.484,5.013
1904.0,-0.689,6.368,4.402,-0.977,0.484,5.013
1908.0,-0.958,5.298,4.402,-1.062,0.498,5.013
1912.0,-0.958,5.298,4.402,-1.062,0.498,5.013
1915.0,-1.241,4.183,3.689,-1.166,0.526,5.013
1919.0,-1.241,4.183,3.689,-1.166,0.526,5.013
1923.0,-1.241,4.183,3.689,-1.166,0.526,5.013
1927.0,-1.491,3.121,3.153,-1.297,0.566,5.013
1931.0,-1.491,3.121,3.153,-1.297,0.566,5.013
1935.0,-1.821,2.042,2.603,-1.454,0.611,5.013
1938.0,-1.821,2.042,2.603,-1.454,0.611,5.013
1942.0,-1.821,2.042,2.603,-1.454,0.611,5.013
1946.0,-2.313,0.931,2.174,-1.643,0.655,5.013
1950.0,-2.313,0.931,2.174,-1.643,0.655,5.013
1954.0,-2.313,-0.169,1.854,-1.643,0.655,5.013
1958.0,-2.887,-0.169,1.854,-1.873,0.681,5.013
1961.0,-2.887,-0.169,1.854,-1.873,0.681,5.013
1965.0,-3.328,-1.314,1.469,-2.15,0.689,5.013
1969.0,-3.328,-1.314,1.469,-2.15,0.689,5.013
1973.0,-3.328,-1.314,1.497,-2.15,0.689,5.013
1977.0,-3.642,-2.599,1.497,-2.463,0.701,5.013
1981.0,-3.642,-2.599,1.497,-2.463,0.701,5.013
1985.0,-3.978,-3.963,1.623,-2.794,0.706,5.013
1989.0,-3.978,-3.963,1.623,-2.794,0.706,5.013
1993.0,-3.978,-3.963,1.623,-2.794,0.706,5.013
1997.0,-4.57,-5.078,1.228,-3.115,0.698,5.013
2000.0,-4.57,-5.078,1.228,-3.115,0.698,5.013
2004.0,-5.073,-6.302,0.663,-3.406,0.654,5.013
2008.0,-5.073,-6.302,0.663,-3.406,0.654,5.013
2012.0,-5.073,-6.302,0.663,-3.406,0.654,5.013
2016.0,-5.112,-7.893,0.246,-3.645,0.534,4.958
2020.0,-5.112,-7.893,0.246,-3.645,0.534,4.958
2024.0,-4.577,-9.807,-0.028,-3.782,0.32,4.744
2028.0,-4.577,-9.807,-0.028,-3.782,0.32,4.744
2032.0,-4.577,-9.807,-0.028,-3.782,0.32,4.744
2036.0,-3.826,-11.48,-0.071,-3.752,0.037,4.454
2040.0,-3.826,-11.48,-0.071,-3.752,0.037,4.454
2044.0,-3.063,-12.565,-0.413,-3.559,-0.271,4.127
2048.0,-3.063,-12.565,-0.413,-3.559,-0.271,4.127
2052.0,-1.991,-13.277,-0.419,-3.559,-0.271,4.127
2057.0,-1.991,-13.277,-0.419,-3.272,-0.55,3.812
2061.0,-1.991,-13.277,-0.419,-3.272,-0.55,3.812
2065.0,-0.427,-14.167,-0.147,-2.948,-0.803,3.511
2069.0,-0.427,-14.167,-0.147,-2.948,-0.803,3.511
2073.0,1.52,-14.83,0.053,-2.567,-1.012,3.162
2077.0,1.52,-14.83,0.053,-2.567,-1.012,3.162
2081.0,1.52,-14.83,0.053,-2.567,-1.012,3.162
2085.0,3.623,-14.955,0.269,-2.086,-1.145,2.77
2089.0,3.623,-14.955,0.269,-2.086,-1.145,2.77
2093.0,5.672,-14.551,0.548,-1.539,-1.182,2.399
2097.0,5.672,-14.551,0.548,-1.539,-1.182,2.399
2101.0,5.672,-14.551,0.548,-1.539,-1.182,2.399
2105.0,7.412,-13.883,0.748,-0.977,-1.104,2.099
2109.0,7.412,-13.883,0.748,-0.977,-1.104,2.099
2113.0,8.816,-13.164,0.86,-0.436,-0.937,1.853
2117.0,8.816,-13.164,0.86,-0.436,-0.937,1.853
2121.0,8.816,-13.164,1.053,-0.436,-0.937,1.853
2125.0,9.873,-12.434,1.053,0.059,-0.721,1.643
2129.0,9.873,-12.434,1.053,0.059,-0.721,1.643
2133.0,10.559,-11.759,1.351,0.485,-0.487,1.485
2137.0,10.559,-11.759,1.351,0.485,-0.487,1.485
2141.0,10.559,-11.759,1.707,0.485,-0.487,1.485
2145.0,10.745,-11.104,1.707,0.831,-0.272,1.384
2149.0,10.745,-11.104,1.707,0.831,-0.272,1.384
2153.0,10.571,-10.453,2.052,1.078,-0.105,1.327
2157.0,10.571,-10.453,2.052,1.078,-0.105,1.327
2161.0,10.571,-9.799,2.527,1.078,-0.105,1.327
2165.0,10.053,-9.799,2.527,1.224,0.025,1.298
2169.0,10.053,-9.799,2.527,1.224,0.025,1.298
2172.0,9.267,-9.245,2.927,1.262,0.117,1.296
2176.0,9.267,-9.245,2.927,1.262,0.117,1.296
2180.0,9.267,-9.245,2.927,1.262,0.117,1.296
2184.0,8.258,-8.763,3.09,1.207,0.181,1.305
2187.0,8.258,-8.763,3.09,1.207,0.181,1.305
2191.0,7.151,-8.175,2.809,1.207,0.242,1.302
2195.0,7.151,-8.175,2.809,1.091,0.242,1.302
2199.0,7.151,-8.175,2.809,1.091,0.242,1.302
2202.0,6.335,-7.523,2.577,0.929,0.328,1.311
2206.0,6.335,-7.523,2.577,0.929,0.328,1.311
2210.0,6.335,-7.523,2.577,0.929,0.328,1.311
2214.0,5.758,-6.968,2.492,0.725,0.448,1.38
2217.0,5.758,-6.968,2.492,0.725,0.448,1.38
2221.0,5.03,-6.695,2.38,0.513,0.613,1.495
2225.0,5.03,-6.695,2.38,0.513,0.613,1.495
2228.0,5.03,-6.695,2.38,0.513,0.613,1.495
2232.0,3.983,-6.517,2.321,0.333,0.815,1.606
2236.0,3.983,-6.517,2.321,0.333,0.815,1.606
2240.0,3.983,-6.517,2.474,0.333,0.815,1.606
2243.0,2.816,-6.252,2.474,0.2,1.025,1.695
2247.0,2.816,-6.252,2.474,0.2,1.025,1.695
2251.0,1.809,-6.059,2.753,0.11,1.209,1.795
2255.0,1.809,-6.059,2.753,0.11,1.209,1.795
2258.0,1.809,-6.059,2.753,0.11,1.209,1.795
2262.0,1.063,-6.106,2.957,0.053,1.354,1.931
2266.0,1.063,-6.106,2.957,0.053,1.354,1.931
2269.0,0.438,-6.373,2.943,0.053,1.354,1.931
2273.0,0.438,-6.373,2.943,0.019,1.494,2.089
2277.0,0.438,-6.373,2.943,0.019,1.494,2.089
2281.0,-0.157,-6.772,2.651,0.004,1.679,2.251
2285.0,-0.157,-6.772,2.651,0.004,1.679,2.251
2288.0,-0.157,-6.772,2.651,0.004,1.679,2.251
2292.0,-0.993,-7.171,2.238,0.013,1.928,2.394
2296.0,-0.993,-7.171,2.238,0.013,1.928,2.394
2300.0,-2.013,-7.426,1.644,0.039,2.242,2.499
2304.0,-2.013,-7.426,1.644,0.039,2.242,2.499
2307.0,-2.013,-7.426,1.644,0.039,2.242,2.499
2311.0,-3.232,-7.546,1.443,0.076,2.614,2.577
2315.0,-3.232,-7.546,1.443,0.076,2.614,2.577
2319.0,-4.429,-7.734,1.545,0.076,2.614,2.577
2323.0,-4.429,-7.734,1.545,0.133,2.989,2.664
2327.0,-4.429,-7.734,1.545,0.133,2.989,2.664
2330.0,-5.681,-7.935,2.043,0.221,3.326,2.765
2334.0,-5.681,-7.935,2.043,0.221,3.326,2.765
2338.0,-5.681,-7.935,2.043,0.221,3.326,2.765
2342.0,-6.773,-8.182,2.474,0.334,3.581,2.869
2346.0,-6.773,-8.182,2.474,0.334,3.581,2.869
2349.0,-7.612,-8.422,2.696,0.468,3.757,2.976
2353.0,-7.612,-8.422,2.696,0.468,3.757,2.976
2357.0,-7.612,-8.422,2.696,0.468,3.757,2.976
2361.0,-8.002,-8.798,2.657,0.622,3.905,3.107
2365.0,-8.002,-8.798,2.657,0.622,3.905,3.107
2369.0,-7.938,-9.194,2.521,0.622,3.905,3.265
2372.0,-7.938,-9.194,2.521,0.802,4.084,3.265
2376.0,-7.938,-9.194,2.521,0.802,4.084,3.265
2380.0,-7.734,-9.666,2.942,1.027,4.312,3.412
2384.0,-7.734,-9.666,2.942,1.027,4.312,3.412
2388.0,-7.734,-9.666,3.696,1.027,4.312,3.412
2391.0,-7.686,-10.009,3.696,1.323,4.526,3.483
2395.0,-7.686,-10.009,3.696,1.323,4.526,3.483
2399.0,-8.033,-10.03,4.385,1.692,4.648,3.449
2403.0,-8.033,-10.03,4.385,1.692,4.648,3.449
2407.0,-8.033,-10.03,4.385,1.692,4.648,3.449
2411.0,-8.527,-9.474,3.781,2.093,4.69,3.357
2415.0,-8.527,-9.474,3.781,2.093,4.69,3.357
2419.0,-8.772,-8.925,3.062,2.491,4.741,3.296
2422.0,-8.772,-8.925,3.062,2.491,4.741,3.296
2426.0,-8.772,-8.925,3.062,2.491,4.741,3.296
2430.0,-8.412,-8.575,2.113,2.878,4.842,3.286
2434.0,-8.412,-8.575,2.113,2.878,4.842,3.286
2438.0,-7.576,-8.503,1.162,2.878,4.842,3.316
2442.0,-7.576,-8.503,1.162,3.302,4.985,3.316
2445.0,-7.576,-8.503,1.162,3.302,4.985,3.316
2449.0,-6.864,-8.48,0.685,3.801,5.015,3.344
2453.0,-6.864,-8.48,0.685,3.801,5.015,3.344
2457.0,-6.864,-8.48,0.35,3.801,5.015,3.344
2461.0,-6.687,-8.46,0.35,4.392,5.015,3.343
2464.0,-6.687,-8.46,0.35,4.392,5.015,3.343
2468.0,-7.667,-8.462,0.961,4.912,5.015,3.298
2472.0,-7.667,-8.462,0.961,4.912,5.015,3.298
2476.0,-7.667,-8.462,0.961,4.912,5.015,3.298
2480.0,-10.362,-8.276,3.547,4.995,5.015,3.157
2484.0,-10.362,-8.276,3.547,4.995,5.015,3.157
2488.0,-13.353,-7.33,3.766,4.995,5.015,2.894
2491.0,-13.353,-7.33,3.766,4.995,5.015,2.894
2495.0,-13.353,-7.33,3.766,4.995,5.015,2.894
2499.0,-15.306,-5.779,2.486,4.995,5.015,2.588
2503.0,-15.306,-5.779,2.486,4.995,5.015,2.588
2507.0,-15.17,-3.824,1.569,4.995,4.985,2.297
2511.0,-15.17,-3.824,1.569,4.995,4.985,2.297
2515.0,-15.17,-3.824,1.569,4.995,4.985,2.297
2519.0,-13.182,-2.169,1.365,4.995,4.806,2.03
2523.0,-13.182,-2.169,1.365,4.995,4.806,2.03
2527.0,-11.16,-1.095,1.504,4.995,4.693,1.736
2531.0,-11.16,-1.095,1.504,4.995,4.693,1.736
2534.0,-11.16,-1.095,1.504,4.995,4.693,1.736
2538.0,-10.332,-0.169,1.609,4.995,4.71,1.374
2542.0,-10.332,-0.169,1.609,4.995,4.71,1.374
2546.0,-10.355,0.334,1.704,4.995,4.71,1.374
2550.0,-10.355,0.334,1.704,4.995,4.764,0.947
2554.0,-10.355,0.334,1.704,4.995,4.764,0.947
2558.0,-10.908,0.882,1.962,4.995,4.78,0.462
2561.0,-10.908,0.882,1.962,4.995,4.78,0.462
2565.0,-10.908,0.882,1.962,4.995,4.78,0.462
2569.0,-11.85,1.178,2.365,4.946,4.713,0.003
2573.0,-11.85,1.178,2.365,4.946,4.713,0.003
2577.0,-12.914,1.393,2.646,4.619,4.564,-0.381
2581.0,-12.914,1.393,2.646,4.619,4.564,-0.381
2585.0,-12.914,1.393,2.646,4.619,4.564,-0.381
2588.0,-13.769,1.72,2.834,4.205,4.374,-0.678
2592.0,-13.769,1.72,2.834,4.205,4.374,-0.678
2596.0,-14.111,1.914,3.078,3.808,4.165,-0.893
2600.0,-14.111,1.914,3.078,3.808,4.165,-0.893
2604.0,-14.111,1.914,3.078,3.808,4.165,-0.893
2608.0,-14.073,2.062,3.218,3.425,3.937,-1.045
2612.0,-14.073,2.062,3.218,3.425,3.937,-1.045
2616.0,-13.829,2.252,3.298,3.047,3.717,-1.151
2620.0,-13.829,2.252,3.298,3.047,3.717,-1.151
2624.0,-13.829,2.252,3.298,3.047,3.717,-1.151
2627.0,-13.402,2.344,3.424,2.665,3.519,-1.223
2631.0,-13.402,2.344,3.424,2.665,3.519,-1.223
2635.0,-12.85,2.369,3.562,2.665,3.334,-1.275
2639.0,-12.85,2.369,3.562,2.282,3.334,-1.275
2643.0,-12.85,2.369,3.562,2.282,3.334,-1.275
2647.0,-12.341,2.401,3.618,1.906,3.155,-1.313
2651.0,-12.341,2.401,3.618,1.906,3.155,-1.313
2655.0,-11.969,2.515,3.561,1.906,3.155,-1.333
2659.0,-11.969,2.515,3.561,1.543,2.985,-1.333
2663.0,-11.969,2.515,3.561,1.543,2.985,-1.333
2667.0,-11.746,2.678,3.406,1.202,2.829,-1.332
2670.0,-11.746,2.678,3.406,1.202,2.829,-1.332
2674.0,-11.664,2.838,3.215,1.202,2.829,-1.332
2678.0,-11.664,2.838,3.215,0.886,2.691,-1.302
2682.0,-11.664,2.838,3.215,0.886,2.691,-1.302
2686.0,-11.602,2.932,3.022,0.599,2.566,-1.239
2690.0,-11.602,2.932,3.022,0.599,2.566,-1.239
2694.0,-11.602,2.901,2.853,0.599,2.566,-1.239
2698.0,-11.634,2.901,2.853,0.346,2.45,-1.14
2702.0,-11.634,2.901,2.853,0.346,2.45,-1.14
2706.0,-11.84,2.701,2.708,0.131,2.341,-1.013
2710.0,-11.84,2.701,2.708,0.131,2.341,-1.013
2713.0,-11.84,2.701,2.582,0.131,2.341,-1.013
2717.0,-12.342,2.487,2.582,-0.049,2.232,-0.873
2721.0,-12.342,2.487,2.582,-0.049,2.232,-0.873
2725.0,-13.113,2.182,2.407,-0.196,2.116,-0.718
2729.0,-13.113,2.182,2.407,-0.196,2.116,-0.718
2733.0,-13.113,2.182,2.197,-0.196,2.116,-0.718
2737.0,-14.061,1.769,2.197,-0.317,1.986,-0.555
2741.0,-14.061,1.769,2.197,-0.317,1.986,-0.555
2745.0,-15.067,1.436,1.903,-0.422,1.842,-0.395
2749.0,-15.067,1.436,1.903,-0.422,1.842,-0.395
2753.0,-15.943,1.167,1.65,-0.422,1.842,-0.395
2757.0,-15.943,1.167,1.65,-0.523,1.684,-0.234
2761.0,-15.943,1.167,1.65,-0.523,1.684,-0.234
2765.0,-16.585,0.816,1.339,-0.626,1.511,-0.075
2769.0,-16.585,0.816,1.339,-0.626,1.511,-0.075
2773.0,-17.096,0.172,1.009,-0.626,1.511,0.064
2777.0,-17.096,0.172,1.009,-0.729,1.335,0.064
2781.0,-17.096,0.172,1.009,-0.729,1.335,0.064
2785.0,-17.552,0.031,0.767,-0.811,1.164,0.171
2789.0,-17.552,0.031,0.767,-0.811,1.164,0.171
2793.0,-17.617,0.447,0.532,-0.811,1.164,0.171
2797.0,-17.617,0.447,0.532,-0.865,0.986,0.303
2801.0,-17.617,0.447,0.532,-0.865,0.986,0.303
2804.0,-17.057,0.686,0.443,-0.909,0.803,0.492
2808.0,-17.057,0.686,0.443,-0.909,0.803,0.492
2812.0,-17.057,0.504,0.357,-0.909,0.803,0.492
2816.0,-16.461,0.504,0.357,-0.953,0.627,0.679
2820.0,-16.461,0.504,0.357,-0.953,0.627,0.679
2824.0,-16.147,0.103,0.153,-0.989,0.462,0.805
2828.0,-16.147,0.103,0.153,-0.989,0.462,0.805
2832.0,-16.147,0.103,-0.191,-0.989,0.462,0.805
2836.0,-16.13,-0.329,-0.191,-1.019,0.311,0.865
2840.0,-16.13,-0.329,-0.191,-1.019,0.311,0.865
2844.0,-16.169,-0.726,-0.602,-1.061,0.174,0.889
2848.0,-16.169,-0.726,-0.602,-1.061,0.174,0.889
2852.0,-16.085,-1.035,-0.976,-1.061,0.174,0.889
2856.0,-16.085,-1.035,-0.976,-1.128,0.055,0.901
2860.0,-16.085,-1.035,-0.976,-1.128,0.055,0.901
2864.0,-15.738,-1.252,-1.293,-1.23,-0.044,0.913
2869.0,-15.738,-1.252,-1.293,-1.23,-0.044,0.913
2873.0,-14.995,-1.354,-1.397,-1.356,-0.123,0.932
2877.0,-14.995,-1.354,-1.397,-1.356,-0.123,0.932
2881.0,-14.995,-1.354,-1.397,-1.356,-0.123,0.932
2885.0,-14.037,-1.436,-1.32,-1.491,-0.192,0.948
2889.0,-14.037,-1.436,-1.32,-1.491,-0.192,0.948
2894.0,-13.18,-1.487,-1.208,-1.609,-0.257,0.946
2898.0,-13.18,-1.487,-1.208,-1.609,-0.257,0.946
2902.0,-12.568,-1.422,-1.22,-1.609,-0.319,0.92
2906.0,-12.568,-1.422,-1.22,-1.694,-0.319,0.92
2910.0,-12.568,-1.422,-1.22,-1.694,-0.319,0.92
2914.0,-11.922,-1.344,-1.307,-1.732,-0.384,0.888
2919.0,-11.922,-1.344,-1.307,-1.732,-0.384,0.888
2923.0,-11.2,-1.308,-1.393,-1.724,-0.452,0.851
2927.0,-11.2,-1.308,-1.393,-1.724,-0.452,0.851
2931.0,-10.444,-1.33,-1.466,-1.724,-0.452,0.851
2935.0,-10.444,-1.33,-1.466,-1.675,-0.519,0.807
2939.0,-10.444,-1.33,-1.466,-1.675,-0.519,0.807
2944.0,-9.753,-1.376,-1.579,-1.59,-0.574,0.758
2948.0,-9.753,-1.376,-1.579,-1.59,-0.574,0.758
2952.0,-9.247,-1.484,-1.887,-1.467,-0.617,0.708
2956.0,-9.247,-1.484,-1.887,-1.467,-0.617,0.708
2960.0,-9.247,-1.484,-1.887,-1.467,-0.617,0.708
2964.0,-9.095,-1.596,-2.387,-1.318,-0.646,0.66
2968.0,-9.095,-1.596,-2.387,-1.318,-0.646,0.66
2972.0,-9.362,-1.705,-2.9,-1.146,-0.65,0.616
2976.0,-9.362,-1.705,-2.9,-1.146,-0.65,0.616
2980.0,-10.036,-1.888,-3.313,-1.146,-0.65,0.616
2984.0,-10.036,-1.888,-3.313,-0.96,-0.623,0.587
2989.0,-10.036,-1.888,-3.313,-0.96,-0.623,0.587
2993.0,-10.892,-2.109,-3.531,-0.77,-0.572,0.577
2997.0,-10.892,-2.109,-3.531,-0.77,-0.572,0.577
