deltaTime,Acc_X,Acc_Y,Acc_Z,Gyro_X,Gyro_Y,Gyro_Z
0.0,-7.326,-3.4,5.65,0.312,-0.134,0.045
3.0,-7.326,-3.4,5.65,0.312,-0.134,0.045
6.0,-8.017,-3.598,5.535,0.34,-0.12,0.051
9.0,-8.017,-3.598,5.535,0.34,-0.12,0.051
12.0,-8.017,-3.598,5.535,0.34,-0.12,0.051
15.0,-7.216,-3.604,5.704,0.34,-0.12,0.051
17.0,-7.216,-3.604,5.704,0.407,-0.282,0.1
20.0,-7.216,-3.604,5.704,0.407,-0.282,0.1
23.0,-7.216,-3.604,5.704,0.407,-0.282,0.1
26.0,-7.754,-3.105,5.443,0.397,-0.15,0.13
29.0,-7.754,-3.105,5.443,0.397,-0.15,0.13
32.0,-7.754,-3.105,5.443,0.397,-0.15,0.13
35.0,-8.23,-3.283,5.565,0.317,-0.125,0.163
39.0,-8.23,-3.283,5.565,0.317,-0.125,0.163
43.0,-8.23,-3.283,5.565,0.317,-0.125,0.163
47.0,-8.22,-3.231,5.588,0.223,-0.167,0.197
50.0,-8.22,-3.231,5.588,0.223,-0.167,0.197
54.0,-8.025,-3.592,5.439,0.223,-0.167,0.205
58.0,-8.025,-3.592,5.439,0.138,-0.207,0.205
62.0,-8.025,-3.592,5.439,0.138,-0.207,0.205
65.0,-7.668,-3.775,5.095,0.113,-0.235,0.198
69.0,-7.668,-3.775,5.095,0.113,-0.235,0.198
73.0,-7.668,-3.775,5.095,0.113,-0.235,0.198
77.0,-7.454,-3.91,4.958,0.124,-0.231,0.165
80.0,-7.454,-3.91,4.958,0.124,-0.231,0.165
84.0,-7.33,-3.968,4.941,0.156,-0.206,0.115
88.0,-7.33,-3.968,4.941,0.156,-0.206,0.115
91.0,-7.33,-3.968,4.941,0.156,-0.206,0.115
95.0,-7.201,-4.063,5.271,0.214,-0.188,0.069
99.0,-7.201,-4.063,5.271,0.214,-0.188,0.069
103.0,-7.201,-4.063,5.271,0.214,-0.188,0.069
106.0,-7.17,-4.012,5.682,0.309,-0.192,0.029
110.0,-7.17,-4.012,5.682,0.309,-0.192,0.029
114.0,-7.062,-3.957,5.605,0.423,-0.221,-0.014
118.0,-7.062,-3.957,5.605,0.423,-0.221,-0.014
122.0,-7.062,-3.957,5.605,0.423,-0.221,-0.014
126.0,-7.344,-3.08,5.009,0.512,-0.243,-0.066
130.0,-7.344,-3.08,5.009,0.512,-0.243,-0.066
134.0,-7.733,-2.569,4.431,0.448,-0.263,-0.104
138.0,-7.733,-2.569,4.431,0.448,-0.263,-0.104
141.0,-7.733,-2.569,4.431,0.448,-0.263,-0.104
145.0,-7.59,-2.134,4.061,0.235,-0.232,-0.084
149.0,-7.59,-2.134,4.061,0.235,-0.232,-0.084
153.0,-7.191,-2.606,4.13,-0.067,-0.16,-0.06
157.0,-7.191,-2.606,4.13,-0.067,-0.16,-0.06
161.0,-7.191,-2.606,4.13,-0.067,-0.16,-0.06
165.0,-6.866,-3.422,4.652,-0.318,-0.065,-0.054
169.0,-6.866,-3.422,4.652,-0.318,-0.065,-0.054
173.0,-6.825,-4.036,5.272,-0.446,0.013,-0.079
177.0,-6.825,-4.036,5.272,-0.446,0.013,-0.079
181.0,-6.825,-4.036,5.272,-0.446,0.013,-0.079
185.0,-6.999,-4.358,5.807,-0.451,0.053,-0.123
189.0,-6.999,-4.358,5.807,-0.451,0.053,-0.123
193.0,-7.326,-4.234,6.208,-0.353,0.06,-0.165
197.0,-7.326,-4.234,6.208,-0.353,0.06,-0.165
201.0,-7.326,-4.234,6.208,-0.353,0.06,-0.165
204.0,-7.586,-3.893,6.352,-0.196,0.038,-0.185
208.0,-7.586,-3.893,6.352,-0.196,0.038,-0.185
212.0,-7.742,-3.626,6.345,-0.196,0.006,-0.176
216.0,-7.742,-3.626,6.345,-0.016,0.006,-0.176
220.0,-7.742,-3.626,6.345,-0.016,0.006,-0.176
224.0,-7.662,-3.59,6.08,0.163,-0.025,-0.145
228.0,-7.662,-3.59,6.08,0.163,-0.025,-0.145
232.0,-7.397,-3.596,5.594,0.163,-0.025,-0.109
236.0,-7.397,-3.596,5.594,0.305,-0.048,-0.109
240.0,-7.397,-3.596,5.594,0.305,-0.048,-0.109
243.0,-7.184,-3.581,5.318,0.367,-0.035,-0.081
247.0,-7.184,-3.581,5.318,0.367,-0.035,-0.081
251.0,-6.877,-3.666,5.251,0.367,-0.035,-0.081
255.0,-6.877,-3.666,5.251,0.371,0.004,-0.068
259.0,-6.877,-3.666,5.251,0.371,0.004,-0.068
263.0,-6.787,-3.524,5.398,0.372,0.041,-0.056
267.0,-6.787,-3.524,5.398,0.372,0.041,-0.056
270.0,-6.787,-3.524,5.398,0.372,0.041,-0.056
274.0,-7.028,-3.07,5.593,0.341,0.062,-0.046
278.0,-7.028,-3.07,5.593,0.341,0.062,-0.046
282.0,-7.369,-3.032,5.789,0.248,0.059,-0.029
286.0,-7.369,-3.032,5.789,0.248,0.059,-0.029
290.0,-7.369,-3.032,5.789,0.248,0.059,-0.029
293.0,-7.607,-3.118,5.95,0.152,0.041,-0.011
297.0,-7.607,-3.118,5.95,0.152,0.041,-0.011
301.0,-7.649,-3.047,6.162,0.152,0.013,0.001
305.0,-7.649,-3.047,6.162,0.07,0.013,0.001
308.0,-7.649,-3.047,6.162,0.07,0.013,0.001
312.0,-7.55,-3.111,6.194,-0.018,-0.026,0.003
316.0,-7.55,-3.111,6.194,-0.018,-0.026,0.003
320.0,-7.55,-3.111,6.056,-0.018,-0.026,0.003
324.0,-7.228,-3.318,6.056,-0.087,-0.062,0.006
328.0,-7.228,-3.318,6.056,-0.087,-0.062,0.006
332.0,-7.209,-3.444,5.967,-0.122,-0.072,-0.002
336.0,-7.209,-3.444,5.967,-0.122,-0.072,-0.002
340.0,-7.209,-3.444,6.1,-0.122,-0.072,-0.002
344.0,-7.369,-3.459,6.1,-0.141,-0.065,-0.018
348.0,-7.369,-3.459,6.1,-0.141,-0.065,-0.018
352.0,-7.606,-3.414,6.354,-0.152,-0.065,-0.027
356.0,-7.606,-3.414,6.354,-0.152,-0.065,-0.027
360.0,-7.606,-3.502,6.726,-0.152,-0.065,-0.027
364.0,-7.874,-3.502,6.726,-0.156,-0.082,-0.031
368.0,-7.874,-3.502,6.726,-0.156,-0.082,-0.031
372.0,-8.02,-3.701,7.049,-0.141,-0.116,-0.033
376.0,-8.02,-3.701,7.049,-0.141,-0.116,-0.033
380.0,-7.865,-4.05,7.172,-0.141,-0.116,-0.033
384.0,-7.865,-4.05,7.172,-0.091,-0.158,-0.036
388.0,-7.865,-4.05,7.172,-0.091,-0.158,-0.036
392.0,-7.226,-4.244,7.117,0.033,-0.192,-0.045
396.0,-7.226,-4.244,7.117,0.033,-0.192,-0.045
399.0,-6.723,-4.065,7.031,0.033,-0.192,-0.045
403.0,-6.723,-4.065,7.031,0.219,-0.189,-0.046
407.0,-6.723,-4.065,7.031,0.219,-0.189,-0.046
411.0,-6.67,-3.826,7.094,0.41,-0.159,-0.031
415.0,-6.67,-3.826,7.094,0.41,-0.159,-0.031
419.0,-6.982,-3.617,7.283,0.41,-0.159,-0.031
423.0,-6.982,-3.617,7.283,0.578,-0.129,0.004
427.0,-6.982,-3.617,7.283,0.578,-0.129,0.004
431.0,-7.35,-3.366,7.295,0.719,-0.12,0.049
434.0,-7.35,-3.366,7.295,0.719,-0.12,0.049
438.0,-7.35,-3.366,7.295,0.719,-0.12,0.049
442.0,-7.663,-3.13,7.198,0.826,-0.121,0.089
446.0,-7.663,-3.13,7.198,0.826,-0.121,0.089
450.0,-7.982,-2.929,7.049,0.9,-0.137,0.111
453.0,-7.982,-2.929,7.049,0.9,-0.137,0.111
457.0,-7.982,-2.929,7.049,0.9,-0.137,0.111
461.0,-8.151,-2.576,6.858,0.924,-0.173,0.128
465.0,-8.151,-2.576,6.858,0.924,-0.173,0.128
469.0,-7.984,-2.32,6.622,0.924,-0.173,0.145
473.0,-7.984,-2.32,6.622,0.864,-0.217,0.145
476.0,-7.984,-2.32,6.622,0.864,-0.217,0.145
480.0,-7.654,-2.237,6.221,0.756,-0.264,0.165
484.0,-7.654,-2.237,6.221,0.756,-0.264,0.165
488.0,-7.654,-2.237,5.766,0.756,-0.264,0.165
492.0,-7.219,-2.097,5.766,0.643,-0.297,0.181
495.0,-7.219,-2.097,5.766,0.643,-0.297,0.181
499.0,-7.177,-2.006,5.562,0.502,-0.286,0.187
503.0,-7.177,-2.006,5.562,0.502,-0.286,0.187
507.0,-7.177,-2.006,5.562,0.502,-0.286,0.187
511.0,-6.974,-2.236,5.597,0.329,-0.251,0.186
515.0,-6.974,-2.236,5.597,0.329,-0.251,0.186
518.0,-6.753,-2.623,5.757,0.196,-0.211,0.182
522.0,-6.753,-2.623,5.757,0.196,-0.211,0.182
526.0,-6.753,-2.623,5.757,0.196,-0.211,0.182
530.0,-6.726,-2.77,5.896,0.142,-0.179,0.169
534.0,-6.726,-2.77,5.896,0.142,-0.179,0.169
537.0,-6.744,-2.688,5.997,0.142,-0.179,0.169
541.0,-6.744,-2.688,5.997,0.126,-0.158,0.146
545.0,-6.744,-2.688,5.997,0.126,-0.158,0.146
549.0,-6.772,-2.532,6.056,0.106,-0.145,0.114
553.0,-6.772,-2.532,6.056,0.106,-0.145,0.114
557.0,-6.772,-2.532,6.056,0.106,-0.145,0.114
560.0,-6.812,-2.38,6.062,0.073,-0.135,0.073
564.0,-6.812,-2.38,6.062,0.073,-0.135,0.073
568.0,-6.909,-2.24,6.063,0.039,-0.125,0.038
572.0,-6.909,-2.24,6.063,0.039,-0.125,0.038
576.0,-6.909,-2.24,6.063,0.039,-0.125,0.038
579.0,-7.102,-2.255,5.998,0.02,-0.12,0.026
583.0,-7.102,-2.255,5.998,0.02,-0.12,0.026
587.0,-7.298,-2.447,5.886,0.02,-0.12,0.039
591.0,-7.298,-2.447,5.886,0.013,-0.11,0.039
595.0,-7.298,-2.447,5.886,0.013,-0.11,0.039
599.0,-7.305,-2.539,5.829,0.019,-0.098,0.064
602.0,-7.305,-2.539,5.829,0.019,-0.098,0.064
606.0,-7.305,-2.539,5.915,0.019,-0.098,0.064
610.0,-7.183,-2.516,5.915,0.018,-0.081,0.079
614.0,-7.183,-2.516,5.915,0.018,-0.081,0.079
618.0,-7.009,-2.57,6.299,0.003,-0.065,0.078
622.0,-7.009,-2.57,6.299,0.003,-0.065,0.078
625.0,-7.009,-2.57,6.299,0.003,-0.065,0.078
629.0,-6.866,-2.579,6.402,-0.008,-0.068,0.07
633.0,-6.866,-2.579,6.402,-0.008,-0.068,0.07
637.0,-6.766,-2.639,6.359,-0.017,-0.076,0.066
641.0,-6.766,-2.639,6.359,-0.017,-0.076,0.066
645.0,-6.766,-2.639,6.359,-0.017,-0.076,0.066
649.0,-6.679,-2.697,6.423,-0.019,-0.074,0.072
653.0,-6.679,-2.697,6.423,-0.019,-0.074,0.072
656.0,-6.622,-2.761,6.418,-0.009,-0.06,0.085
660.0,-6.622,-2.761,6.418,-0.009,-0.06,0.085
664.0,-6.622,-2.761,6.418,-0.009,-0.06,0.085
668.0,-6.577,-2.803,6.401,0.017,-0.033,0.103
672.0,-6.577,-2.803,6.401,0.017,-0.033,0.103
676.0,-6.594,-2.814,6.467,0.017,-0.033,0.103
680.0,-6.594,-2.814,6.467,0.049,0.001,0.124
683.0,-6.594,-2.814,6.467,0.049,0.001,0.124
687.0,-6.727,-2.773,6.546,0.078,0.028,0.14
691.0,-6.727,-2.773,6.546,0.078,0.028,0.14
695.0,-6.727,-2.773,6.546,0.078,0.028,0.14
698.0,-6.866,-2.715,6.639,0.099,0.038,0.153
702.0,-6.866,-2.715,6.639,0.099,0.038,0.153
706.0,-6.955,-2.706,6.721,0.099,0.03,0.166
710.0,-6.955,-2.706,6.721,0.107,0.03,0.166
713.0,-6.955,-2.706,6.721,0.107,0.03,0.166
717.0,-7.047,-2.747,6.719,0.105,0.009,0.177
721.0,-7.047,-2.747,6.719,0.105,0.009,0.177
724.0,-7.047,-2.747,6.719,0.105,0.009,0.177
728.0,-6.972,-2.73,6.726,0.098,-0.017,0.18
732.0,-6.972,-2.73,6.726,0.098,-0.017,0.18
736.0,-6.665,-2.752,6.632,0.084,-0.036,0.172
740.0,-6.665,-2.752,6.632,0.084,-0.036,0.172
743.0,-6.665,-2.752,6.632,0.084,-0.036,0.172
747.0,-6.312,-2.819,6.582,0.073,-0.039,0.164
751.0,-6.312,-2.819,6.582,0.073,-0.039,0.164
755.0,-6.007,-2.967,6.345,0.073,-0.039,0.155
759.0,-6.007,-2.967,6.345,0.074,-0.022,0.155
763.0,-6.007,-2.967,6.345,0.074,-0.022,0.155
766.0,-5.559,-3.15,6.166,0.076,0.029,0.14
770.0,-5.559,-3.15,6.166,0.076,0.029,0.14
774.0,-5.559,-3.15,6.166,0.076,0.029,0.14
778.0,-5.141,-3.244,6.663,0.083,0.111,0.101
781.0,-5.141,-3.244,6.663,0.083,0.111,0.101
785.0,-5.298,-3.234,7.36,0.137,0.173,0.045
789.0,-5.298,-3.234,7.36,0.137,0.173,0.045
793.0,-5.298,-3.234,7.36,0.137,0.173,0.045
796.0,-6.43,-3.112,7.439,0.237,0.179,0.008
800.0,-6.43,-3.112,7.439,0.237,0.179,0.008
804.0,-6.43,-3.112,6.944,0.237,0.179,0.008
807.0,-8.253,-2.934,6.944,0.311,0.151,0.023
811.0,-8.253,-2.934,6.944,0.311,0.151,0.023
815.0,-9.891,-2.988,6.455,0.313,0.13,0.099
819.0,-9.891,-2.988,6.455,0.313,0.13,0.099
822.0,-9.891,-2.988,6.455,0.313,0.13,0.099
826.0,-10.643,-3.465,6.5,0.279,0.108,0.208
830.0,-10.643,-3.465,6.5,0.279,0.108,0.208
834.0,-9.622,-3.56,6.957,0.279,0.108,0.208
837.0,-9.622,-3.56,6.957,0.27,0.022,0.292
841.0,-9.622,-3.56,6.957,0.27,0.022,0.292
845.0,-7.772,-3.48,7.527,0.293,-0.131,0.277
849.0,-7.772,-3.48,7.527,0.293,-0.131,0.277
853.0,-7.772,-3.48,7.527,0.293,-0.131,0.277
856.0,-6.273,-3.384,7.77,0.391,-0.256,0.154
860.0,-6.273,-3.384,7.77,0.391,-0.256,0.154
864.0,-5.362,-3.212,7.799,0.583,-0.302,-0.036
868.0,-5.362,-3.212,7.799,0.583,-0.302,-0.036
872.0,-5.362,-3.212,7.799,0.583,-0.302,-0.036
876.0,-5.051,-2.907,7.736,0.838,-0.297,-0.211
880.0,-5.051,-2.907,7.736,0.838,-0.297,-0.211
884.0,-5.209,-2.369,7.622,1.08,-0.288,-0.308
887.0,-5.209,-2.369,7.622,1.08,-0.288,-0.308
891.0,-5.209,-2.369,7.622,1.08,-0.288,-0.308
895.0,-5.6,-1.847,7.455,1.239,-0.288,-0.323
899.0,-5.6,-1.847,7.455,1.239,-0.288,-0.323
903.0,-5.995,-1.783,7.373,1.239,-0.296,-0.285
907.0,-5.995,-1.783,7.373,1.302,-0.296,-0.285
911.0,-5.995,-1.783,7.373,1.302,-0.296,-0.285
915.0,-6.086,-1.875,7.276,1.332,-0.335,-0.209
919.0,-6.086,-1.875,7.276,1.332,-0.335,-0.209
923.0,-5.998,-1.935,7.452,1.332,-0.335,-0.146
927.0,-5.998,-1.935,7.452,1.332,-0.395,-0.146
930.0,-5.998,-1.935,7.452,1.332,-0.395,-0.146
934.0,-5.946,-2.051,7.621,1.295,-0.437,-0.11
938.0,-5.946,-2.051,7.621,1.295,-0.437,-0.11
942.0,-6.069,-1.945,7.421,1.295,-0.437,-0.11
946.0,-6.069,-1.945,7.421,1.242,-0.479,-0.092
950.0,-6.069,-1.945,7.421,1.242,-0.479,-0.092
954.0,-6.482,-1.805,6.938,1.164,-0.526,-0.071
958.0,-6.482,-1.805,6.938,1.164,-0.526,-0.071
962.0,-6.482,-1.805,6.347,1.164,-0.526,-0.071
966.0,-6.89,-1.798,6.347,1.047,-0.543,-0.031
970.0,-6.89,-1.798,6.347,1.047,-0.543,-0.031
973.0,-6.9,-1.91,6.199,0.898,-0.511,0.008
977.0,-6.9,-1.91,6.199,0.898,-0.511,0.008
981.0,-6.9,-1.91,6.199,0.898,-0.511,0.008
985.0,-6.51,-2.093,6.613,0.761,-0.449,0.023
989.0,-6.51,-2.093,6.613,0.761,-0.449,0.023
993.0,-6.08,-2.386,7.291,0.694,-0.385,-0.012
996.0,-6.08,-2.386,7.291,0.694,-0.385,-0.012
1000.0,-6.08,-2.386,7.291,0.694,-0.385,-0.012
1004.0,-6.025,-2.436,7.772,0.733,-0.349,-0.102
1008.0,-6.025,-2.436,7.772,0.733,-0.349,-0.102
1012.0,-6.373,-2.331,7.877,0.829,-0.352,-0.209
1016.0,-6.373,-2.331,7.877,0.829,-0.352,-0.209
1020.0,-6.373,-2.331,7.877,0.829,-0.352,-0.209
1024.0,-6.845,-2.077,7.644,0.912,-0.373,-0.284
1028.0,-6.845,-2.077,7.644,0.912,-0.373,-0.284
1032.0,-7.074,-1.895,7.525,0.928,-0.38,-0.311
1036.0,-7.074,-1.895,7.525,0.928,-0.38,-0.311
1040.0,-7.074,-1.895,7.525,0.928,-0.38,-0.311
1044.0,-6.906,-1.832,7.766,0.888,-0.376,-0.302
1048.0,-6.906,-1.832,7.766,0.888,-0.376,-0.302
1052.0,-6.581,-1.722,8.273,0.821,-0.373,-0.287
1056.0,-6.581,-1.722,8.273,0.821,-0.373,-0.287
1060.0,-6.581,-1.722,8.273,0.821,-0.373,-0.287
1064.0,-6.433,-1.724,8.971,0.756,-0.378,-0.289
1068.0,-6.433,-1.724,8.971,0.756,-0.378,-0.289
1072.0,-6.639,-1.772,9.604,0.731,-0.407,-0.3
1076.0,-6.639,-1.772,9.604,0.731,-0.407,-0.3
1080.0,-6.639,-1.841,9.949,0.731,-0.407,-0.3
1084.0,-7.192,-1.841,9.949,0.77,-0.474,-0.291
1088.0,-7.192,-1.841,9.949,0.77,-0.474,-0.291
1092.0,-7.749,-1.902,10.256,0.84,-0.567,-0.246
1096.0,-7.749,-1.902,10.256,0.84,-0.567,-0.246
1100.0,-8.44,-1.906,10.493,0.84,-0.567,-0.177
1104.0,-8.44,-1.906,10.493,0.896,-0.656,-0.177
1108.0,-8.44,-1.906,10.493,0.896,-0.656,-0.177
1113.0,-8.824,-1.665,10.742,0.916,-0.744,-0.106
1117.0,-8.824,-1.665,10.742,0.916,-0.744,-0.106
1121.0,-8.76,-1.767,11.088,0.9,-0.83,-0.052
1125.0,-8.76,-1.767,11.088,0.9,-0.83,-0.052
1129.0,-8.76,-1.767,11.088,0.9,-0.83,-0.052
1133.0,-8.286,-1.74,11.473,0.885,-0.905,-0.05
1137.0,-8.286,-1.74,11.473,0.885,-0.905,-0.05
1141.0,-7.573,-1.405,12.079,0.88,-0.966,-0.117
1145.0,-7.573,-1.405,12.079,0.88,-0.966,-0.117
1149.0,-7.573,-0.995,13.015,0.88,-0.966,-0.117
1153.0,-7.242,-0.995,13.015,0.89,-1.02,-0.242
1157.0,-7.242,-0.995,13.015,0.89,-1.02,-0.242
1162.0,-7.622,-0.586,13.565,0.923,-1.114,-0.384
1166.0,-7.622,-0.586,13.565,0.923,-1.114,-0.384
1170.0,-8.351,-0.224,13.235,0.923,-1.274,-0.47
1174.0,-8.351,-0.224,13.235,0.954,-1.274,-0.47
1178.0,-8.351,-0.224,13.235,0.954,-1.274,-0.47
1182.0,-8.61,-0.029,12.724,0.943,-1.45,-0.463
1186.0,-8.61,-0.029,12.724,0.943,-1.45,-0.463
1190.0,-8.274,0.0,12.641,0.903,-1.579,-0.388
1194.0,-8.274,0.0,12.641,0.903,-1.579,-0.388
1198.0,-8.274,0.0,12.641,0.903,-1.579,-0.388
1202.0,-7.777,-0.265,12.571,0.856,-1.673,-0.294
1206.0,-7.777,-0.265,12.571,0.856,-1.673,-0.294
1210.0,-7.19,-0.544,12.595,0.811,-1.762,-0.235
1214.0,-7.19,-0.544,12.595,0.811,-1.762,-0.235
1218.0,-7.19,-0.683,12.771,0.811,-1.762,-0.235
1222.0,-6.593,-0.683,12.771,0.768,-1.858,-0.239
1227.0,-6.593,-0.683,12.771,0.768,-1.858,-0.239
1231.0,-6.193,-0.73,12.893,0.734,-1.959,-0.311
1235.0,-6.193,-0.73,12.893,0.734,-1.959,-0.311
1239.0,-6.188,-0.779,13.019,0.734,-2.075,-0.43
1243.0,-6.188,-0.779,13.019,0.717,-2.075,-0.43
1247.0,-6.188,-0.779,13.019,0.717,-2.075,-0.43
1251.0,-6.552,-0.93,12.827,0.73,-2.217,-0.558
1255.0,-6.552,-0.93,12.827,0.73,-2.217,-0.558
1259.0,-6.971,-1.255,12.444,0.773,-2.368,-0.643
1263.0,-6.971,-1.255,12.444,0.773,-2.368,-0.643
1267.0,-6.971,-1.255,12.444,0.773,-2.368,-0.643
1271.0,-7.037,-2.003,12.074,0.845,-2.505,-0.675
1275.0,-7.037,-2.003,12.074,0.845,-2.505,-0.675
1280.0,-6.621,-2.981,11.794,0.96,-2.624,-0.696
1284.0,-6.621,-2.981,11.794,0.96,-2.624,-0.696
1288.0,-5.77,-3.82,11.643,0.96,-2.624,-0.696
1292.0,-5.77,-3.82,11.643,1.152,-2.735,-0.763
1296.0,-5.77,-3.82,11.643,1.152,-2.735,-0.763
1300.0,-4.912,-4.347,11.32,1.436,-2.845,-0.904
1304.0,-4.912,-4.347,11.32,1.436,-2.845,-0.904
1308.0,-4.132,-4.424,10.886,1.778,-2.954,-1.097
1312.0,-4.132,-4.424,10.886,1.778,-2.954,-1.097
1316.0,-4.132,-4.424,10.886,1.778,-2.954,-1.097
1320.0,-3.503,-4.402,10.492,2.148,-3.043,-1.283
1324.0,-3.503,-4.402,10.492,2.148,-3.043,-1.283
1329.0,-3.184,-4.574,10.019,2.534,-3.094,-1.399
1333.0,-3.184,-4.574,10.019,2.534,-3.094,-1.399
1337.0,-3.184,-4.574,9.46,2.534,-3.094,-1.399
1341.0,-3.16,-4.962,9.46,2.915,-3.113,-1.41
1345.0,-3.16,-4.962,9.46,2.915,-3.113,-1.41
1349.0,-3.138,-5.605,9.13,3.279,-3.106,-1.34
1353.0,-3.138,-5.605,9.13,3.279,-3.106,-1.34
1357.0,-3.138,-6.102,8.934,3.279,-3.106,-1.34
1361.0,-2.993,-6.102,8.934,3.625,-3.073,-1.276
1365.0,-2.993,-6.102,8.934,3.625,-3.073,-1.276
1369.0,-2.947,-6.419,8.983,3.967,-3.025,-1.29
1373.0,-2.947,-6.419,8.983,3.967,-3.025,-1.29
1377.0,-3.145,-6.407,8.974,3.967,-3.025,-1.29
1381.0,-3.145,-6.407,8.974,4.305,-2.999,-1.403
1385.0,-3.145,-6.407,8.974,4.305,-2.999,-1.403
1389.0,-3.441,-5.975,8.568,4.597,-2.997,-1.577
1393.0,-3.441,-5.975,8.568,4.597,-2.997,-1.577
1397.0,-3.599,-5.174,7.865,4.597,-2.997,-1.759
1401.0,-3.599,-5.174,7.865,4.781,-2.999,-1.759
1405.0,-3.599,-5.174,7.865,4.781,-2.999,-1.759
1409.0,-3.222,-4.154,7.12,4.83,-2.984,-1.941
1413.0,-3.222,-4.154,7.12,4.83,-2.984,-1.941
1417.0,-2.582,-3.004,6.853,4.778,-2.956,-2.157
1421.0,-2.582,-3.004,6.853,4.778,-2.956,-2.157
1425.0,-2.582,-3.004,6.853,4.778,-2.956,-2.157
1429.0,-2.451,-1.734,6.626,4.681,-2.96,-2.408
1433.0,-2.451,-1.734,6.626,4.681,-2.96,-2.408
1437.0,-2.721,-0.613,5.93,4.552,-3.024,-2.605
1441.0,-2.721,-0.613,5.93,4.552,-3.024,-2.605
1445.0,-2.721,-0.613,5.93,4.552,-3.024,-2.605
1449.0,-2.84,0.125,5.033,4.379,-3.092,-2.669
1452.0,-2.84,0.125,5.033,4.379,-3.092,-2.669
1456.0,-2.454,0.279,4.337,4.165,-3.12,-2.604
1460.0,-2.454,0.279,4.337,4.165,-3.12,-2.604
1464.0,-2.454,0.279,4.337,4.165,-3.12,-2.604
1468.0,-1.636,0.286,4.156,3.942,-3.117,-2.562
1472.0,-1.636,0.286,4.156,3.942,-3.117,-2.562
1476.0,-1.118,0.8,4.194,3.764,-3.116,-2.664
1480.0,-1.118,0.8,4.194,3.764,-3.116,-2.664
1484.0,-1.118,0.8,4.194,3.764,-3.116,-2.664
1488.0,-1.382,2.048,4.049,3.627,-3.14,-2.837
1491.0,-1.382,2.048,4.049,3.627,-3.14,-2.837
1495.0,-1.988,3.602,3.667,3.627,-3.163,-2.898
1499.0,-1.988,3.602,3.667,3.469,-3.163,-2.898
1503.0,-1.988,3.602,3.667,3.469,-3.163,-2.898
1507.0,-2.149,4.723,3.307,3.245,-3.141,-2.758
1511.0,-2.149,4.723,3.307,3.245,-3.141,-2.758
1515.0,-1.912,5.171,3.177,3.245,-3.141,-2.526
1519.0,-1.912,5.171,3.177,2.963,-3.053,-2.526
1523.0,-1.912,5.171,3.177,2.963,-3.053,-2.526
1527.0,-1.552,5.553,3.227,2.641,-2.923,-2.345
1531.0,-1.552,5.553,3.227,2.641,-2.923,-2.345
1534.0,-1.568,6.169,3.317,2.641,-2.923,-2.345
1538.0,-1.568,6.169,3.317,2.289,-2.772,-2.249
1542.0,-1.568,6.169,3.317,2.289,-2.772,-2.249
1546.0,-1.881,7.114,3.277,1.926,-2.64,-2.2
1550.0,-1.881,7.114,3.277,1.926,-2.64,-2.2
1554.0,-1.881,7.114,3.009,1.926,-2.64,-2.2
1558.0,-2.02,7.997,3.009,1.569,-2.542,-2.143
1562.0,-2.02,7.997,3.009,1.569,-2.542,-2.143
1566.0,-1.839,8.686,2.709,1.233,-2.436,-2.061
1570.0,-1.839,8.686,2.709,1.233,-2.436,-2.061
1573.0,-1.839,8.686,2.709,1.233,-2.436,-2.061
1577.0,-1.446,9.083,2.48,0.94,-2.3,-1.944
1581.0,-1.446,9.083,2.48,0.94,-2.3,-1.944
1585.0,-1.118,9.239,2.267,0.701,-2.14,-1.791
1589.0,-1.118,9.239,2.267,0.701,-2.14,-1.791
1593.0,-1.118,9.239,2.267,0.701,-2.14,-1.791
1597.0,-0.876,9.304,1.992,0.521,-1.966,-1.606
1601.0,-0.876,9.304,1.992,0.521,-1.966,-1.606
1605.0,-0.672,9.293,1.751,0.396,-1.786,-1.39
1609.0,-0.672,9.293,1.751,0.396,-1.786,-1.39
1613.0,-0.672,9.293,1.751,0.396,-1.786,-1.39
1616.0,-0.436,9.224,1.624,0.317,-1.601,-1.166
1620.0,-0.436,9.224,1.624,0.317,-1.601,-1.166
1624.0,-0.196,9.172,1.695,0.275,-1.406,-0.945
1628.0,-0.196,9.172,1.695,0.275,-1.406,-0.945
1632.0,-0.196,9.172,1.695,0.275,-1.406,-0.945
1636.0,-0.169,9.13,1.928,0.26,-1.2,-0.73
1640.0,-0.169,9.13,1.928,0.26,-1.2,-0.73
1644.0,-0.341,9.086,2.127,0.258,-1.001,-0.521
1648.0,-0.341,9.086,2.127,0.258,-1.001,-0.521
1652.0,-0.341,9.086,2.127,0.258,-1.001,-0.521
1656.0,-0.596,9.096,2.264,0.251,-0.82,-0.34
1659.0,-0.596,9.096,2.264,0.251,-0.82,-0.34
1663.0,-0.602,9.168,2.251,0.22,-0.662,-0.193
1667.0,-0.602,9.168,2.251,0.22,-0.662,-0.193
1671.0,-0.602,9.168,2.251,0.22,-0.662,-0.193
1675.0,-0.483,9.304,2.366,0.158,-0.512,-0.086
1679.0,-0.483,9.304,2.366,0.158,-0.512,-0.086
1683.0,-0.341,9.415,2.42,0.158,-0.374,-0.005
1687.0,-0.341,9.415,2.42,0.08,-0.374,-0.005
1691.0,-0.341,9.415,2.42,0.08,-0.374,-0.005
1695.0,-0.115,9.466,2.488,-0.004,-0.231,0.079
1698.0,-0.115,9.466,2.488,-0.004,-0.231,0.079
1702.0,-0.098,9.542,2.711,-0.004,-0.231,0.079
1706.0,-0.098,9.542,2.711,-0.072,-0.078,0.169
1710.0,-0.098,9.542,2.711,-0.072,-0.078,0.169
1714.0,-0.234,9.428,2.973,-0.105,0.057,0.266
1718.0,-0.234,9.428,2.973,-0.105,0.057,0.266
1722.0,-0.234,9.428,3.111,-0.105,0.057,0.266
1726.0,-0.166,9.049,3.111,-0.098,0.172,0.371
1729.0,-0.166,9.049,3.111,-0.098,0.172,0.371
1733.0,0.127,8.681,3.304,-0.058,0.287,0.478
1737.0,0.127,8.681,3.304,-0.058,0.287,0.478
1741.0,0.127,8.681,3.304,-0.058,0.287,0.478
1744.0,0.356,8.517,3.458,0.009,0.404,0.58
1748.0,0.356,8.517,3.458,0.009,0.404,0.58
1752.0,0.497,8.461,3.505,0.009,0.404,0.58
1755.0,0.497,8.461,3.505,0.085,0.516,0.676
1759.0,0.497,8.461,3.505,0.085,0.516,0.676
1763.0,0.687,8.384,3.783,0.145,0.626,0.763
1766.0,0.687,8.384,3.783,0.145,0.626,0.763
1770.0,0.687,8.384,3.783,0.145,0.626,0.763
1774.0,0.88,8.507,4.101,0.183,0.718,0.847
1777.0,0.88,8.507,4.101,0.183,0.718,0.847
1781.0,0.88,8.507,4.496,0.183,0.718,0.847
1785.0,0.997,8.788,4.496,0.194,0.797,0.94
1788.0,0.997,8.788,4.496,0.194,0.797,0.94
1792.0,1.076,8.983,4.722,0.186,0.856,1.049
1795.0,1.076,8.983,4.722,0.186,0.856,1.049
1799.0,1.076,8.983,4.722,0.186,0.856,1.049
1803.0,1.055,9.258,4.767,0.155,0.908,1.159
1806.0,1.055,9.258,4.767,0.155,0.908,1.159
1810.0,1.055,9.258,4.767,0.155,0.908,1.159
1814.0,1.054,9.311,4.696,0.094,0.956,1.277
1817.0,1.054,9.311,4.696,0.094,0.956,1.277
1821.0,1.188,9.242,4.687,0.094,0.956,1.386
1825.0,1.188,9.242,4.687,0.013,0.999,1.386
1828.0,1.188,9.242,4.687,0.013,0.999,1.386
1832.0,1.175,9.137,4.738,-0.059,1.045,1.456
1836.0,1.175,9.137,4.738,-0.059,1.045,1.456
1839.0,1.175,9.137,4.738,-0.059,1.045,1.456
1843.0,0.93,9.052,5.122,-0.115,1.09,1.513
1847.0,0.93,9.052,5.122,-0.115,1.09,1.513
1851.0,0.799,8.888,5.662,-0.115,1.09,1.591
1854.0,0.799,8.888,5.662,-0.167,1.132,1.591
1858.0,0.799,8.888,5.662,-0.167,1.132,1.591
1862.0,0.581,8.804,6.169,-0.212,1.173,1.66
1866.0,0.581,8.804,6.169,-0.212,1.173,1.66
1869.0,0.581,8.804,6.169,-0.212,1.173,1.66
1873.0,0.279,8.851,6.557,-0.24,1.183,1.698
1877.0,0.279,8.851,6.557,-0.24,1.183,1.698
1880.0,0.26,8.935,6.927,-0.24,1.16,1.71
1884.0,0.26,8.935,6.927,-0.256,1.16,1.71
1888.0,0.26,8.935,6.927,-0.256,1.16,1.71
1892.0,0.425,9.004,7.25,-0.254,1.126,1.714
1895.0,0.425,9.004,7.25,-0.254,1.126,1.714
1899.0,0.425,9.004,7.25,-0.254,1.126,1.714
1903.0,0.473,9.153,7.318,-0.227,1.097,1.723
1907.0,0.473,9.153,7.318,-0.227,1.097,1.723
1910.0,0.368,9.488,7.189,-0.188,1.074,1.72
1914.0,0.368,9.488,7.189,-0.188,1.074,1.72
1918.0,0.368,9.488,7.189,-0.188,1.074,1.72
1921.0,0.217,9.769,7.046,-0.163,1.053,1.735
1925.0,0.217,9.769,7.046,-0.163,1.053,1.735
1929.0,0.217,9.769,7.088,-0.163,1.053,1.735
1933.0,0.044,9.855,7.088,-0.148,1.029,1.786
1936.0,0.044,9.855,7.088,-0.148,1.029,1.786
1940.0,-0.072,9.836,7.214,-0.119,0.999,1.848
1944.0,-0.072,9.836,7.214,-0.119,0.999,1.848
1948.0,-0.072,9.836,7.214,-0.119,0.999,1.848
1952.0,0.121,9.735,7.472,-0.06,0.975,1.915
1955.0,0.121,9.735,7.472,-0.06,0.975,1.915
1959.0,0.435,9.718,7.795,-0.06,0.975,1.981
1963.0,0.435,9.718,7.795,0.047,0.977,1.981
1966.0,0.435,9.718,7.795,0.047,0.977,1.981
1970.0,0.468,9.902,8.035,0.191,0.989,2.073
1974.0,0.468,9.902,8.035,0.191,0.989,2.073
1977.0,0.468,9.902,8.035,0.191,0.989,2.073
1981.0,0.217,10.223,8.007,0.341,1.005,2.199
1985.0,0.217,10.223,8.007,0.341,1.005,2.199
1989.0,-0.13,10.56,7.91,0.341,1.005,2.199
1992.0,-0.13,10.56,7.91,0.457,1.018,2.334
1996.0,-0.13,10.56,7.91,0.457,1.018,2.334
2000.0,-0.654,10.898,7.718,0.514,1.028,2.46
2004.0,-0.654,10.898,7.718,0.514,1.028,2.46
2008.0,-0.654,10.898,7.718,0.514,1.028,2.46
2011.0,-1.204,11.358,7.509,0.489,1.042,2.593
2015.0,-1.204,11.358,7.509,0.489,1.042,2.593
2019.0,-1.538,11.696,7.449,0.393,1.056,2.761
2023.0,-1.538,11.696,7.449,0.393,1.056,2.761
2027.0,-1.538,11.696,7.449,0.393,1.056,2.761
2031.0,-1.307,11.751,7.432,0.251,1.047,2.942
2034.0,-1.307,11.751,7.432,0.251,1.047,2.942
2038.0,-0.903,11.587,7.422,0.251,1.047,3.113
2042.0,-0.903,11.587,7.422,0.091,1.021,3.113
2046.0,-0.903,11.587,7.422,0.091,1.021,3.113
2050.0,-0.91,11.327,7.548,-0.066,0.997,3.29
2054.0,-0.91,11.327,7.548,-0.066,0.997,3.29
2057.0,-0.91,10.842,7.716,-0.066,0.997,3.29
2061.0,-1.33,10.842,7.716,-0.206,0.968,3.482
2065.0,-1.33,10.842,7.716,-0.206,0.968,3.482
2069.0,-1.866,10.303,7.885,-0.321,0.919,3.672
2073.0,-1.866,10.303,7.885,-0.321,0.919,3.672
2077.0,-1.866,10.303,8.172,-0.321,0.919,3.672
2081.0,-2.291,9.736,8.172,-0.419,0.832,3.87
2085.0,-2.291,9.736,8.172,-0.419,0.832,3.87
2089.0,-2.298,9.2,8.378,-0.51,0.694,4.083
2092.0,-2.298,9.2,8.378,-0.51,0.694,4.083
2096.0,-2.298,9.2,8.378,-0.51,0.694,4.083
2100.0,-2.166,8.767,8.42,-0.592,0.522,4.302
2104.0,-2.166,8.767,8.42,-0.592,0.522,4.302
2108.0,-1.878,8.244,8.015,-0.671,0.33,4.529
2111.0,-1.878,8.244,8.015,-0.671,0.33,4.529
2115.0,-1.878,8.244,8.015,-0.671,0.33,4.529
2119.0,-1.406,7.705,7.53,-0.762,0.163,4.74
2123.0,-1.406,7.705,7.53,-0.762,0.163,4.74
2127.0,-0.845,7.017,7.167,-0.762,0.163,4.74
2131.0,-0.845,7.017,7.167,-0.884,0.03,4.917
2134.0,-0.845,7.017,7.167,-0.884,0.03,4.917
2138.0,-0.309,6.455,7.081,-1.031,-0.077,5.006
2142.0,-0.309,6.455,7.081,-1.031,-0.077,5.006
2146.0,-0.309,6.455,7.081,-1.031,-0.077,5.006
2150.0,-0.172,5.83,6.915,-1.156,-0.153,5.013
2154.0,-0.172,5.83,6.915,-1.156,-0.153,5.013
2158.0,-0.281,5.107,6.836,-1.246,-0.171,5.013
2162.0,-0.281,5.107,6.836,-1.246,-0.171,5.013
2166.0,-0.281,5.107,6.836,-1.246,-0.171,5.013
2169.0,-0.595,4.521,6.997,-1.291,-0.131,5.013
2173.0,-0.595,4.521,6.997,-1.291,-0.131,5.013
2177.0,-0.925,3.967,7.016,-1.294,-0.093,5.013
2181.0,-0.925,3.967,7.016,-1.294,-0.093,5.013
2185.0,-0.925,3.967,7.016,-1.294,-0.093,5.013
2189.0,-0.89,3.434,6.833,-1.284,-0.081,5.013
2193.0,-0.89,3.434,6.833,-1.284,-0.081,5.013
2197.0,-0.412,2.57,6.334,-1.285,-0.075,5.013
2201.0,-0.412,2.57,6.334,-1.285,-0.075,5.013
2205.0,-0.412,2.57,6.334,-1.285,-0.075,5.013
2208.0,0.182,1.737,5.797,-1.299,-0.042,5.013
2212.0,0.182,1.737,5.797,-1.299,-0.042,5.013
2216.0,0.706,1.059,5.524,-1.319,0.022,5.013
2220.0,0.706,1.059,5.524,-1.319,0.022,5.013
2224.0,0.706,1.059,5.524,-1.319,0.022,5.013
2227.0,1.083,0.345,5.48,-1.335,0.105,5.012
2231.0,1.083,0.345,5.48,-1.335,0.105,5.012
2235.0,1.083,0.345,5.48,-1.335,0.105,5.012
2239.0,1.131,-0.583,5.591,-1.357,0.192,4.989
2242.0,1.131,-0.583,5.591,-1.357,0.192,4.989
2246.0,1.049,-1.82,5.669,-1.396,0.264,4.924
2250.0,1.049,-1.82,5.669,-1.396,0.264,4.924
2254.0,1.049,-1.82,5.669,-1.396,0.264,4.924
2258.0,0.877,-3.157,5.743,-1.437,0.345,4.801
2261.0,0.877,-3.157,5.743,-1.437,0.345,4.801
2265.0,0.65,-4.397,5.715,-1.437,0.345,4.593
2269.0,0.65,-4.397,5.715,-1.474,0.448,4.593
2273.0,0.65,-4.397,5.715,-1.474,0.448,4.593
2277.0,0.427,-5.212,5.675,-1.493,0.569,4.314
2281.0,0.427,-5.212,5.675,-1.493,0.569,4.314
2284.0,0.427,-5.212,5.633,-1.493,0.569,4.314
2288.0,0.268,-5.747,5.633,-1.487,0.699,4.004
2292.0,0.268,-5.747,5.633,-1.487,0.699,4.004
2296.0,0.2,-6.223,5.779,-1.476,0.808,3.704
2300.0,0.2,-6.223,5.779,-1.476,0.808,3.704
2303.0,0.2,-6.223,5.779,-1.476,0.808,3.704
2307.0,0.269,-6.884,6.118,-1.48,0.859,3.438
2311.0,0.269,-6.884,6.118,-1.48,0.859,3.438
2315.0,0.356,-7.694,6.198,-1.475,0.855,3.198
2319.0,0.356,-7.694,6.198,-1.475,0.855,3.198
2323.0,0.356,-7.694,6.198,-1.475,0.855,3.198
2326.0,0.404,-8.413,5.982,-1.454,0.824,2.975
2330.0,0.404,-8.413,5.982,-1.454,0.824,2.975
2334.0,0.558,-8.977,5.712,-1.454,0.824,2.975
2338.0,0.558,-8.977,5.712,-1.454,0.791,2.757
2342.0,0.558,-8.977,5.712,-1.454,0.791,2.757
2345.0,1.014,-9.325,5.648,-1.477,0.762,2.548
2349.0,1.014,-9.325,5.648,-1.477,0.762,2.548
2353.0,1.014,-9.325,5.648,-1.477,0.762,2.548
2357.0,1.613,-9.363,6.007,-1.509,0.728,2.349
2361.0,1.613,-9.363,6.007,-1.509,0.728,2.349
2365.0,2.121,-9.413,6.416,-1.559,0.656,2.164
2368.0,2.121,-9.413,6.416,-1.559,0.656,2.164
2372.0,2.121,-9.413,6.416,-1.559,0.656,2.164
2376.0,2.716,-9.82,6.668,-1.581,0.531,2.0
2380.0,2.716,-9.82,6.668,-1.581,0.531,2.0
2384.0,3.242,-10.138,6.718,-1.581,0.531,1.845
2388.0,3.242,-10.138,6.718,-1.513,0.377,1.845
2391.0,3.242,-10.138,6.718,-1.513,0.377,1.845
2395.0,3.671,-9.983,6.595,-1.381,0.238,1.687
2399.0,3.671,-9.983,6.595,-1.381,0.238,1.687
2403.0,4.315,-9.695,6.564,-1.381,0.238,1.687
2407.0,4.315,-9.695,6.564,-1.225,0.132,1.537
2411.0,4.315,-9.695,6.564,-1.225,0.132,1.537
2414.0,5.276,-9.553,6.528,-1.04,0.043,1.403
2418.0,5.276,-9.553,6.528,-1.04,0.043,1.403
2422.0,5.276,-9.553,6.528,-1.04,0.043,1.403
2426.0,6.372,-9.34,6.51,-0.832,-0.037,1.265
2430.0,6.372,-9.34,6.51,-0.832,-0.037,1.265
2434.0,7.321,-9.203,6.584,-0.589,-0.083,1.13
2438.0,7.321,-9.203,6.584,-0.589,-0.083,1.13
2442.0,7.321,-9.203,6.584,-0.589,-0.083,1.13
2445.0,7.795,-9.075,6.584,-0.3,-0.083,1.021
2449.0,7.795,-9.075,6.584,-0.3,-0.083,1.021
2453.0,7.798,-8.865,6.794,0.009,-0.061,0.953
2457.0,7.798,-8.865,6.794,0.009,-0.061,0.953
2461.0,7.798,-8.865,6.794,0.009,-0.061,0.953
2465.0,7.511,-8.752,6.937,0.306,-0.03,0.915
2469.0,7.511,-8.752,6.937,0.306,-0.03,0.915
2472.0,6.928,-8.638,6.881,0.306,-0.03,0.883
2476.0,6.928,-8.638,6.881,0.57,0.005,0.883
2480.0,6.928,-8.638,6.881,0.57,0.005,0.883
2484.0,6.337,-8.312,6.691,0.789,0.036,0.835
2487.0,6.337,-8.312,6.691,0.789,0.036,0.835
2491.0,6.337,-8.312,6.691,0.789,0.036,0.835
2495.0,6.039,-7.811,6.687,0.948,0.063,0.776
2499.0,6.039,-7.811,6.687,0.948,0.063,0.776
2502.0,6.005,-7.281,6.787,0.948,0.083,0.711
2506.0,6.005,-7.281,6.787,1.044,0.083,0.711
2510.0,6.005,-7.281,6.787,1.044,0.083,0.711
2514.0,6.028,-6.82,6.93,1.088,0.093,0.649
2517.0,6.028,-6.82,6.93,1.088,0.093,0.649
2521.0,6.028,-6.82,6.93,1.088,0.093,0.649
2525.0,5.969,-6.535,7.087,1.102,0.083,0.6
2528.0,5.969,-6.535,7.087,1.102,0.083,0.6
2532.0,5.607,-6.205,7.066,1.098,0.059,0.56
2536.0,5.607,-6.205,7.066,1.098,0.059,0.56
2540.0,5.607,-6.205,7.066,1.098,0.059,0.56
2543.0,4.982,-5.815,6.949,1.07,0.044,0.528
2547.0,4.982,-5.815,6.949,1.07,0.044,0.528
2551.0,4.982,-5.815,6.856,1.07,0.044,0.528
2555.0,4.41,-5.424,6.856,1.019,0.046,0.507
2558.0,4.41,-5.424,6.856,1.019,0.046,0.507
2562.0,4.047,-4.939,6.71,0.945,0.062,0.494
2566.0,4.047,-4.939,6.71,0.945,0.062,0.494
2569.0,4.047,-4.939,6.71,0.945,0.062,0.494
2573.0,4.026,-4.454,6.636,0.859,0.085,0.476
2577.0,4.026,-4.454,6.636,0.859,0.085,0.476
2581.0,4.337,-4.046,6.76,0.859,0.085,0.476
2584.0,4.337,-4.046,6.76,0.779,0.108,0.455
2588.0,4.337,-4.046,6.76,0.779,0.108,0.455
2592.0,4.653,-3.785,6.829,0.712,0.121,0.442
2596.0,4.653,-3.785,6.829,0.712,0.121,0.442
2599.0,4.653,-3.785,6.829,0.712,0.121,0.442
2603.0,4.555,-3.549,6.573,0.663,0.134,0.434
2607.0,4.555,-3.549,6.573,0.663,0.134,0.434
2611.0,4.215,-3.191,6.252,0.663,0.134,0.433
2614.0,4.215,-3.191,6.252,0.633,0.174,0.433
2618.0,4.215,-3.191,6.252,0.633,0.174,0.433
2622.0,4.059,-2.863,6.124,0.617,0.231,0.448
2625.0,4.059,-2.863,6.124,0.617,0.231,0.448
2629.0,4.059,-2.863,6.124,0.617,0.231,0.448
2633.0,4.01,-2.454,6.096,0.612,0.288,0.48
2637.0,4.01,-2.454,6.096,0.612,0.288,0.48
2640.0,3.889,-2.091,5.926,0.612,0.357,0.536
2644.0,3.889,-2.091,5.926,0.62,0.357,0.536
2648.0,3.889,-2.091,5.926,0.62,0.357,0.536
2652.0,3.738,-1.811,5.593,0.633,0.444,0.628
2655.0,3.738,-1.811,5.593,0.633,0.444,0.628
2659.0,3.738,-1.811,5.593,0.633,0.444,0.628
2663.0,3.598,-1.482,5.091,0.645,0.55,0.763
2667.0,3.598,-1.482,5.091,0.645,0.55,0.763
2670.0,3.567,-1.205,4.652,0.665,0.686,0.936
2674.0,3.567,-1.205,4.652,0.665,0.686,0.936
2678.0,3.567,-1.205,4.652,0.665,0.686,0.936
2681.0,3.696,-0.783,4.345,0.7,0.862,1.135
2685.0,3.696,-0.783,4.345,0.7,0.862,1.135
2689.0,3.696,-0.783,4.141,0.7,0.862,1.135
2693.0,4.1,-0.436,4.141,0.749,1.075,1.362
2696.0,4.1,-0.436,4.141,0.749,1.075,1.362
2700.0,4.553,-0.245,3.933,0.804,1.329,1.602
2704.0,4.553,-0.245,3.933,0.804,1.329,1.602
2708.0,4.553,-0.245,3.933,0.804,1.329,1.602
2711.0,4.825,-0.279,3.708,0.855,1.648,1.825
2715.0,4.825,-0.279,3.708,0.855,1.648,1.825
2719.0,4.825,-0.246,3.577,0.855,1.648,1.825
2723.0,4.761,-0.246,3.577,0.899,2.03,2.016
2726.0,4.761,-0.246,3.577,0.899,2.03,2.016
2730.0,4.416,-0.169,3.949,0.943,2.459,2.178
2734.0,4.416,-0.169,3.949,0.943,2.459,2.178
2737.0,4.416,-0.169,3.949,0.943,2.459,2.178
2741.0,3.654,-0.146,4.692,0.995,2.896,2.321
2745.0,3.654,-0.146,4.692,0.995,2.896,2.321
2749.0,2.549,-0.266,5.435,0.995,2.896,2.321
2752.0,2.549,-0.266,5.435,1.055,3.274,2.458
2756.0,2.549,-0.266,5.435,1.055,3.274,2.458
2760.0,1.263,-0.523,6.08,1.124,3.574,2.578
2764.0,1.263,-0.523,6.08,1.124,3.574,2.578
2767.0,1.263,-0.523,6.08,1.124,3.574,2.578
2771.0,-0.02,-1.031,6.351,1.206,3.801,2.687
2775.0,-0.02,-1.031,6.351,1.206,3.801,2.687
2779.0,-1.087,-1.644,6.264,1.206,3.982,2.773
2783.0,-1.087,-1.644,6.264,1.289,3.982,2.773
2786.0,-1.087,-1.644,6.264,1.289,3.982,2.773
2790.0,-1.967,-2.373,5.757,1.363,4.17,2.812
2794.0,-1.967,-2.373,5.757,1.363,4.17,2.812
2798.0,-1.967,-2.973,5.069,1.363,4.17,2.812
2802.0,-2.946,-2.973,5.069,1.415,4.405,2.788
2805.0,-2.946,-2.973,5.069,1.415,4.405,2.788
2809.0,-4.21,-3.408,4.117,1.445,4.685,2.704
2813.0,-4.21,-3.408,4.117,1.445,4.685,2.704
2817.0,-4.21,-3.408,4.117,1.445,4.685,2.704
2821.0,-6.172,-3.373,2.929,1.481,4.953,2.588
2825.0,-6.172,-3.373,2.929,1.481,4.953,2.588
2828.0,-8.805,-3.734,3.257,1.563,5.015,2.496
2832.0,-8.805,-3.734,3.257,1.563,5.015,2.496
2836.0,-8.805,-3.734,3.257,1.563,5.015,2.496
2840.0,-10.278,-5.29,4.252,1.789,5.015,2.392
2844.0,-10.278,-5.29,4.252,1.789,5.015,2.392
2848.0,-10.883,-6.834,5.11,1.789,5.015,2.191
2852.0,-10.883,-6.834,5.11,2.256,5.015,2.191
2855.0,-10.883,-6.834,5.11,2.256,5.015,2.191
2859.0,-11.125,-7.859,5.369,2.958,5.015,1.86
2863.0,-11.125,-7.859,5.369,2.958,5.015,1.86
2867.0,-10.737,-8.453,4.253,2.958,5.015,1.86
2871.0,-10.737,-8.453,4.253,3.829,5.006,1.448
2875.0,-10.737,-8.453,4.253,3.829,5.006,1.448
2879.0,-10.065,-8.681,2.809,4.706,4.987,0.991
2883.0,-10.065,-8.681,2.809,4.706,4.987,0.991
2887.0,-9.564,-8.646,1.708,4.706,4.987,0.991
2890.0,-9.564,-8.646,1.708,4.993,5.011,0.457
2894.0,-9.564,-8.646,1.708,4.993,5.011,0.457
2898.0,-9.47,-7.92,0.242,4.995,5.015,-0.163
2902.0,-9.47,-7.92,0.242,4.995,5.015,-0.163
2906.0,-9.47,-7.92,0.242,4.995,5.015,-0.163
2910.0,-9.855,-6.623,-1.394,4.995,5.015,-0.806
2914.0,-9.855,-6.623,-1.394,4.995,5.015,-0.806
2918.0,-10.595,-5.297,-2.17,4.995,5.015,-1.435
2922.0,-10.595,-5.297,-2.17,4.995,5.015,-1.435
2926.0,-10.595,-5.297,-2.245,4.995,5.015,-1.435
2930.0,-11.605,-4.154,-2.245,4.995,5.015,-2.04
2934.0,-11.605,-4.154,-2.245,4.995,5.015,-2.04
2938.0,-12.981,-2.959,-2.244,4.995,5.015,-2.596
2942.0,-12.981,-2.959,-2.244,4.995,5.015,-2.596
2946.0,-14.321,-1.804,-2.087,4.995,5.015,-3.078
2950.0,-14.321,-1.804,-2.087,4.995,5.015,-3.078
2955.0,-14.321,-1.804,-2.087,4.995,5.015,-3.078
2959.0,-15.464,-0.532,-1.851,4.995,5.015,-3.471
2963.0,-15.464,-0.532,-1.851,4.995,5.015,-3.471
2967.0,-16.254,0.675,-1.512,4.995,4.952,-3.764
2971.0,-16.254,0.675,-1.512,4.995,4.952,-3.764
2975.0,-16.254,0.675,-1.512,4.995,4.952,-3.764
2979.0,-16.68,1.704,-0.783,4.995,4.752,-3.962
2983.0,-16.68,1.704,-0.783,4.995,4.752,-3.962
2987.0,-16.702,2.236,0.249,4.995,4.51,-4.097
2991.0,-16.702,2.236,0.249,4.995,4.51,-4.097
2995.0,-16.702,2.236,0.249,4.995,4.51,-4.097
2998.0,-16.643,2.6,1.223,4.995,4.23,-4.202
