deltaTime,Acc_X,Acc_Y,Acc_Z,Gyro_X,Gyro_Y,Gyro_Z
0.0,-8.776,-2.146,1.642,0.195,-0.527,0.299
3.0,-8.3,-2.055,1.838,0.167,-0.547,0.335
6.0,-8.3,-2.055,1.838,0.167,-0.547,0.335
9.0,-8.3,-2.055,1.838,0.167,-0.547,0.335
12.0,-8.954,-2.886,0.539,0.167,-0.502,0.348
15.0,-8.954,-2.886,0.539,0.127,-0.502,0.348
18.0,-8.954,-2.886,0.539,0.127,-0.502,0.348
21.0,-8.954,-2.886,-0.258,0.127,-0.502,0.348
24.0,-9.372,-2.495,-0.258,0.171,-0.39,0.327
27.0,-9.372,-2.495,-0.258,0.171,-0.39,0.327
30.0,-9.372,-2.495,-0.258,0.171,-0.39,0.327
33.0,-10.063,-2.716,-0.742,0.12,-0.227,0.313
36.0,-10.063,-2.716,-0.742,0.12,-0.227,0.313
40.0,-10.063,-2.716,-0.742,0.12,-0.227,0.313
44.0,-10.772,-2.682,-0.467,0.038,-0.05,0.278
48.0,-10.772,-2.682,-0.467,0.038,-0.05,0.278
52.0,-11.337,-2.566,0.716,-0.067,0.084,0.235
56.0,-11.337,-2.566,0.716,-0.067,0.084,0.235
60.0,-11.337,-2.566,0.716,-0.067,0.084,0.235
63.0,-11.718,-3.02,1.709,-0.179,0.162,0.187
67.0,-11.718,-3.02,1.709,-0.179,0.162,0.187
71.0,-11.293,-2.892,2.677,-0.179,0.147,0.132
75.0,-11.293,-2.892,2.677,-0.169,0.147,0.132
79.0,-11.293,-2.892,2.677,-0.169,0.147,0.132
83.0,-11.102,-2.9,2.788,-0.097,0.106,0.103
86.0,-11.102,-2.9,2.788,-0.097,0.106,0.103
90.0,-11.102,-1.846,4.363,-0.097,0.106,0.103
94.0,-10.294,-1.846,4.363,-0.022,0.031,0.109
98.0,-10.294,-1.846,4.363,-0.022,0.031,0.109
102.0,-10.018,-2.684,5.098,-0.014,0.021,0.129
106.0,-10.018,-2.684,5.098,-0.014,0.021,0.129
109.0,-10.018,-2.684,5.098,-0.014,0.021,0.129
113.0,-9.966,-3.005,4.271,0.134,-0.023,0.165
117.0,-9.966,-3.005,4.271,0.134,-0.023,0.165
121.0,-9.499,-2.287,3.454,0.301,-0.097,0.183
125.0,-9.499,-2.287,3.454,0.301,-0.097,0.183
129.0,-9.499,-2.287,3.454,0.301,-0.097,0.183
132.0,-9.185,-2.543,2.668,0.312,-0.137,0.191
136.0,-9.185,-2.543,2.668,0.312,-0.137,0.191
140.0,-9.185,-3.102,1.158,0.312,-0.134,0.177
144.0,-9.185,-3.102,1.158,0.375,-0.134,0.177
148.0,-9.185,-3.102,1.158,0.375,-0.134,0.177
152.0,-8.923,-2.95,0.388,0.502,-0.088,0.156
155.0,-8.923,-2.95,0.388,0.502,-0.088,0.156
159.0,-8.923,-2.95,0.113,0.502,-0.088,0.156
163.0,-8.844,-2.893,0.113,0.631,0.035,0.109
167.0,-8.844,-2.893,0.113,0.631,0.035,0.109
170.0,-8.601,-2.515,0.942,0.736,0.191,0.072
174.0,-8.601,-2.515,0.942,0.736,0.191,0.072
178.0,-8.601,-2.515,0.942,0.736,0.191,0.072
182.0,-9.029,-2.989,1.248,0.794,0.284,0.052
185.0,-9.029,-2.989,1.248,0.794,0.284,0.052
189.0,-9.089,-2.852,1.841,0.794,0.284,0.052
193.0,-9.089,-2.852,1.841,0.934,0.314,0.03
197.0,-9.089,-2.852,1.841,0.934,0.314,0.03
200.0,-8.974,-2.554,2.786,1.047,0.317,0.038
204.0,-8.974,-2.554,2.786,1.047,0.317,0.038
208.0,-8.974,-2.554,2.786,1.047,0.317,0.038
212.0,-9.169,-3.172,3.165,1.157,0.306,0.059
215.0,-9.169,-3.172,3.165,1.157,0.306,0.059
219.0,-8.738,-2.674,4.053,1.157,0.306,0.072
223.0,-8.738,-2.674,4.053,1.338,0.269,0.072
226.0,-8.738,-2.674,4.053,1.338,0.269,0.072
230.0,-8.619,-3.054,3.982,1.427,0.279,0.085
234.0,-8.619,-3.054,3.982,1.427,0.279,0.085
238.0,-8.619,-3.054,3.982,1.427,0.279,0.085
241.0,-8.825,-3.495,2.501,1.596,0.262,0.06
245.0,-8.825,-3.495,2.501,1.596,0.262,0.06
249.0,-9.084,-2.723,1.927,1.826,0.226,0.015
253.0,-9.084,-2.723,1.927,1.826,0.226,0.015
256.0,-9.084,-2.723,1.927,1.826,0.226,0.015
260.0,-9.322,-1.69,2.09,1.826,0.234,-0.01
264.0,-9.322,-1.69,2.09,1.826,0.234,-0.01
268.0,-9.322,-1.69,2.024,1.826,0.234,-0.01
272.0,-9.741,-2.24,2.024,1.65,0.265,-0.049
275.0,-9.741,-2.24,2.024,1.65,0.265,-0.049
279.0,-10.014,-3.324,1.411,1.558,0.259,-0.047
283.0,-10.014,-3.324,1.411,1.558,0.259,-0.047
287.0,-10.014,-3.324,1.411,1.558,0.259,-0.047
291.0,-10.127,-3.642,1.618,1.592,0.218,-0.017
295.0,-10.127,-3.642,1.618,1.592,0.218,-0.017
299.0,-10.842,-3.873,1.892,1.695,0.223,-0.02
303.0,-10.842,-3.873,1.892,1.695,0.223,-0.02
307.0,-10.842,-3.873,1.892,1.695,0.223,-0.02
310.0,-11.978,-3.9,2.06,1.82,0.262,-0.066
314.0,-11.978,-3.9,2.06,1.82,0.262,-0.066
318.0,-12.316,-3.753,2.067,1.948,0.255,-0.107
322.0,-12.316,-3.753,2.067,1.948,0.255,-0.107
326.0,-12.316,-3.753,2.067,1.948,0.255,-0.107
330.0,-11.938,-3.227,1.889,2.035,0.177,-0.122
334.0,-11.938,-3.227,1.889,2.035,0.177,-0.122
338.0,-11.619,-3.107,1.785,2.054,0.09,-0.141
342.0,-11.619,-3.107,1.785,2.054,0.09,-0.141
346.0,-11.619,-3.107,1.785,2.054,0.09,-0.141
349.0,-11.416,-3.144,1.767,2.061,0.055,-0.182
353.0,-11.416,-3.144,1.767,2.061,0.055,-0.182
357.0,-11.024,-3.221,1.846,2.061,0.069,-0.234
361.0,-11.024,-3.221,1.846,2.075,0.069,-0.234
365.0,-11.024,-3.221,1.846,2.075,0.069,-0.234
369.0,-10.534,-3.399,1.885,2.105,0.095,-0.293
373.0,-10.534,-3.399,1.885,2.105,0.095,-0.293
377.0,-10.136,-3.678,1.932,2.105,0.095,-0.369
381.0,-10.136,-3.678,1.932,2.17,0.119,-0.369
385.0,-10.136,-3.678,1.932,2.17,0.119,-0.369
389.0,-9.754,-3.899,1.966,2.281,0.14,-0.474
392.0,-9.754,-3.899,1.966,2.281,0.14,-0.474
396.0,-9.754,-3.932,1.975,2.281,0.14,-0.474
400.0,-9.357,-3.932,1.975,2.433,0.157,-0.603
404.0,-9.357,-3.932,1.975,2.433,0.157,-0.603
408.0,-9.108,-4.012,2.052,2.609,0.174,-0.73
411.0,-9.108,-4.012,2.052,2.609,0.174,-0.73
415.0,-9.108,-4.012,2.052,2.609,0.174,-0.73
419.0,-9.107,-4.274,2.198,2.8,0.19,-0.844
423.0,-9.107,-4.274,2.198,2.8,0.19,-0.844
427.0,-9.069,-4.607,2.352,3.008,0.204,-0.947
431.0,-9.069,-4.607,2.352,3.008,0.204,-0.947
434.0,-9.069,-4.607,2.352,3.008,0.204,-0.947
438.0,-8.991,-4.983,2.388,3.225,0.196,-1.042
442.0,-8.991,-4.983,2.388,3.225,0.196,-1.042
446.0,-8.889,-5.079,2.249,3.225,0.196,-1.042
450.0,-8.889,-5.079,2.249,3.436,0.167,-1.132
453.0,-8.889,-5.079,2.249,3.436,0.167,-1.132
457.0,-8.781,-5.007,2.088,3.617,0.128,-1.199
461.0,-8.781,-5.007,2.088,3.617,0.128,-1.199
465.0,-8.781,-5.007,2.088,3.617,0.128,-1.199
469.0,-8.818,-4.88,2.01,3.749,0.085,-1.239
473.0,-8.818,-4.88,2.01,3.749,0.085,-1.239
476.0,-9.004,-4.816,2.016,3.828,0.039,-1.26
480.0,-9.004,-4.816,2.016,3.828,0.039,-1.26
484.0,-9.004,-4.816,2.016,3.828,0.039,-1.26
488.0,-9.146,-4.885,2.093,3.865,-0.019,-1.272
492.0,-9.146,-4.885,2.093,3.865,-0.019,-1.272
496.0,-9.222,-5.042,2.209,3.867,-0.094,-1.285
500.0,-9.222,-5.042,2.209,3.867,-0.094,-1.285
503.0,-9.222,-5.042,2.209,3.867,-0.094,-1.285
507.0,-9.433,-5.461,2.422,3.841,-0.175,-1.314
511.0,-9.433,-5.461,2.422,3.841,-0.175,-1.314
515.0,-9.536,-5.845,2.619,3.841,-0.253,-1.376
519.0,-9.536,-5.845,2.619,3.813,-0.253,-1.376
523.0,-9.536,-5.845,2.619,3.813,-0.253,-1.376
527.0,-9.399,-6.171,2.782,3.808,-0.335,-1.47
531.0,-9.399,-6.171,2.782,3.808,-0.335,-1.47
535.0,-9.242,-6.303,2.958,3.808,-0.335,-1.47
539.0,-9.242,-6.303,2.958,3.845,-0.425,-1.594
543.0,-9.242,-6.303,2.958,3.845,-0.425,-1.594
546.0,-9.127,-6.14,2.995,3.927,-0.518,-1.732
550.0,-9.127,-6.14,2.995,3.927,-0.518,-1.732
554.0,-9.126,-5.804,2.952,3.927,-0.518,-1.732
558.0,-9.126,-5.804,2.952,4.034,-0.603,-1.858
562.0,-9.126,-5.804,2.952,4.034,-0.603,-1.858
566.0,-9.308,-5.508,2.939,4.143,-0.672,-1.951
570.0,-9.308,-5.508,2.939,4.143,-0.672,-1.951
574.0,-9.308,-5.508,2.965,4.143,-0.672,-1.951
578.0,-9.52,-5.263,2.965,4.239,-0.731,-2.004
582.0,-9.52,-5.263,2.965,4.239,-0.731,-2.004
586.0,-9.645,-5.189,2.953,4.314,-0.789,-2.021
589.0,-9.645,-5.189,2.953,4.314,-0.789,-2.021
593.0,-9.645,-5.189,2.953,4.314,-0.789,-2.021
597.0,-9.763,-5.237,3.092,4.373,-0.855,-2.011
601.0,-9.763,-5.237,3.092,4.373,-0.855,-2.011
605.0,-10.024,-5.486,3.334,4.421,-0.939,-1.996
609.0,-10.024,-5.486,3.334,4.421,-0.939,-1.996
613.0,-10.024,-5.486,3.334,4.421,-0.939,-1.996
617.0,-10.321,-5.87,3.443,4.464,-1.042,-2.002
621.0,-10.321,-5.87,3.443,4.464,-1.042,-2.002
625.0,-10.526,-6.248,3.622,4.505,-1.148,-2.042
629.0,-10.526,-6.248,3.622,4.505,-1.148,-2.042
633.0,-10.526,-6.248,3.822,4.505,-1.148,-2.042
637.0,-10.612,-6.471,3.822,4.548,-1.252,-2.129
641.0,-10.612,-6.471,3.822,4.548,-1.252,-2.129
645.0,-10.477,-6.251,3.82,4.601,-1.354,-2.261
649.0,-10.477,-6.251,3.82,4.601,-1.354,-2.261
653.0,-10.336,-5.722,3.749,4.601,-1.354,-2.261
657.0,-10.336,-5.722,3.749,4.66,-1.439,-2.403
661.0,-10.336,-5.722,3.749,4.66,-1.439,-2.403
665.0,-10.276,-5.13,3.631,4.706,-1.489,-2.512
669.0,-10.276,-5.13,3.631,4.706,-1.489,-2.512
673.0,-10.109,-4.457,3.546,4.706,-1.489,-2.512
677.0,-10.109,-4.457,3.546,4.721,-1.503,-2.566
681.0,-10.109,-4.457,3.546,4.721,-1.503,-2.566
685.0,-9.856,-3.728,3.548,4.704,-1.5,-2.558
689.0,-9.856,-3.728,3.548,4.704,-1.5,-2.558
693.0,-9.812,-3.159,3.843,4.704,-1.5,-2.489
697.0,-9.812,-3.159,3.843,4.671,-1.494,-2.489
701.0,-9.812,-3.159,3.843,4.671,-1.494,-2.489
704.0,-10.109,-2.596,4.56,4.627,-1.504,-2.362
708.0,-10.109,-2.596,4.56,4.627,-1.504,-2.362
712.0,-10.445,-2.013,5.213,4.627,-1.504,-2.362
716.0,-10.445,-2.013,5.213,4.569,-1.58,-2.18
720.0,-10.445,-2.013,5.213,4.569,-1.58,-2.18
724.0,-10.606,-1.565,5.549,4.498,-1.745,-1.959
728.0,-10.606,-1.565,5.549,4.498,-1.745,-1.959
732.0,-10.845,-1.262,5.913,4.498,-1.95,-1.724
736.0,-10.845,-1.262,5.913,4.426,-1.95,-1.724
740.0,-10.845,-1.262,5.913,4.426,-1.95,-1.724
744.0,-11.066,-0.965,6.23,4.354,-2.141,-1.496
748.0,-11.066,-0.965,6.23,4.354,-2.141,-1.496
752.0,-11.13,-0.505,6.711,4.277,-2.296,-1.283
756.0,-11.13,-0.505,6.711,4.277,-2.296,-1.283
760.0,-11.13,-0.505,6.711,4.277,-2.296,-1.283
764.0,-11.297,0.098,7.45,4.196,-2.426,-1.071
768.0,-11.297,0.098,7.45,4.196,-2.426,-1.071
772.0,-11.51,0.765,8.23,4.127,-2.548,-0.842
776.0,-11.51,0.765,8.23,4.127,-2.548,-0.842
780.0,-11.51,0.765,8.23,4.127,-2.548,-0.842
784.0,-11.478,1.291,8.611,4.075,-2.665,-0.589
788.0,-11.478,1.291,8.611,4.075,-2.665,-0.589
792.0,-11.255,1.81,8.923,4.075,-2.756,-0.323
796.0,-11.255,1.81,8.923,4.035,-2.756,-0.323
799.0,-11.255,1.81,8.923,4.035,-2.756,-0.323
803.0,-11.122,2.578,9.248,3.989,-2.82,-0.052
807.0,-11.122,2.578,9.248,3.989,-2.82,-0.052
811.0,-10.842,3.438,9.02,3.989,-2.82,0.2
815.0,-10.842,3.438,9.02,3.922,-2.876,0.2
819.0,-10.842,3.438,9.02,3.922,-2.876,0.2
823.0,-9.918,4.347,9.338,3.813,-2.924,0.402
826.0,-9.918,4.347,9.338,3.813,-2.924,0.402
830.0,-9.918,4.347,9.338,3.813,-2.924,0.402
834.0,-9.858,5.176,8.927,3.624,-2.976,0.556
838.0,-9.858,5.176,8.927,3.624,-2.976,0.556
841.0,-9.444,5.989,9.083,3.322,-2.954,0.714
845.0,-9.444,5.989,9.083,3.322,-2.954,0.714
849.0,-9.444,5.989,9.083,3.322,-2.954,0.714
853.0,-9.034,6.382,9.336,2.925,-2.92,0.856
856.0,-9.034,6.382,9.336,2.925,-2.92,0.856
860.0,-9.034,6.382,9.422,2.925,-2.92,0.856
864.0,-8.848,6.648,9.422,2.492,-2.909,0.945
867.0,-8.848,6.648,9.422,2.492,-2.909,0.945
871.0,-8.568,6.489,9.514,2.074,-2.935,1.008
875.0,-8.568,6.489,9.514,2.074,-2.935,1.008
879.0,-8.568,6.489,9.514,2.074,-2.935,1.008
882.0,-8.097,6.072,9.485,1.701,-2.972,1.076
886.0,-8.097,6.072,9.485,1.701,-2.972,1.076
890.0,-8.097,5.68,9.66,1.701,-2.972,1.076
894.0,-7.61,5.68,9.66,1.407,-2.975,1.167
897.0,-7.61,5.68,9.66,1.407,-2.975,1.167
901.0,-7.512,5.087,9.921,1.218,-2.949,1.293
905.0,-7.512,5.087,9.921,1.218,-2.949,1.293
909.0,-7.512,5.087,9.921,1.218,-2.949,1.293
912.0,-7.308,4.032,10.495,1.125,-2.922,1.429
916.0,-7.308,4.032,10.495,1.125,-2.922,1.429
920.0,-6.977,2.94,10.9,1.125,-2.922,1.527
924.0,-6.977,2.94,10.9,1.134,-2.902,1.527
928.0,-6.977,2.94,10.9,1.134,-2.902,1.527
931.0,-6.519,1.976,11.012,1.237,-2.877,1.58
935.0,-6.519,1.976,11.012,1.237,-2.877,1.58
939.0,-6.519,1.976,11.044,1.237,-2.877,1.58
943.0,-6.13,1.384,11.044,1.419,-2.841,1.576
947.0,-6.13,1.384,11.044,1.419,-2.841,1.576
950.0,-5.923,1.597,10.741,1.679,-2.82,1.52
954.0,-5.923,1.597,10.741,1.679,-2.82,1.52
958.0,-5.923,1.597,10.741,1.679,-2.82,1.52
962.0,-5.389,2.183,10.031,1.989,-2.811,1.489
966.0,-5.389,2.183,10.031,1.989,-2.811,1.489
970.0,-4.622,2.575,9.427,2.27,-2.775,1.549
973.0,-4.622,2.575,9.427,2.27,-2.775,1.549
977.0,-4.622,2.575,9.427,2.27,-2.775,1.549
981.0,-4.174,2.347,8.861,2.481,-2.695,1.672
984.0,-4.174,2.347,8.861,2.481,-2.695,1.672
988.0,-4.174,2.347,8.861,2.481,-2.695,1.672
992.0,-3.895,2.09,8.416,2.643,-2.6,1.761
996.0,-3.895,2.09,8.416,2.643,-2.6,1.761
999.0,-3.619,2.357,8.039,2.771,-2.501,1.803
1003.0,-3.619,2.357,8.039,2.771,-2.501,1.803
1007.0,-3.619,2.357,8.039,2.771,-2.501,1.803
1011.0,-3.377,2.895,7.774,2.836,-2.372,1.882
1015.0,-3.377,2.895,7.774,2.836,-2.372,1.882
1018.0,-3.063,3.364,7.717,2.836,-2.372,1.882
1022.0,-3.063,3.364,7.717,2.807,-2.194,2.019
1026.0,-3.063,3.364,7.717,2.807,-2.194,2.019
1030.0,-3.242,4.472,7.829,2.724,-1.987,2.144
1034.0,-3.242,4.472,7.829,2.724,-1.987,2.144
1038.0,-3.242,4.472,7.829,2.724,-1.987,2.144
1041.0,-3.751,5.813,7.755,2.629,-1.798,2.266
1045.0,-3.751,5.813,7.755,2.629,-1.798,2.266
1049.0,-3.97,6.918,7.506,2.514,-1.641,2.404
1053.0,-3.97,6.918,7.506,2.514,-1.641,2.404
1057.0,-3.97,6.918,7.506,2.514,-1.641,2.404
1060.0,-3.871,7.494,7.095,2.374,-1.486,2.533
1064.0,-3.871,7.494,7.095,2.374,-1.486,2.533
1068.0,-3.693,7.78,6.658,2.374,-1.305,2.626
1072.0,-3.693,7.78,6.658,2.228,-1.305,2.626
1076.0,-3.693,7.78,6.658,2.228,-1.305,2.626
1080.0,-3.705,8.212,6.581,2.101,-1.089,2.694
1083.0,-3.705,8.212,6.581,2.101,-1.089,2.694
1087.0,-3.705,8.776,6.917,2.101,-1.089,2.694
1091.0,-4.066,8.776,6.917,2.008,-0.885,2.768
1095.0,-4.066,8.776,6.917,2.008,-0.885,2.768
1099.0,-4.584,9.153,7.28,1.939,-0.73,2.902
1102.0,-4.584,9.153,7.28,1.939,-0.73,2.902
1106.0,-4.584,9.153,7.28,1.939,-0.73,2.902
1110.0,-4.809,9.322,7.702,1.88,-0.607,3.107
1114.0,-4.809,9.322,7.702,1.88,-0.607,3.107
1118.0,-4.824,9.489,8.037,1.845,-0.498,3.338
1122.0,-4.824,9.489,8.037,1.845,-0.498,3.338
1125.0,-4.824,9.489,8.037,1.845,-0.498,3.338
1129.0,-4.741,9.785,8.363,1.842,-0.386,3.561
1133.0,-4.741,9.785,8.363,1.842,-0.386,3.561
1137.0,-4.617,9.776,8.701,1.842,-0.386,3.561
1141.0,-4.617,9.776,8.701,1.848,-0.269,3.793
1144.0,-4.617,9.776,8.701,1.848,-0.269,3.793
1148.0,-4.36,9.372,9.092,1.845,-0.151,4.024
1152.0,-4.36,9.372,9.092,1.845,-0.151,4.024
1156.0,-4.36,9.372,9.092,1.845,-0.151,4.024
1160.0,-4.037,8.827,9.776,1.843,-0.041,4.222
1164.0,-4.037,8.827,9.776,1.843,-0.041,4.222
1167.0,-3.837,7.915,10.712,1.854,0.031,4.372
1171.0,-3.837,7.915,10.712,1.854,0.031,4.372
1175.0,-3.837,7.915,10.712,1.854,0.031,4.372
1179.0,-3.452,6.765,11.481,1.886,0.061,4.449
1183.0,-3.452,6.765,11.481,1.886,0.061,4.449
1186.0,-2.674,5.663,12.009,1.886,0.069,4.422
1190.0,-2.674,5.663,12.009,1.954,0.069,4.422
1194.0,-2.674,5.663,12.009,1.954,0.069,4.422
1198.0,-2.02,4.726,12.074,2.059,0.052,4.313
1202.0,-2.02,4.726,12.074,2.059,0.052,4.313
1206.0,-2.02,4.726,11.751,2.059,0.052,4.313
1209.0,-1.701,4.202,11.751,2.179,0.025,4.182
1213.0,-1.701,4.202,11.751,2.179,0.025,4.182
1217.0,-1.657,4.213,10.978,2.301,0.008,4.104
1221.0,-1.657,4.213,10.978,2.301,0.008,4.104
1225.0,-1.657,4.213,10.978,2.301,0.008,4.104
1228.0,-1.42,4.428,9.914,2.395,0.015,4.12
1232.0,-1.42,4.428,9.914,2.395,0.015,4.12
1236.0,-1.079,4.817,9.094,2.395,0.039,4.197
1240.0,-1.079,4.817,9.094,2.43,0.039,4.197
1243.0,-1.079,4.817,9.094,2.43,0.039,4.197
1247.0,-0.98,5.091,8.198,2.387,0.052,4.31
1251.0,-0.98,5.091,8.198,2.387,0.052,4.31
1255.0,-0.98,5.091,8.198,2.387,0.052,4.31
1258.0,-0.94,5.257,7.308,2.251,0.052,4.422
1262.0,-0.94,5.257,7.308,2.251,0.052,4.422
1266.0,-0.849,5.346,6.692,2.03,0.036,4.504
1270.0,-0.849,5.346,6.692,2.03,0.036,4.504
1273.0,-0.849,5.346,6.692,2.03,0.036,4.504
1277.0,-0.918,5.174,6.126,1.749,0.001,4.563
1281.0,-0.918,5.174,6.126,1.749,0.001,4.563
1284.0,-0.918,5.174,5.641,1.749,0.001,4.563
1288.0,-1.134,4.947,5.641,1.424,-0.044,4.627
1292.0,-1.134,4.947,5.641,1.424,-0.044,4.627
1296.0,-1.325,4.834,5.237,1.079,-0.089,4.721
1300.0,-1.325,4.834,5.237,1.079,-0.089,4.721
1303.0,-1.325,4.834,5.237,1.079,-0.089,4.721
1307.0,-1.464,4.543,4.799,0.735,-0.138,4.846
1311.0,-1.464,4.543,4.799,0.735,-0.138,4.846
1315.0,-1.584,4.223,4.126,0.735,-0.18,4.97
1319.0,-1.584,4.223,4.126,0.394,-0.18,4.97
1323.0,-1.584,4.223,4.126,0.394,-0.18,4.97
1326.0,-1.527,3.894,3.288,0.04,-0.198,5.012
1330.0,-1.527,3.894,3.288,0.04,-0.198,5.012
1334.0,-1.527,3.43,2.585,0.04,-0.198,5.012
1338.0,-1.231,3.43,2.585,-0.334,-0.183,5.013
1342.0,-1.231,3.43,2.585,-0.334,-0.183,5.013
1346.0,-0.644,2.67,2.307,-0.733,-0.148,5.013
1350.0,-0.644,2.67,2.307,-0.733,-0.148,5.013
1353.0,-0.644,2.67,2.387,-0.733,-0.148,5.013
1357.0,0.108,1.784,2.387,-1.157,-0.128,5.013
1361.0,0.108,1.784,2.387,-1.157,-0.128,5.013
1365.0,0.545,0.749,2.219,-1.597,-0.12,5.013
1369.0,0.545,0.749,2.219,-1.597,-0.12,5.013
1373.0,0.545,0.749,2.219,-1.597,-0.12,5.013
1376.0,0.623,-0.233,1.705,-2.04,-0.079,5.013
1380.0,0.623,-0.233,1.705,-2.04,-0.079,5.013
1384.0,0.433,-0.995,1.257,-2.476,0.01,5.013
1388.0,0.433,-0.995,1.257,-2.476,0.01,5.013
1392.0,0.433,-0.995,1.257,-2.476,0.01,5.013
1396.0,0.169,-1.792,1.057,-2.895,0.116,5.013
1400.0,0.169,-1.792,1.057,-2.895,0.116,5.013
1403.0,-0.311,-2.694,0.982,-2.895,0.116,5.013
1407.0,-0.311,-2.694,0.982,-3.278,0.194,5.013
1411.0,-0.311,-2.694,0.982,-3.278,0.194,5.013
1415.0,-0.911,-3.843,1.134,-3.606,0.224,5.013
1419.0,-0.911,-3.843,1.134,-3.606,0.224,5.013
1423.0,-1.444,-5.627,1.872,-3.606,0.224,5.013
1427.0,-1.444,-5.627,1.872,-3.857,0.189,5.013
1431.0,-1.444,-5.627,1.872,-3.857,0.189,5.013
1435.0,-1.866,-7.683,2.646,-3.988,0.063,4.965
1439.0,-1.866,-7.683,2.646,-3.988,0.063,4.965
1442.0,-1.866,-7.683,2.573,-3.988,0.063,4.965
1446.0,-2.137,-9.404,2.573,-3.945,-0.133,4.686
1450.0,-2.137,-9.404,2.573,-3.945,-0.133,4.686
1454.0,-2.161,-10.622,1.935,-3.73,-0.337,4.33
1458.0,-2.161,-10.622,1.935,-3.73,-0.337,4.33
1462.0,-2.122,-10.918,0.93,-3.73,-0.337,4.33
1467.0,-2.122,-10.918,0.93,-3.41,-0.502,4.018
1471.0,-2.122,-10.918,0.93,-3.41,-0.502,4.018
1475.0,-1.961,-10.784,-0.064,-3.082,-0.598,3.793
1479.0,-1.961,-10.784,-0.064,-3.082,-0.598,3.793
1483.0,-1.155,-10.818,-0.584,-2.82,-0.655,3.593
1487.0,-1.155,-10.818,-0.584,-2.82,-0.655,3.593
1491.0,-1.155,-10.818,-0.584,-2.82,-0.655,3.593
1496.0,0.5,-11.449,-0.616,-2.61,-0.735,3.345
1500.0,0.5,-11.449,-0.616,-2.61,-0.735,3.345
1504.0,2.384,-12.453,-0.584,-2.35,-0.835,3.05
1508.0,2.384,-12.453,-0.584,-2.35,-0.835,3.05
1512.0,3.881,-13.41,-0.495,-2.35,-0.835,3.05
1516.0,3.881,-13.41,-0.495,-2.012,-0.893,2.729
1520.0,3.881,-13.41,-0.495,-2.012,-0.893,2.729
1524.0,5.041,-14.037,-0.345,-1.64,-0.889,2.387
1528.0,5.041,-14.037,-0.345,-1.64,-0.889,2.387
1532.0,5.983,-14.274,-0.083,-1.271,-0.84,2.036
1536.0,5.983,-14.274,-0.083,-1.271,-0.84,2.036
1540.0,5.983,-14.274,-0.083,-1.271,-0.84,2.036
1545.0,6.575,-14.084,0.209,-0.928,-0.757,1.699
1549.0,6.575,-14.084,0.209,-0.928,-0.757,1.699
1553.0,6.784,-13.61,0.442,-0.639,-0.655,1.4
1557.0,6.784,-13.61,0.442,-0.639,-0.655,1.4
1560.0,6.784,-13.61,0.442,-0.639,-0.655,1.4
1564.0,6.842,-13.021,0.593,-0.409,-0.57,1.145
1568.0,6.842,-13.021,0.593,-0.409,-0.57,1.145
1572.0,6.906,-12.349,0.704,-0.234,-0.516,0.931
1576.0,6.906,-12.349,0.704,-0.234,-0.516,0.931
1580.0,6.906,-12.349,0.704,-0.234,-0.516,0.931
1584.0,7.005,-11.708,0.834,-0.115,-0.47,0.756
1588.0,7.005,-11.708,0.834,-0.115,-0.47,0.756
1592.0,7.139,-11.166,0.839,-0.052,-0.419,0.617
1596.0,7.139,-11.166,0.839,-0.052,-0.419,0.617
1600.0,7.139,-11.166,0.791,-0.052,-0.419,0.617
1604.0,7.387,-10.616,0.791,-0.033,-0.377,0.496
1608.0,7.387,-10.616,0.791,-0.033,-0.377,0.496
1612.0,7.817,-10.001,0.804,-0.041,-0.351,0.377
1616.0,7.817,-10.001,0.804,-0.041,-0.351,0.377
1620.0,8.328,-9.488,1.022,-0.041,-0.351,0.377
1624.0,8.328,-9.488,1.022,-0.062,-0.324,0.274
1628.0,8.328,-9.488,1.022,-0.062,-0.324,0.274
1632.0,8.62,-9.04,1.174,-0.09,-0.286,0.198
1636.0,8.62,-9.04,1.174,-0.09,-0.286,0.198
1640.0,8.62,-9.04,1.261,-0.09,-0.286,0.198
1644.0,8.67,-8.634,1.261,-0.113,-0.244,0.139
1648.0,8.67,-8.634,1.261,-0.113,-0.244,0.139
1652.0,8.834,-8.491,1.58,-0.115,-0.223,0.088
1656.0,8.834,-8.491,1.58,-0.115,-0.223,0.088
1659.0,8.834,-8.491,1.58,-0.115,-0.223,0.088
1663.0,8.663,-8.554,1.707,-0.094,-0.192,0.055
1667.0,8.663,-8.554,1.707,-0.094,-0.192,0.055
1671.0,7.972,-8.55,1.629,-0.043,-0.114,0.026
1675.0,7.972,-8.55,1.629,-0.043,-0.114,0.026
1679.0,7.972,-8.55,1.629,-0.043,-0.114,0.026
1683.0,7.573,-8.395,1.972,0.046,-0.055,-0.014
1687.0,7.573,-8.395,1.972,0.046,-0.055,-0.014
1691.0,7.606,-8.238,2.261,0.157,-0.058,-0.037
1695.0,7.606,-8.238,2.261,0.157,-0.058,-0.037
1699.0,7.606,-8.238,2.261,0.157,-0.058,-0.037
1702.0,7.375,-8.1,2.227,0.28,-0.039,-0.024
1706.0,7.375,-8.1,2.227,0.28,-0.039,-0.024
1710.0,7.021,-7.817,2.277,0.421,-0.003,-0.004
1714.0,7.021,-7.817,2.277,0.421,-0.003,-0.004
1718.0,7.021,-7.817,2.277,0.421,-0.003,-0.004
1722.0,7.128,-7.463,2.647,0.568,-0.015,0.004
1726.0,7.128,-7.463,2.647,0.568,-0.015,0.004
1730.0,7.418,-7.084,2.616,0.703,-0.05,0.022
1733.0,7.418,-7.084,2.616,0.703,-0.05,0.022
1737.0,7.418,-7.084,2.616,0.703,-0.05,0.022
1741.0,7.5,-6.712,2.508,0.824,-0.037,0.053
1745.0,7.5,-6.712,2.508,0.824,-0.037,0.053
1749.0,7.647,-6.468,2.947,0.824,-0.037,0.053
1753.0,7.647,-6.468,2.947,0.929,0.003,0.089
1756.0,7.647,-6.468,2.947,0.929,0.003,0.089
1760.0,7.834,-6.381,3.369,1.026,0.018,0.142
1764.0,7.834,-6.381,3.369,1.026,0.018,0.142
1767.0,7.834,-6.381,3.369,1.026,0.018,0.142
1771.0,7.673,-6.285,3.357,1.121,0.022,0.2
1775.0,7.673,-6.285,3.357,1.121,0.022,0.2
1779.0,7.429,-6.218,3.455,1.121,0.022,0.24
1782.0,7.429,-6.218,3.455,1.211,0.028,0.24
1786.0,7.429,-6.218,3.455,1.211,0.028,0.24
1790.0,7.289,-6.035,3.441,1.285,0.021,0.264
1794.0,7.289,-6.035,3.441,1.285,0.021,0.264
1797.0,7.289,-6.035,3.441,1.285,0.021,0.264
1801.0,7.047,-5.709,3.217,1.333,0.015,0.28
1805.0,7.047,-5.709,3.217,1.333,0.015,0.28
1809.0,6.837,-5.317,3.139,1.354,0.032,0.291
1812.0,6.837,-5.317,3.139,1.354,0.032,0.291
1816.0,6.837,-5.317,3.139,1.354,0.032,0.291
1820.0,6.509,-4.993,3.165,1.337,0.068,0.317
1823.0,6.509,-4.993,3.165,1.337,0.068,0.317
1827.0,6.509,-4.993,3.165,1.337,0.068,0.317
1831.0,6.112,-4.767,3.188,1.292,0.1,0.364
1835.0,6.112,-4.767,3.188,1.292,0.1,0.364
1838.0,5.732,-4.595,3.281,1.232,0.119,0.414
1842.0,5.732,-4.595,3.281,1.232,0.119,0.414
1846.0,5.732,-4.595,3.281,1.232,0.119,0.414
1850.0,5.31,-4.427,3.217,1.161,0.131,0.457
1853.0,5.31,-4.427,3.217,1.161,0.131,0.457
1857.0,5.31,-4.427,3.051,1.161,0.131,0.457
1861.0,4.854,-4.127,3.051,1.075,0.152,0.492
1864.0,4.854,-4.127,3.051,1.075,0.152,0.492
1868.0,4.597,-3.832,3.022,0.96,0.18,0.517
1872.0,4.597,-3.832,3.022,0.96,0.18,0.517
1876.0,4.597,-3.832,3.022,0.96,0.18,0.517
1879.0,4.61,-3.538,3.052,0.824,0.2,0.53
1883.0,4.61,-3.538,3.052,0.824,0.2,0.53
1887.0,4.823,-3.174,3.029,0.824,0.2,0.53
1891.0,4.823,-3.174,3.029,0.683,0.21,0.546
1894.0,4.823,-3.174,3.029,0.683,0.21,0.546
1898.0,5.167,-2.831,2.983,0.552,0.236,0.582
1902.0,5.167,-2.831,2.983,0.552,0.236,0.582
1906.0,5.167,-2.831,2.983,0.552,0.236,0.582
1909.0,5.541,-2.248,2.751,0.448,0.291,0.667
1913.0,5.541,-2.248,2.751,0.448,0.291,0.667
1917.0,6.029,-1.688,2.66,0.448,0.291,0.828
1920.0,6.029,-1.688,2.66,0.38,0.378,0.828
1924.0,6.029,-1.688,2.66,0.38,0.378,0.828
1928.0,6.558,-1.469,2.861,0.35,0.483,1.071
1932.0,6.558,-1.469,2.861,0.35,0.483,1.071
1935.0,6.558,-1.469,2.861,0.35,0.483,1.071
1939.0,6.892,-1.476,2.891,0.365,0.603,1.368
1943.0,6.892,-1.476,2.891,0.365,0.603,1.368
1947.0,6.778,-1.673,2.767,0.365,0.763,1.672
1950.0,6.778,-1.673,2.767,0.424,0.763,1.672
1954.0,6.778,-1.673,2.767,0.424,0.763,1.672
1958.0,6.368,-2.06,2.767,0.509,0.947,1.939
1962.0,6.368,-2.06,2.767,0.509,0.947,1.939
1965.0,6.368,-2.06,2.767,0.509,0.947,1.939
1969.0,5.679,-2.634,2.764,0.605,1.123,2.156
1973.0,5.679,-2.634,2.764,0.605,1.123,2.156
1976.0,4.726,-3.133,2.448,0.705,1.291,2.314
1980.0,4.726,-3.133,2.448,0.705,1.291,2.314
1984.0,4.726,-3.133,2.448,0.705,1.291,2.314
1988.0,3.803,-3.471,2.497,0.815,1.469,2.412
1991.0,3.803,-3.471,2.497,0.815,1.469,2.412
1995.0,3.803,-3.471,2.733,0.815,1.469,2.412
1999.0,2.99,-3.752,2.733,0.937,1.623,2.463
2003.0,2.99,-3.752,2.733,0.937,1.623,2.463
2006.0,2.365,-3.934,2.598,1.068,1.736,2.48
2010.0,2.365,-3.934,2.598,1.068,1.736,2.48
2014.0,2.365,-3.934,2.598,1.068,1.736,2.48
2018.0,1.81,-3.966,2.307,1.208,1.846,2.474
2021.0,1.81,-3.966,2.307,1.208,1.846,2.474
2025.0,1.81,-3.949,2.273,1.208,1.846,2.474
2029.0,1.257,-3.949,2.273,1.362,1.983,2.453
2032.0,1.257,-3.949,2.273,1.362,1.983,2.453
2036.0,0.762,-4.08,2.556,1.544,2.118,2.427
2040.0,0.762,-4.08,2.556,1.544,2.118,2.427
2044.0,0.762,-4.08,2.556,1.544,2.118,2.427
2047.0,0.404,-4.343,2.719,1.758,2.211,2.396
2051.0,0.404,-4.343,2.719,1.758,2.211,2.396
2055.0,0.121,-4.563,2.563,1.758,2.211,2.396
2059.0,0.121,-4.563,2.563,2.002,2.284,2.346
2062.0,0.121,-4.563,2.563,2.002,2.284,2.346
2066.0,-0.148,-4.74,2.272,2.266,2.378,2.263
2070.0,-0.148,-4.74,2.272,2.266,2.378,2.263
2074.0,-0.148,-4.74,2.272,2.266,2.378,2.263
2078.0,-0.419,-4.828,1.692,2.535,2.522,2.147
2081.0,-0.419,-4.828,1.692,2.535,2.522,2.147
2085.0,-0.829,-4.756,1.641,2.802,2.731,2.013
2089.0,-0.829,-4.756,1.641,2.802,2.731,2.013
2093.0,-0.829,-4.756,1.641,2.802,2.731,2.013
2097.0,-1.321,-4.643,2.207,3.07,2.948,1.889
2100.0,-1.321,-4.643,2.207,3.07,2.948,1.889
2104.0,-1.731,-4.396,2.291,3.07,2.948,1.889
2108.0,-1.731,-4.396,2.291,3.324,3.114,1.792
2112.0,-1.731,-4.396,2.291,3.324,3.114,1.792
2116.0,-2.086,-4.022,1.872,3.539,3.275,1.72
2120.0,-2.086,-4.022,1.872,3.539,3.275,1.72
2123.0,-2.086,-4.022,1.872,3.539,3.275,1.72
2127.0,-2.48,-3.675,1.134,3.695,3.498,1.66
2131.0,-2.48,-3.675,1.134,3.695,3.498,1.66
2135.0,-2.879,-3.437,0.519,3.798,3.805,1.597
2139.0,-2.879,-3.437,0.519,3.798,3.805,1.597
2142.0,-2.879,-3.437,0.519,3.798,3.805,1.597
2146.0,-3.364,-3.29,0.891,3.864,4.174,1.535
2150.0,-3.364,-3.29,0.891,3.864,4.174,1.535
2154.0,-3.775,-3.339,1.865,3.864,4.516,1.479
2158.0,-3.775,-3.339,1.865,3.923,4.516,1.479
2162.0,-3.775,-3.339,1.865,3.923,4.516,1.479
2165.0,-4.101,-3.376,2.524,3.985,4.789,1.416
2169.0,-4.101,-3.376,2.524,3.985,4.789,1.416
2173.0,-4.101,-3.376,2.478,3.985,4.789,1.416
2177.0,-4.446,-3.345,2.478,4.046,4.982,1.335
2181.0,-4.446,-3.345,2.478,4.046,4.982,1.335
2184.0,-4.875,-3.336,1.823,4.095,5.015,1.228
2188.0,-4.875,-3.336,1.823,4.095,5.015,1.228
2192.0,-4.875,-3.336,1.823,4.095,5.015,1.228
2196.0,-5.64,-3.334,1.112,4.134,5.015,1.087
2200.0,-5.64,-3.334,1.112,4.134,5.015,1.087
2204.0,-6.862,-3.321,1.223,4.167,5.015,0.908
2207.0,-6.862,-3.321,1.223,4.167,5.015,0.908
2211.0,-6.862,-3.321,1.223,4.167,5.015,0.908
2215.0,-8.378,-3.381,1.771,4.203,5.015,0.68
2219.0,-8.378,-3.381,1.771,4.203,5.015,0.68
2223.0,-10.309,-3.435,2.135,4.203,5.015,0.68
2227.0,-10.309,-3.435,2.135,4.253,5.015,0.401
2230.0,-10.309,-3.435,2.135,4.253,5.015,0.401
2234.0,-12.644,-3.397,2.456,4.316,5.015,0.103
2238.0,-12.644,-3.397,2.456,4.316,5.015,0.103
2242.0,-12.644,-3.472,2.748,4.316,5.015,0.103
2246.0,-15.162,-3.472,2.748,4.394,5.015,-0.179
2250.0,-15.162,-3.472,2.748,4.394,5.015,-0.179
2254.0,-16.861,-3.717,2.707,4.493,5.015,-0.445
2258.0,-16.861,-3.717,2.707,4.493,5.015,-0.445
2262.0,-17.444,-3.856,2.645,4.493,5.015,-0.445
2266.0,-17.444,-3.856,2.645,4.597,5.015,-0.708
2270.0,-17.444,-3.856,2.645,4.597,5.015,-0.708
2274.0,-17.485,-3.832,2.468,4.688,5.015,-0.979
2278.0,-17.485,-3.832,2.468,4.688,5.015,-0.979
2282.0,-17.618,-3.662,2.266,4.688,5.015,-1.275
2286.0,-17.618,-3.662,2.266,4.758,5.015,-1.275
2290.0,-17.618,-3.662,2.266,4.758,5.015,-1.275
2294.0,-18.054,-3.41,1.843,4.805,5.015,-1.598
2298.0,-18.054,-3.41,1.843,4.805,5.015,-1.598
2302.0,-18.834,-3.111,1.285,4.805,5.015,-1.921
2306.0,-18.834,-3.111,1.285,4.822,5.015,-1.921
2310.0,-18.834,-3.111,1.285,4.822,5.015,-1.921
2314.0,-19.522,-2.824,1.328,4.807,5.015,-2.226
2318.0,-19.522,-2.824,1.328,4.807,5.015,-2.226
2322.0,-19.6,-2.406,1.914,4.783,5.015,-2.519
2326.0,-19.6,-2.406,1.914,4.783,5.015,-2.519
2330.0,-19.6,-2.406,1.914,4.783,5.015,-2.519
2334.0,-19.6,-1.869,2.934,4.781,5.015,-2.793
2338.0,-19.6,-1.869,2.934,4.781,5.015,-2.793
2342.0,-19.6,-1.054,3.54,4.809,5.015,-3.021
2346.0,-19.6,-1.054,3.54,4.809,5.015,-3.021
2350.0,-19.6,-1.054,3.54,4.809,5.015,-3.021
2354.0,-19.6,0.112,3.634,4.839,5.013,-3.158
2358.0,-19.6,0.112,3.634,4.839,5.013,-3.158
2362.0,-19.6,1.739,3.736,4.786,4.815,-3.192
2366.0,-19.6,1.739,3.736,4.786,4.815,-3.192
2370.0,-19.6,1.739,3.736,4.786,4.815,-3.192
2373.0,-19.6,3.022,3.549,4.552,4.303,-3.171
2377.0,-19.6,3.022,3.549,4.552,4.303,-3.171
2381.0,-19.566,3.83,3.328,4.128,3.819,-3.149
2385.0,-19.566,3.83,3.328,4.128,3.819,-3.149
2389.0,-19.566,3.83,3.328,4.128,3.819,-3.149
2393.0,-19.357,4.356,3.324,3.569,3.412,-3.139
2397.0,-19.357,4.356,3.324,3.569,3.412,-3.139
2401.0,-18.902,4.549,3.304,3.569,3.055,-3.12
2405.0,-18.902,4.549,3.304,2.953,3.055,-3.12
2409.0,-18.902,4.549,3.304,2.953,3.055,-3.12
2412.0,-18.928,4.49,3.361,2.34,2.739,-3.072
2416.0,-18.928,4.49,3.361,2.34,2.739,-3.072
2420.0,-19.035,4.736,3.76,2.34,2.739,-2.978
2424.0,-19.035,4.736,3.76,1.758,2.455,-2.978
2428.0,-19.035,4.736,3.76,1.758,2.455,-2.978
2432.0,-18.2,4.84,3.829,1.22,2.161,-2.817
2436.0,-18.2,4.84,3.829,1.22,2.161,-2.817
2440.0,-17.216,4.72,3.65,1.22,2.161,-2.817
2444.0,-17.216,4.72,3.65,0.727,1.882,-2.622
2448.0,-17.216,4.72,3.65,0.727,1.882,-2.622
2452.0,-16.795,4.517,3.744,0.28,1.655,-2.421
2455.0,-16.795,4.517,3.744,0.28,1.655,-2.421
2459.0,-16.795,4.176,3.863,0.28,1.655,-2.421
2463.0,-16.612,4.176,3.863,-0.124,1.449,-2.211
2467.0,-16.612,4.176,3.863,-0.124,1.449,-2.211
2471.0,-16.083,3.769,3.943,-0.501,1.229,-1.98
2475.0,-16.083,3.769,3.943,-0.501,1.229,-1.98
2479.0,-15.357,3.27,3.846,-0.501,1.229,-1.98
2483.0,-15.357,3.27,3.846,-0.863,1.003,-1.722
2487.0,-15.357,3.27,3.846,-0.863,1.003,-1.722
2491.0,-14.719,2.688,3.592,-1.218,0.809,-1.444
2495.0,-14.719,2.688,3.592,-1.218,0.809,-1.444
2499.0,-14.038,2.108,3.313,-1.218,0.809,-1.159
2503.0,-14.038,2.108,3.313,-1.563,0.661,-1.159
2507.0,-14.038,2.108,3.313,-1.563,0.661,-1.159
2511.0,-13.419,1.521,3.064,-1.889,0.548,-0.893
2515.0,-13.419,1.521,3.064,-1.889,0.548,-0.893
2519.0,-13.08,1.021,2.804,-1.889,0.466,-0.67
2523.0,-13.08,1.021,2.804,-2.179,0.466,-0.67
2527.0,-13.08,1.021,2.804,-2.179,0.466,-0.67
2531.0,-12.888,0.631,2.601,-2.421,0.404,-0.493
2535.0,-12.888,0.631,2.601,-2.421,0.404,-0.493
2539.0,-12.619,0.31,2.609,-2.614,0.342,-0.353
2543.0,-12.619,0.31,2.609,-2.614,0.342,-0.353
2547.0,-12.619,0.31,2.609,-2.614,0.342,-0.353
2551.0,-12.382,0.222,2.729,-2.764,0.257,-0.244
2555.0,-12.382,0.222,2.729,-2.764,0.257,-0.244
2559.0,-11.973,0.111,2.754,-2.89,0.132,-0.149
2563.0,-11.973,0.111,2.754,-2.89,0.132,-0.149
2567.0,-11.973,0.111,2.754,-2.89,0.132,-0.149
2571.0,-11.617,0.065,2.679,-2.998,-0.015,-0.062
2575.0,-11.617,0.065,2.679,-2.998,-0.015,-0.062
2579.0,-11.082,-0.026,2.454,-3.094,-0.16,0.037
2583.0,-11.082,-0.026,2.454,-3.094,-0.16,0.037
2587.0,-11.082,-0.026,2.365,-3.094,-0.16,0.037
2591.0,-11.056,-0.489,2.365,-3.16,-0.297,0.144
2596.0,-11.056,-0.489,2.365,-3.16,-0.297,0.144
2600.0,-10.835,-0.893,2.105,-3.191,-0.45,0.223
2604.0,-10.835,-0.893,2.105,-3.191,-0.45,0.223
2608.0,-10.569,-1.147,1.731,-3.191,-0.45,0.278
2612.0,-10.569,-1.147,1.731,-3.202,-0.598,0.278
2616.0,-10.569,-1.147,1.731,-3.202,-0.598,0.278
2620.0,-10.659,-1.341,1.415,-3.203,-0.712,0.328
2624.0,-10.659,-1.341,1.415,-3.203,-0.712,0.328
2628.0,-11.088,-1.479,1.213,-3.202,-0.788,0.383
2632.0,-11.088,-1.479,1.213,-3.202,-0.788,0.383
2636.0,-11.088,-1.479,1.213,-3.202,-0.788,0.383
2640.0,-11.685,-1.601,1.099,-3.201,-0.839,0.453
2645.0,-11.685,-1.601,1.099,-3.201,-0.839,0.453
2649.0,-12.185,-1.823,1.031,-3.206,-0.878,0.543
2653.0,-12.185,-1.823,1.031,-3.206,-0.878,0.543
2657.0,-12.185,-2.109,1.117,-3.206,-0.878,0.543
2661.0,-12.433,-2.109,1.117,-3.213,-0.917,0.647
2665.0,-12.433,-2.109,1.117,-3.213,-0.917,0.647
2669.0,-12.123,-2.472,1.271,-3.206,-0.978,0.742
2673.0,-12.123,-2.472,1.271,-3.206,-0.978,0.742
2677.0,-11.469,-2.798,1.298,-3.206,-1.063,0.793
2681.0,-11.469,-2.798,1.298,-3.171,-1.063,0.793
2685.0,-11.469,-2.798,1.298,-3.171,-1.063,0.793
2689.0,-10.985,-2.868,1.238,-3.089,-1.157,0.776
2693.0,-10.985,-2.868,1.238,-3.089,-1.157,0.776
2698.0,-10.507,-2.749,0.891,-2.965,-1.24,0.698
2702.0,-10.507,-2.749,0.891,-2.965,-1.24,0.698
2706.0,-10.507,-2.749,0.891,-2.965,-1.24,0.698
2710.0,-10.017,-2.538,0.345,-2.81,-1.286,0.583
2714.0,-10.017,-2.538,0.345,-2.81,-1.286,0.583
2718.0,-9.686,-2.25,-0.046,-2.643,-1.272,0.463
2722.0,-9.686,-2.25,-0.046,-2.643,-1.272,0.463
2726.0,-9.571,-2.012,-0.073,-2.643,-1.272,0.463
2730.0,-9.571,-2.012,-0.073,-2.493,-1.209,0.367
2734.0,-9.571,-2.012,-0.073,-2.493,-1.209,0.367
2738.0,-9.62,-1.921,0.032,-2.373,-1.135,0.297
2742.0,-9.62,-1.921,0.032,-2.373,-1.135,0.297
2746.0,-9.495,-1.928,0.316,-2.266,-1.075,0.244
2750.0,-9.495,-1.928,0.316,-2.266,-1.075,0.244
2754.0,-9.495,-1.928,0.316,-2.266,-1.075,0.244
2758.0,-8.975,-2.02,0.569,-2.158,-1.056,0.187
2762.0,-8.975,-2.02,0.569,-2.158,-1.056,0.187
2766.0,-8.256,-2.082,0.603,-2.048,-1.078,0.088
2770.0,-8.256,-2.082,0.603,-2.048,-1.078,0.088
2774.0,-8.256,-2.082,0.603,-2.048,-1.078,0.088
2778.0,-7.734,-2.119,0.424,-1.923,-1.107,-0.052
2782.0,-7.734,-2.119,0.424,-1.923,-1.107,-0.052
2786.0,-7.564,-2.104,0.085,-1.781,-1.105,-0.213
2791.0,-7.564,-2.104,0.085,-1.781,-1.105,-0.213
2795.0,-7.564,-2.104,0.085,-1.781,-1.105,-0.213
2799.0,-7.64,-1.962,-0.256,-1.636,-1.054,-0.35
2803.0,-7.64,-1.962,-0.256,-1.636,-1.054,-0.35
2807.0,-7.987,-1.884,-0.527,-1.499,-0.958,-0.417
2811.0,-7.987,-1.884,-0.527,-1.499,-0.958,-0.417
2815.0,-8.742,-1.936,-0.635,-1.499,-0.827,-0.402
2820.0,-8.742,-1.936,-0.635,-1.378,-0.827,-0.402
2824.0,-8.742,-1.936,-0.635,-1.378,-0.827,-0.402
2828.0,-9.67,-2.096,-0.585,-1.27,-0.688,-0.319
2832.0,-9.67,-2.096,-0.585,-1.27,-0.688,-0.319
2836.0,-10.28,-2.34,-0.348,-1.166,-0.582,-0.183
2840.0,-10.28,-2.34,-0.348,-1.166,-0.582,-0.183
2845.0,-10.527,-2.597,-0.045,-1.166,-0.582,-0.025
2849.0,-10.527,-2.597,-0.045,-1.063,-0.546,-0.025
2853.0,-10.527,-2.597,-0.045,-1.063,-0.546,-0.025
2857.0,-10.602,-2.778,0.171,-0.956,-0.577,0.116
2862.0,-10.602,-2.778,0.171,-0.956,-0.577,0.116
2866.0,-10.669,-2.789,0.162,-0.844,-0.651,0.211
2870.0,-10.669,-2.789,0.162,-0.844,-0.651,0.211
2874.0,-10.669,-2.789,-0.089,-0.844,-0.651,0.211
2878.0,-10.817,-2.609,-0.089,-0.739,-0.73,0.26
2882.0,-10.817,-2.609,-0.089,-0.739,-0.73,0.26
2886.0,-10.835,-2.292,-0.42,-0.657,-0.778,0.291
2890.0,-10.835,-2.292,-0.42,-0.657,-0.778,0.291
2895.0,-10.703,-2.033,-0.724,-0.614,-0.775,0.332
2899.0,-10.703,-2.033,-0.724,-0.614,-0.775,0.332
2903.0,-10.703,-2.033,-0.724,-0.614,-0.775,0.332
2907.0,-10.752,-1.902,-0.851,-0.612,-0.721,0.386
2911.0,-10.752,-1.902,-0.851,-0.612,-0.721,0.386
2915.0,-10.938,-1.941,-0.759,-0.641,-0.639,0.442
2920.0,-10.938,-1.941,-0.759,-0.641,-0.639,0.442
2924.0,-10.962,-2.101,-0.558,-0.641,-0.639,0.477
2928.0,-10.962,-2.101,-0.558,-0.686,-0.563,0.477
2932.0,-10.962,-2.101,-0.558,-0.686,-0.563,0.477
2936.0,-10.596,-2.195,-0.257,-0.727,-0.505,0.466
2940.0,-10.596,-2.195,-0.257,-0.727,-0.505,0.466
2945.0,-9.798,-2.255,0.087,-0.744,-0.468,0.405
2949.0,-9.798,-2.255,0.087,-0.744,-0.468,0.405
2953.0,-9.798,-2.255,0.087,-0.744,-0.468,0.405
2957.0,-9.048,-2.296,0.295,-0.719,-0.448,0.297
2961.0,-9.048,-2.296,0.295,-0.719,-0.448,0.297
2965.0,-8.593,-2.21,0.341,-0.646,-0.428,0.142
2969.0,-8.593,-2.21,0.341,-0.646,-0.428,0.142
2973.0,-8.593,-2.21,0.307,-0.646,-0.428,0.142
2977.0,-8.372,-2.088,0.307,-0.53,-0.398,-0.037
2981.0,-8.372,-2.088,0.307,-0.53,-0.398,-0.037
2985.0,-8.362,-1.914,0.133,-0.388,-0.362,-0.214
2989.0,-8.362,-1.914,0.133,-0.388,-0.362,-0.214
2993.0,-8.543,-1.707,-0.057,-0.388,-0.362,-0.358
2997.0,-8.543,-1.707,-0.057,-0.24,-0.317,-0.358
