deltaTime,Acc_X,Acc_Y,Acc_Z,Gyro_X,Gyro_Y,Gyro_Z
0.0,-7.618,-1.895,1.954,-0.931,-0.517,0.007
3.0,-7.618,-1.895,1.954,-0.931,-0.517,0.007
6.0,-7.618,-1.895,1.954,-0.931,-0.517,0.007
9.0,-7.408,-1.131,1.412,-0.979,-0.327,0.025
12.0,-7.408,-1.131,1.412,-0.979,-0.327,0.025
15.0,-7.408,-1.131,1.412,-0.979,-0.327,0.025
18.0,-8.327,-2.101,1.271,-1.155,-0.378,0.033
21.0,-8.327,-2.101,1.271,-1.155,-0.378,0.033
24.0,-8.327,-2.101,1.271,-1.155,-0.378,0.033
27.0,-9.169,-2.641,0.212,-1.155,-0.378,0.033
30.0,-9.169,-2.641,0.212,-1.108,-0.509,0.048
33.0,-9.169,-2.641,0.212,-1.108,-0.509,0.048
37.0,-8.971,-2.597,-0.695,-1.108,-0.564,0.101
41.0,-8.971,-2.597,-0.695,-0.98,-0.564,0.101
45.0,-8.971,-2.597,-0.695,-0.98,-0.564,0.101
49.0,-8.346,-2.453,-0.647,-0.911,-0.498,0.187
53.0,-8.346,-2.453,-0.647,-0.911,-0.498,0.187
57.0,-7.962,-3.121,-1.045,-0.911,-0.498,0.25
60.0,-7.962,-3.121,-1.045,-0.882,-0.432,0.25
64.0,-7.962,-3.121,-1.045,-0.882,-0.432,0.25
68.0,-8.252,-3.977,-0.188,-0.756,-0.28,0.269
72.0,-8.252,-3.977,-0.188,-0.756,-0.28,0.269
76.0,-8.711,-4.01,-0.474,-0.756,-0.28,0.269
80.0,-8.711,-4.01,-0.474,-0.483,-0.075,0.247
84.0,-8.711,-4.01,-0.474,-0.483,-0.075,0.247
88.0,-9.244,-3.832,-0.333,-0.267,0.026,0.222
92.0,-9.244,-3.832,-0.333,-0.267,0.026,0.222
95.0,-9.244,-3.832,-1.233,-0.267,0.026,0.222
99.0,-9.453,-3.854,-1.233,-0.141,-0.071,0.176
103.0,-9.453,-3.854,-1.233,-0.141,-0.071,0.176
107.0,-10.499,-2.786,-0.095,-0.026,-0.048,0.161
111.0,-10.499,-2.786,-0.095,-0.026,-0.048,0.161
115.0,-10.499,-2.786,-0.293,-0.026,-0.048,0.161
119.0,-11.193,-2.407,-0.293,-0.089,-0.01,0.135
123.0,-11.193,-2.407,-0.293,-0.089,-0.01,0.135
128.0,-11.188,-1.936,-0.246,-0.255,-0.095,0.124
132.0,-11.188,-1.936,-0.246,-0.255,-0.095,0.124
136.0,-10.972,-2.024,-0.145,-0.255,-0.148,0.126
140.0,-10.972,-2.024,-0.145,-0.444,-0.148,0.126
144.0,-10.972,-2.024,-0.145,-0.444,-0.148,0.126
148.0,-10.372,-2.172,-0.076,-0.568,-0.18,0.135
152.0,-10.372,-2.172,-0.076,-0.568,-0.18,0.135
156.0,-9.617,-2.424,0.358,-0.663,-0.192,0.14
160.0,-9.617,-2.424,0.358,-0.663,-0.192,0.14
164.0,-9.617,-2.424,0.358,-0.663,-0.192,0.14
168.0,-9.107,-3.024,0.602,-0.726,-0.194,0.109
172.0,-9.107,-3.024,0.602,-0.726,-0.194,0.109
176.0,-8.417,-3.361,0.608,-0.648,-0.173,0.051
180.0,-8.417,-3.361,0.608,-0.648,-0.173,0.051
183.0,-8.417,-3.361,0.608,-0.648,-0.173,0.051
187.0,-8.151,-3.376,0.835,-0.491,-0.111,0.005
191.0,-8.151,-3.376,0.835,-0.491,-0.111,0.005
195.0,-8.488,-3.468,0.489,-0.315,-0.047,-0.024
199.0,-8.488,-3.468,0.489,-0.315,-0.047,-0.024
203.0,-8.488,-3.468,0.489,-0.315,-0.047,-0.024
207.0,-8.713,-3.153,0.072,-0.138,-0.0,-0.028
211.0,-8.713,-3.153,0.072,-0.138,-0.0,-0.028
215.0,-9.144,-3.184,-0.174,-0.064,0.014,-0.011
219.0,-9.144,-3.184,-0.174,-0.064,0.014,-0.011
223.0,-9.144,-3.184,-0.174,-0.064,0.014,-0.011
227.0,-9.55,-3.092,-0.209,-0.053,-0.024,-0.017
231.0,-9.55,-3.092,-0.209,-0.053,-0.024,-0.017
235.0,-9.739,-3.033,0.215,-0.076,-0.077,-0.016
239.0,-9.739,-3.033,0.215,-0.076,-0.077,-0.016
243.0,-9.739,-3.033,0.215,-0.076,-0.077,-0.016
247.0,-9.885,-3.419,0.578,-0.1,-0.127,-0.003
251.0,-9.885,-3.419,0.578,-0.1,-0.127,-0.003
255.0,-9.604,-3.279,0.863,-0.082,-0.174,-0.001
259.0,-9.604,-3.279,0.863,-0.082,-0.174,-0.001
263.0,-9.604,-3.279,0.83,-0.082,-0.174,-0.001
267.0,-9.289,-3.23,0.83,-0.073,-0.211,-0.005
271.0,-9.289,-3.23,0.83,-0.073,-0.211,-0.005
275.0,-9.266,-3.325,0.568,-0.05,-0.233,-0.018
279.0,-9.266,-3.325,0.568,-0.05,-0.233,-0.018
283.0,-9.266,-3.111,0.336,-0.05,-0.233,-0.018
287.0,-9.153,-3.111,0.336,0.01,-0.228,-0.039
291.0,-9.153,-3.111,0.336,0.01,-0.228,-0.039
295.0,-8.983,-3.077,-0.406,0.073,-0.194,-0.064
299.0,-8.983,-3.077,-0.406,0.073,-0.194,-0.064
303.0,-8.983,-2.753,-0.422,0.073,-0.194,-0.064
307.0,-8.741,-2.753,-0.422,0.11,-0.148,-0.089
311.0,-8.741,-2.753,-0.422,0.11,-0.148,-0.089
315.0,-9.458,-3.002,-0.392,0.112,-0.094,-0.115
319.0,-9.458,-3.002,-0.392,0.112,-0.094,-0.115
323.0,-9.949,-2.764,-0.769,0.112,-0.094,-0.115
327.0,-9.949,-2.764,-0.769,0.176,-0.07,-0.127
331.0,-9.949,-2.764,-0.769,0.176,-0.07,-0.127
335.0,-9.882,-2.545,-0.196,0.192,-0.045,-0.121
339.0,-9.882,-2.545,-0.196,0.192,-0.045,-0.121
343.0,-10.04,-3.176,0.42,0.192,-0.045,-0.107
347.0,-10.04,-3.176,0.42,0.165,-0.013,-0.107
351.0,-10.04,-3.176,0.42,0.165,-0.013,-0.107
355.0,-9.914,-3.187,0.427,0.213,-0.006,-0.097
359.0,-9.914,-3.187,0.427,0.213,-0.006,-0.097
363.0,-9.708,-3.281,0.523,0.213,-0.006,-0.085
367.0,-9.708,-3.281,0.523,0.244,0.019,-0.085
370.0,-9.708,-3.281,0.523,0.244,0.019,-0.085
374.0,-9.591,-3.6,0.49,0.28,0.054,-0.087
378.0,-9.591,-3.6,0.49,0.28,0.054,-0.087
382.0,-9.591,-3.6,0.023,0.28,0.054,-0.087
386.0,-9.33,-3.479,0.023,0.37,0.081,-0.1
390.0,-9.33,-3.479,0.023,0.37,0.081,-0.1
393.0,-9.233,-3.383,-0.065,0.43,0.102,-0.103
397.0,-9.233,-3.383,-0.065,0.43,0.102,-0.103
401.0,-9.233,-3.383,-0.065,0.43,0.102,-0.103
405.0,-9.344,-3.545,-0.138,0.491,0.113,-0.114
409.0,-9.344,-3.545,-0.138,0.491,0.113,-0.114
413.0,-9.111,-3.324,-0.051,0.578,0.13,-0.12
417.0,-9.111,-3.324,-0.051,0.578,0.13,-0.12
421.0,-9.111,-3.324,-0.051,0.578,0.13,-0.12
425.0,-9.263,-3.717,0.235,0.651,0.149,-0.104
428.0,-9.263,-3.717,0.235,0.651,0.149,-0.104
432.0,-8.916,-3.8,0.357,0.782,0.111,-0.066
436.0,-8.916,-3.8,0.357,0.782,0.111,-0.066
440.0,-8.916,-3.8,0.357,0.782,0.111,-0.066
444.0,-8.565,-3.544,0.429,0.886,0.132,-0.043
447.0,-8.565,-3.544,0.429,0.886,0.132,-0.043
451.0,-8.65,-3.931,0.616,0.886,0.132,-0.043
455.0,-8.65,-3.931,0.616,0.922,0.179,-0.034
459.0,-8.65,-3.931,0.616,0.922,0.179,-0.034
463.0,-8.688,-3.831,0.212,1.001,0.192,-0.052
467.0,-8.688,-3.831,0.212,1.001,0.192,-0.052
470.0,-8.688,-3.831,0.212,1.001,0.192,-0.052
474.0,-8.649,-3.24,0.284,1.049,0.191,-0.083
478.0,-8.649,-3.24,0.284,1.049,0.191,-0.083
482.0,-8.77,-3.074,0.141,1.021,0.188,-0.11
486.0,-8.77,-3.074,0.141,1.021,0.188,-0.11
490.0,-8.77,-3.074,0.141,1.021,0.188,-0.11
493.0,-8.954,-3.039,-0.304,1.026,0.176,-0.153
497.0,-8.954,-3.039,-0.304,1.026,0.176,-0.153
501.0,-9.07,-2.634,-0.448,1.041,0.154,-0.173
505.0,-9.07,-2.634,-0.448,1.041,0.154,-0.173
509.0,-9.07,-2.634,-0.448,1.041,0.154,-0.173
513.0,-9.402,-2.669,-0.237,0.978,0.147,-0.175
517.0,-9.402,-2.669,-0.237,0.978,0.147,-0.175
521.0,-9.939,-2.996,-0.416,0.978,0.163,-0.184
525.0,-9.939,-2.996,-0.416,0.916,0.163,-0.184
528.0,-9.939,-2.996,-0.416,0.916,0.163,-0.184
532.0,-10.204,-2.62,-0.056,0.84,0.148,-0.188
536.0,-10.204,-2.62,-0.056,0.84,0.148,-0.188
540.0,-10.308,-2.88,0.143,0.84,0.148,-0.19
544.0,-10.308,-2.88,0.143,0.687,0.102,-0.19
548.0,-10.308,-2.88,0.143,0.687,0.102,-0.19
552.0,-9.863,-2.702,0.604,0.546,0.022,-0.196
556.0,-9.863,-2.702,0.604,0.546,0.022,-0.196
560.0,-9.538,-2.998,1.187,0.546,0.022,-0.196
564.0,-9.538,-2.998,1.187,0.402,-0.038,-0.207
567.0,-9.538,-2.998,1.187,0.402,-0.038,-0.207
571.0,-9.044,-3.727,0.525,0.424,-0.073,-0.237
575.0,-9.044,-3.727,0.525,0.424,-0.073,-0.237
579.0,-9.044,-3.727,0.653,0.424,-0.073,-0.237
583.0,-8.252,-2.972,0.653,0.558,-0.084,-0.243
587.0,-8.252,-2.972,0.653,0.558,-0.084,-0.243
591.0,-8.46,-3.38,0.936,0.583,-0.014,-0.222
595.0,-8.46,-3.38,0.936,0.583,-0.014,-0.222
599.0,-8.46,-3.38,0.936,0.583,-0.014,-0.222
603.0,-8.773,-4.26,0.447,0.736,0.044,-0.203
606.0,-8.773,-4.26,0.447,0.736,0.044,-0.203
610.0,-8.605,-3.699,0.745,0.955,0.067,-0.174
614.0,-8.605,-3.699,0.745,0.955,0.067,-0.174
618.0,-8.605,-3.699,0.745,0.955,0.067,-0.174
622.0,-9.038,-3.795,1.053,1.041,0.123,-0.154
626.0,-9.038,-3.795,1.053,1.041,0.123,-0.154
629.0,-9.548,-4.079,0.826,1.041,0.148,-0.14
633.0,-9.548,-4.079,0.826,1.13,0.148,-0.14
637.0,-9.548,-4.079,0.826,1.13,0.148,-0.14
641.0,-9.645,-4.246,0.971,1.233,0.132,-0.104
645.0,-9.645,-4.246,0.971,1.233,0.132,-0.104
648.0,-9.645,-4.493,1.016,1.233,0.132,-0.104
652.0,-9.538,-4.493,1.016,1.347,0.125,-0.065
656.0,-9.538,-4.493,1.016,1.347,0.125,-0.065
660.0,-9.837,-4.741,0.76,1.505,0.126,-0.035
664.0,-9.837,-4.741,0.76,1.505,0.126,-0.035
668.0,-9.837,-4.741,0.76,1.505,0.126,-0.035
671.0,-10.122,-4.424,0.537,1.643,0.121,-0.024
675.0,-10.122,-4.424,0.537,1.643,0.121,-0.024
679.0,-10.309,-4.122,0.419,1.685,0.128,-0.021
683.0,-10.309,-4.122,0.419,1.685,0.128,-0.021
687.0,-10.309,-4.122,0.419,1.685,0.128,-0.021
691.0,-10.32,-4.037,0.39,1.65,0.145,-0.026
695.0,-10.32,-4.037,0.39,1.65,0.145,-0.026
699.0,-10.124,-3.991,0.445,1.581,0.155,-0.054
703.0,-10.124,-3.991,0.445,1.581,0.155,-0.054
707.0,-10.124,-3.991,0.445,1.581,0.155,-0.054
710.0,-9.923,-4.085,0.512,1.495,0.167,-0.106
714.0,-9.923,-4.085,0.512,1.495,0.167,-0.106
718.0,-9.768,-4.287,0.378,1.495,0.191,-0.189
722.0,-9.768,-4.287,0.378,1.41,0.191,-0.189
726.0,-9.768,-4.287,0.378,1.41,0.191,-0.189
730.0,-9.607,-4.717,0.112,1.351,0.244,-0.297
733.0,-9.607,-4.717,0.112,1.351,0.244,-0.297
737.0,-9.607,-4.717,0.034,1.351,0.244,-0.297
741.0,-9.385,-5.414,0.034,1.362,0.34,-0.422
745.0,-9.385,-5.414,0.034,1.362,0.34,-0.422
749.0,-9.162,-6.224,0.023,1.476,0.484,-0.565
752.0,-9.162,-6.224,0.023,1.476,0.484,-0.565
756.0,-9.162,-6.224,0.023,1.476,0.484,-0.565
760.0,-9.007,-7.059,0.258,1.713,0.652,-0.741
764.0,-9.007,-7.059,0.258,1.713,0.652,-0.741
768.0,-8.923,-7.866,0.615,2.076,0.795,-0.953
772.0,-8.923,-7.866,0.615,2.076,0.795,-0.953
775.0,-8.923,-7.866,0.615,2.076,0.795,-0.953
779.0,-9.036,-8.487,0.907,2.534,0.902,-1.176
783.0,-9.036,-8.487,0.907,2.534,0.902,-1.176
787.0,-9.484,-8.809,1.048,2.534,0.902,-1.176
791.0,-9.484,-8.809,1.048,3.038,0.988,-1.376
794.0,-9.484,-8.809,1.048,3.038,0.988,-1.376
798.0,-10.231,-9.118,1.197,3.53,1.046,-1.537
802.0,-10.231,-9.118,1.197,3.53,1.046,-1.537
806.0,-10.231,-9.118,1.197,3.53,1.046,-1.537
810.0,-11.14,-9.31,1.509,3.964,1.053,-1.665
814.0,-11.14,-9.31,1.509,3.964,1.053,-1.665
818.0,-11.808,-9.331,1.725,4.309,0.973,-1.765
822.0,-11.808,-9.331,1.725,4.309,0.973,-1.765
826.0,-11.808,-9.331,1.725,4.309,0.973,-1.765
830.0,-11.923,-9.309,1.927,4.54,0.814,-1.831
833.0,-11.923,-9.309,1.927,4.54,0.814,-1.831
837.0,-11.712,-9.343,2.137,4.657,0.63,-1.862
841.0,-11.712,-9.343,2.137,4.657,0.63,-1.862
845.0,-11.712,-9.343,2.137,4.657,0.63,-1.862
849.0,-11.405,-9.36,2.526,4.676,0.454,-1.881
853.0,-11.405,-9.36,2.526,4.676,0.454,-1.881
857.0,-10.985,-9.176,2.792,4.622,0.27,-1.942
861.0,-10.985,-9.176,2.792,4.622,0.27,-1.942
865.0,-10.985,-9.176,2.792,4.622,0.27,-1.942
869.0,-10.622,-8.929,3.183,4.508,0.081,-2.054
872.0,-10.622,-8.929,3.183,4.508,0.081,-2.054
876.0,-10.403,-8.889,3.584,4.358,-0.099,-2.208
880.0,-10.403,-8.889,3.584,4.358,-0.099,-2.208
884.0,-10.403,-8.889,3.584,4.358,-0.099,-2.208
888.0,-10.442,-8.98,3.793,4.208,-0.261,-2.388
892.0,-10.442,-8.98,3.793,4.208,-0.261,-2.388
896.0,-10.604,-9.041,4.097,4.083,-0.415,-2.57
900.0,-10.604,-9.041,4.097,4.083,-0.415,-2.57
904.0,-10.604,-9.041,4.097,4.083,-0.415,-2.57
908.0,-10.604,-9.266,4.415,3.992,-0.584,-2.729
912.0,-10.604,-9.266,4.415,3.992,-0.584,-2.729
916.0,-10.478,-9.78,4.714,3.956,-0.758,-2.848
920.0,-10.478,-9.78,4.714,3.956,-0.758,-2.848
924.0,-10.478,-9.78,4.714,3.956,-0.758,-2.848
928.0,-10.45,-10.468,4.999,3.995,-0.922,-2.934
932.0,-10.45,-10.468,4.999,3.995,-0.922,-2.934
936.0,-10.512,-11.052,5.326,4.105,-1.075,-2.996
941.0,-10.512,-11.052,5.326,4.105,-1.075,-2.996
945.0,-10.512,-11.632,5.578,4.105,-1.075,-2.996
949.0,-10.63,-11.632,5.578,4.274,-1.234,-3.042
953.0,-10.63,-11.632,5.578,4.274,-1.234,-3.042
957.0,-10.743,-11.949,5.581,4.463,-1.402,-3.098
961.0,-10.743,-11.949,5.581,4.463,-1.402,-3.098
965.0,-10.68,-11.749,5.545,4.639,-1.568,-3.168
969.0,-10.68,-11.749,5.545,4.639,-1.568,-3.168
973.0,-10.68,-11.749,5.545,4.639,-1.568,-3.168
977.0,-10.335,-11.154,5.414,4.77,-1.727,-3.239
981.0,-10.335,-11.154,5.414,4.77,-1.727,-3.239
985.0,-9.885,-10.515,5.391,4.831,-1.863,-3.292
989.0,-9.885,-10.515,5.391,4.831,-1.863,-3.292
993.0,-9.885,-10.515,5.391,4.831,-1.863,-3.292
997.0,-9.607,-10.097,5.554,4.821,-1.979,-3.332
1001.0,-9.607,-10.097,5.554,4.821,-1.979,-3.332
1005.0,-9.363,-9.703,5.684,4.76,-2.088,-3.37
1009.0,-9.363,-9.703,5.684,4.76,-2.088,-3.37
1013.0,-9.363,-9.703,6.013,4.76,-2.088,-3.37
1017.0,-9.038,-9.231,6.013,4.661,-2.191,-3.403
1021.0,-9.038,-9.231,6.013,4.661,-2.191,-3.403
1025.0,-8.756,-8.786,6.541,4.541,-2.294,-3.422
1029.0,-8.756,-8.786,6.541,4.541,-2.294,-3.422
1033.0,-8.756,-8.655,6.954,4.541,-2.294,-3.422
1037.0,-8.572,-8.655,6.954,4.436,-2.412,-3.424
1041.0,-8.572,-8.655,6.954,4.436,-2.412,-3.424
1045.0,-8.416,-8.748,7.408,4.384,-2.537,-3.4
1049.0,-8.416,-8.748,7.408,4.384,-2.537,-3.4
1053.0,-8.308,-9.172,7.89,4.384,-2.537,-3.4
1057.0,-8.308,-9.172,7.89,4.404,-2.676,-3.344
1061.0,-8.308,-9.172,7.89,4.404,-2.676,-3.344
1065.0,-8.249,-10.005,8.288,4.528,-2.84,-3.259
1069.0,-8.249,-10.005,8.288,4.528,-2.84,-3.259
1074.0,-8.387,-10.592,8.546,4.528,-3.02,-3.151
1078.0,-8.387,-10.592,8.546,4.791,-3.02,-3.151
1082.0,-8.387,-10.592,8.546,4.791,-3.02,-3.151
1086.0,-8.602,-10.776,8.725,4.984,-3.206,-3.012
1090.0,-8.602,-10.776,8.725,4.984,-3.206,-3.012
1094.0,-8.566,-10.724,8.746,4.995,-3.394,-2.842
1098.0,-8.566,-10.724,8.746,4.995,-3.394,-2.842
1102.0,-8.566,-10.724,8.746,4.995,-3.394,-2.842
1106.0,-8.229,-10.216,8.664,4.995,-3.581,-2.65
1110.0,-8.229,-10.216,8.664,4.995,-3.581,-2.65
1114.0,-7.875,-9.302,8.367,4.995,-3.751,-2.435
1118.0,-7.875,-9.302,8.367,4.995,-3.751,-2.435
1122.0,-7.875,-8.04,7.81,4.995,-3.751,-2.435
1126.0,-7.627,-8.04,7.81,4.995,-3.896,-2.192
1130.0,-7.627,-8.04,7.81,4.995,-3.896,-2.192
1134.0,-7.199,-6.762,7.546,4.995,-4.012,-1.924
1138.0,-7.199,-6.762,7.546,4.995,-4.012,-1.924
1142.0,-6.729,-5.651,7.442,4.995,-4.012,-1.924
1146.0,-6.729,-5.651,7.442,4.995,-4.111,-1.651
1150.0,-6.729,-5.651,7.442,4.995,-4.111,-1.651
1154.0,-6.511,-4.293,7.138,4.995,-4.183,-1.399
1158.0,-6.511,-4.293,7.138,4.995,-4.183,-1.399
1162.0,-6.242,-3.163,6.956,4.995,-4.183,-1.177
1166.0,-6.242,-3.163,6.956,4.995,-4.254,-1.177
1170.0,-6.242,-3.163,6.956,4.995,-4.254,-1.177
1174.0,-5.782,-2.178,6.77,4.995,-4.326,-1.022
1178.0,-5.782,-2.178,6.77,4.995,-4.326,-1.022
1182.0,-5.328,-0.995,6.518,4.995,-4.348,-0.948
1186.0,-5.328,-0.995,6.518,4.995,-4.348,-0.948
1190.0,-5.328,-0.995,6.518,4.995,-4.348,-0.948
1194.0,-5.576,-0.098,6.049,4.995,-4.234,-0.93
1198.0,-5.576,-0.098,6.049,4.995,-4.234,-0.93
1202.0,-4.582,0.831,5.73,4.995,-4.336,-0.976
1206.0,-4.582,0.831,5.73,4.995,-4.336,-0.976
1210.0,-4.582,0.831,5.73,4.995,-4.336,-0.976
1214.0,-3.805,1.369,5.512,4.94,-4.295,-1.043
1218.0,-3.805,1.369,5.512,4.94,-4.295,-1.043
1222.0,-3.453,1.612,5.228,4.409,-4.158,-1.122
1226.0,-3.453,1.612,5.228,4.409,-4.158,-1.122
1230.0,-3.453,1.612,5.228,4.409,-4.158,-1.122
1233.0,-3.148,1.437,5.054,3.654,-4.007,-1.212
1237.0,-3.148,1.437,5.054,3.654,-4.007,-1.212
1241.0,-2.791,1.043,4.969,3.654,-3.853,-1.319
1245.0,-2.791,1.043,4.969,2.982,-3.853,-1.319
1249.0,-2.791,1.043,4.969,2.982,-3.853,-1.319
1253.0,-2.493,0.526,4.668,2.446,-3.688,-1.434
1257.0,-2.493,0.526,4.668,2.446,-3.688,-1.434
1261.0,-2.173,-0.085,4.224,2.446,-3.688,-1.434
1265.0,-2.173,-0.085,4.224,2.069,-3.508,-1.541
1269.0,-2.173,-0.085,4.224,2.069,-3.508,-1.541
1273.0,-1.799,-0.552,3.794,1.862,-3.309,-1.652
1277.0,-1.799,-0.552,3.794,1.862,-3.309,-1.652
1281.0,-1.513,-0.686,3.226,1.862,-3.101,-1.765
1285.0,-1.513,-0.686,3.226,1.825,-3.101,-1.765
1289.0,-1.513,-0.686,3.226,1.825,-3.101,-1.765
1293.0,-1.251,-0.417,2.553,1.919,-2.889,-1.839
1297.0,-1.251,-0.417,2.553,1.919,-2.889,-1.839
1301.0,-1.019,0.025,2.019,2.078,-2.671,-1.842
1305.0,-1.019,0.025,2.019,2.078,-2.671,-1.842
1309.0,-1.019,0.025,2.019,2.078,-2.671,-1.842
1312.0,-0.853,0.746,1.616,2.262,-2.463,-1.792
1316.0,-0.853,0.746,1.616,2.262,-2.463,-1.792
1320.0,-0.782,1.787,1.286,2.262,-2.275,-1.694
1324.0,-0.782,1.787,1.286,2.439,-2.275,-1.694
1328.0,-0.782,1.787,1.286,2.439,-2.275,-1.694
1332.0,-0.555,2.773,0.982,2.57,-2.111,-1.553
1336.0,-0.555,2.773,0.982,2.57,-2.111,-1.553
1340.0,-0.191,3.738,0.773,2.57,-2.111,-1.409
1344.0,-0.191,3.738,0.773,2.63,-1.967,-1.409
1348.0,-0.191,3.738,0.773,2.63,-1.967,-1.409
1351.0,0.197,4.744,0.735,2.61,-1.842,-1.292
1355.0,0.197,4.744,0.735,2.61,-1.842,-1.292
1359.0,0.197,5.702,0.702,2.61,-1.842,-1.292
1363.0,0.468,5.702,0.702,2.519,-1.729,-1.21
1367.0,0.468,5.702,0.702,2.519,-1.729,-1.21
1371.0,0.726,6.662,0.687,2.365,-1.627,-1.139
1374.0,0.726,6.662,0.687,2.365,-1.627,-1.139
1378.0,0.726,6.662,0.687,2.365,-1.627,-1.139
1382.0,1.005,7.557,0.709,2.149,-1.524,-1.043
1386.0,1.005,7.557,0.709,2.149,-1.524,-1.043
1390.0,1.241,8.298,0.7,1.897,-1.413,-0.927
1393.0,1.241,8.298,0.7,1.897,-1.413,-0.927
1397.0,1.241,8.298,0.7,1.897,-1.413,-0.927
1401.0,1.421,9.111,0.545,1.627,-1.294,-0.784
1405.0,1.421,9.111,0.545,1.627,-1.294,-0.784
1409.0,1.53,9.914,0.457,1.627,-1.294,-0.784
1413.0,1.53,9.914,0.457,1.355,-1.153,-0.606
1416.0,1.53,9.914,0.457,1.355,-1.153,-0.606
1420.0,1.574,10.716,0.415,1.105,-0.991,-0.425
1424.0,1.574,10.716,0.415,1.105,-0.991,-0.425
1428.0,1.574,10.716,0.423,1.105,-0.991,-0.425
1432.0,1.692,11.569,0.423,0.885,-0.809,-0.229
1436.0,1.692,11.569,0.423,0.885,-0.809,-0.229
1440.0,2.052,12.05,0.69,0.691,-0.595,-0.012
1444.0,2.052,12.05,0.69,0.691,-0.595,-0.012
1448.0,2.052,12.05,0.69,0.691,-0.595,-0.012
1451.0,2.359,12.568,1.124,0.551,-0.363,0.132
1455.0,2.359,12.568,1.124,0.551,-0.363,0.132
1459.0,2.585,13.332,1.515,0.465,-0.13,0.231
1463.0,2.585,13.332,1.515,0.465,-0.13,0.231
1467.0,2.585,13.332,1.515,0.465,-0.13,0.231
1471.0,2.743,13.812,1.922,0.418,0.107,0.361
1474.0,2.743,13.812,1.922,0.418,0.107,0.361
1478.0,2.779,14.047,2.279,0.418,0.107,0.516
1482.0,2.779,14.047,2.279,0.406,0.327,0.516
1486.0,2.779,14.047,2.279,0.406,0.327,0.516
1489.0,2.755,14.122,2.578,0.411,0.515,0.697
1493.0,2.755,14.122,2.578,0.411,0.515,0.697
1497.0,2.755,14.122,2.578,0.411,0.515,0.697
1500.0,2.608,14.009,2.871,0.421,0.675,0.906
1504.0,2.608,14.009,2.871,0.421,0.675,0.906
1508.0,2.333,13.712,3.238,0.421,0.812,1.125
1512.0,2.333,13.712,3.238,0.426,0.812,1.125
1515.0,2.333,13.712,3.238,0.426,0.812,1.125
1519.0,2.005,13.471,3.67,0.436,0.915,1.345
1523.0,2.005,13.471,3.67,0.436,0.915,1.345
1527.0,2.005,13.471,3.67,0.436,0.915,1.345
1530.0,1.656,13.168,4.095,0.45,0.986,1.593
1534.0,1.656,13.168,4.095,0.45,0.986,1.593
1538.0,1.293,12.671,4.588,0.459,1.03,1.866
1542.0,1.293,12.671,4.588,0.459,1.03,1.866
1545.0,1.293,12.671,4.588,0.459,1.03,1.866
1549.0,0.775,12.266,5.146,0.457,1.035,2.136
1553.0,0.775,12.266,5.146,0.457,1.035,2.136
1556.0,0.775,12.266,5.458,0.457,1.035,2.136
1560.0,0.17,11.767,5.458,0.428,0.993,2.434
1564.0,0.17,11.767,5.458,0.428,0.993,2.434
1568.0,-0.347,11.305,5.675,0.369,0.913,2.727
1571.0,-0.347,11.305,5.675,0.369,0.913,2.727
1575.0,-0.347,11.305,5.675,0.369,0.913,2.727
1579.0,-0.808,10.961,5.718,0.284,0.79,2.972
1583.0,-0.808,10.961,5.718,0.284,0.79,2.972
1587.0,-1.121,10.461,5.522,0.284,0.648,3.175
1591.0,-1.121,10.461,5.522,0.163,0.648,3.175
1594.0,-1.121,10.461,5.522,0.163,0.648,3.175
1598.0,-1.159,10.118,5.394,0.009,0.503,3.336
1602.0,-1.159,10.118,5.394,0.009,0.503,3.336
1606.0,-1.159,10.118,5.371,0.009,0.503,3.336
1610.0,-0.868,9.756,5.371,-0.163,0.351,3.492
1613.0,-0.868,9.756,5.371,-0.163,0.351,3.492
1617.0,-0.446,9.354,5.486,-0.333,0.198,3.641
1621.0,-0.446,9.354,5.486,-0.333,0.198,3.641
1625.0,-0.446,9.354,5.486,-0.333,0.198,3.641
1629.0,-0.057,8.989,5.447,-0.484,0.037,3.77
1633.0,-0.057,8.989,5.447,-0.484,0.037,3.77
1636.0,0.183,8.517,5.248,-0.618,-0.112,3.902
1640.0,0.183,8.517,5.248,-0.618,-0.112,3.902
1644.0,0.183,8.517,5.248,-0.618,-0.112,3.902
1648.0,0.36,7.852,5.018,-0.733,-0.232,4.026
1652.0,0.36,7.852,5.018,-0.733,-0.232,4.026
1655.0,0.367,7.505,4.878,-0.733,-0.232,4.026
1659.0,0.367,7.505,4.878,-0.809,-0.325,4.102
1663.0,0.367,7.505,4.878,-0.809,-0.325,4.102
1667.0,0.239,7.169,4.589,-0.85,-0.402,4.151
1671.0,0.239,7.169,4.589,-0.85,-0.402,4.151
1675.0,0.239,7.169,4.589,-0.85,-0.402,4.151
1678.0,0.27,6.746,4.272,-0.886,-0.454,4.206
1682.0,0.27,6.746,4.272,-0.886,-0.454,4.206
1686.0,0.48,6.308,4.134,-0.927,-0.492,4.254
1690.0,0.48,6.308,4.134,-0.927,-0.492,4.254
1694.0,0.48,6.308,4.134,-0.927,-0.492,4.254
1697.0,1.002,5.757,4.103,-0.973,-0.543,4.321
1701.0,1.002,5.757,4.103,-0.973,-0.543,4.321
1705.0,1.616,5.11,4.03,-0.973,-0.543,4.383
1709.0,1.616,5.11,4.03,-1.015,-0.591,4.383
1713.0,1.616,5.11,4.03,-1.015,-0.591,4.383
1717.0,2.128,4.598,3.937,-1.054,-0.62,4.429
1720.0,2.128,4.598,3.937,-1.054,-0.62,4.429
1724.0,2.128,4.598,3.618,-1.054,-0.62,4.429
1728.0,2.56,4.03,3.618,-1.08,-0.613,4.473
1732.0,2.56,4.03,3.618,-1.08,-0.613,4.473
1736.0,2.962,3.343,3.163,-1.094,-0.549,4.511
1740.0,2.962,3.343,3.163,-1.094,-0.549,4.511
1743.0,2.962,3.343,3.163,-1.094,-0.549,4.511
1747.0,3.236,2.916,2.886,-1.1,-0.433,4.515
1751.0,3.236,2.916,2.886,-1.1,-0.433,4.515
1755.0,3.217,2.824,2.902,-1.109,-0.298,4.518
1759.0,3.217,2.824,2.902,-1.109,-0.298,4.518
1762.0,3.217,2.824,2.902,-1.109,-0.298,4.518
1766.0,3.194,2.514,2.865,-1.131,-0.194,4.582
1770.0,3.194,2.514,2.865,-1.131,-0.194,4.582
1774.0,3.388,1.776,2.509,-1.131,-0.194,4.582
1778.0,3.388,1.776,2.509,-1.177,-0.115,4.694
1782.0,3.388,1.776,2.509,-1.177,-0.115,4.694
1785.0,3.81,0.866,1.975,-1.259,-0.017,4.799
1789.0,3.81,0.866,1.975,-1.259,-0.017,4.799
1793.0,3.81,0.866,1.975,-1.259,-0.017,4.799
1797.0,4.237,-0.035,1.451,-1.377,0.13,4.87
1801.0,4.237,-0.035,1.451,-1.377,0.13,4.87
1804.0,4.537,-0.861,1.116,-1.532,0.326,4.929
1808.0,4.537,-0.861,1.116,-1.532,0.326,4.929
1812.0,4.537,-0.861,1.116,-1.532,0.326,4.929
1816.0,4.899,-1.817,2.06,-1.716,0.59,4.993
1820.0,4.899,-1.817,2.06,-1.716,0.59,4.993
1824.0,3.861,-3.215,0.379,-1.716,0.59,4.975
1827.0,3.861,-3.215,0.379,-1.889,0.993,4.975
1831.0,3.861,-3.215,0.379,-1.889,0.993,4.975
1835.0,4.738,-5.947,2.104,-2.071,0.958,4.956
1839.0,4.738,-5.947,2.104,-2.071,0.958,4.956
1843.0,4.738,-5.947,3.408,-2.071,0.958,4.956
1846.0,4.662,-9.415,3.408,-2.016,1.093,4.974
1850.0,4.662,-9.415,3.408,-2.016,1.093,4.974
1854.0,3.867,-12.534,4.303,-1.625,1.262,4.904
1858.0,3.867,-12.534,4.303,-1.625,1.262,4.904
1862.0,3.867,-12.534,4.303,-1.625,1.262,4.904
1866.0,2.958,-13.99,4.289,-0.915,1.352,4.704
1870.0,2.958,-13.99,4.289,-0.915,1.352,4.704
1874.0,2.375,-13.775,3.724,-0.084,1.398,4.492
1878.0,2.375,-13.775,3.724,-0.084,1.398,4.492
1881.0,2.375,-13.775,3.724,-0.084,1.398,4.492
1885.0,2.128,-12.427,3.103,0.627,1.448,4.36
1889.0,2.128,-12.427,3.103,0.627,1.448,4.36
1893.0,2.066,-10.622,2.661,1.06,1.509,4.266
1897.0,2.066,-10.622,2.661,1.06,1.509,4.266
1901.0,2.066,-10.622,2.661,1.06,1.509,4.266
1904.0,2.222,-9.123,2.659,1.163,1.561,4.133
1908.0,2.222,-9.123,2.659,1.163,1.561,4.133
1912.0,2.222,-9.123,3.255,1.163,1.561,4.133
1916.0,2.639,-8.522,3.255,0.977,1.536,3.916
1919.0,2.639,-8.522,3.255,0.977,1.536,3.916
1923.0,3.048,-8.59,3.823,0.598,1.414,3.633
1927.0,3.048,-8.59,3.823,0.598,1.414,3.633
1931.0,3.048,-8.59,3.823,0.598,1.414,3.633
1934.0,3.186,-9.186,4.229,0.146,1.237,3.324
1938.0,3.186,-9.186,4.229,0.146,1.237,3.324
1942.0,3.035,-9.942,4.538,0.146,1.237,3.324
1945.0,3.035,-9.942,4.538,-0.296,1.031,3.011
1949.0,3.035,-9.942,4.538,-0.296,1.031,3.011
1953.0,2.826,-10.548,4.926,-0.674,0.794,2.704
1957.0,2.826,-10.548,4.926,-0.674,0.794,2.704
1961.0,2.826,-10.548,4.926,-0.674,0.794,2.704
1965.0,2.87,-10.911,5.247,-0.965,0.522,2.423
1969.0,2.87,-10.911,5.247,-0.965,0.522,2.423
1973.0,3.063,-11.195,5.472,-1.17,0.241,2.18
1977.0,3.063,-11.195,5.472,-1.17,0.241,2.18
1980.0,3.063,-11.195,5.472,-1.17,0.241,2.18
1984.0,3.304,-11.448,5.613,-1.294,-0.031,1.974
1988.0,3.304,-11.448,5.613,-1.294,-0.031,1.974
1992.0,3.495,-11.704,5.396,-1.333,-0.264,1.794
1996.0,3.495,-11.704,5.396,-1.333,-0.264,1.794
2000.0,3.495,-11.704,5.396,-1.333,-0.264,1.794
2004.0,3.676,-11.902,5.117,-1.281,-0.434,1.637
2008.0,3.676,-11.902,5.117,-1.281,-0.434,1.637
2012.0,3.912,-11.943,4.86,-1.161,-0.529,1.496
2016.0,3.912,-11.943,4.86,-1.161,-0.529,1.496
2020.0,3.912,-11.943,4.656,-1.161,-0.529,1.496
2024.0,4.284,-11.864,4.656,-1.0,-0.557,1.364
2028.0,4.284,-11.864,4.656,-1.0,-0.557,1.364
2032.0,4.968,-11.679,4.823,-0.829,-0.539,1.232
2036.0,4.968,-11.679,4.823,-0.829,-0.539,1.232
2040.0,4.968,-11.411,5.174,-0.829,-0.539,1.232
2044.0,5.795,-11.411,5.174,-0.659,-0.503,1.091
2048.0,5.795,-11.411,5.174,-0.659,-0.503,1.091
2052.0,6.349,-11.024,5.145,-0.497,-0.467,0.935
2056.0,6.349,-11.024,5.145,-0.497,-0.467,0.935
2060.0,6.516,-10.556,4.938,-0.497,-0.467,0.935
2064.0,6.516,-10.556,4.938,-0.357,-0.418,0.769
2068.0,6.516,-10.556,4.938,-0.357,-0.418,0.769
2072.0,6.57,-10.158,4.909,-0.258,-0.368,0.612
2076.0,6.57,-10.158,4.909,-0.258,-0.368,0.612
2080.0,6.48,-9.815,4.641,-0.258,-0.368,0.479
2084.0,6.48,-9.815,4.641,-0.195,-0.335,0.479
2088.0,6.48,-9.815,4.641,-0.195,-0.335,0.479
2092.0,6.193,-9.47,4.381,-0.151,-0.3,0.364
2096.0,6.193,-9.47,4.381,-0.151,-0.3,0.364
2100.0,6.093,-9.249,4.245,-0.151,-0.3,0.364
2104.0,6.093,-9.249,4.245,-0.113,-0.274,0.278
2108.0,6.093,-9.249,4.245,-0.113,-0.274,0.278
2111.0,6.115,-9.111,4.321,-0.071,-0.247,0.228
2115.0,6.115,-9.111,4.321,-0.071,-0.247,0.228
2119.0,6.115,-9.026,4.445,-0.071,-0.247,0.228
2123.0,6.109,-9.026,4.445,-0.007,-0.226,0.196
2127.0,6.109,-9.026,4.445,-0.007,-0.226,0.196
2131.0,5.916,-8.785,4.32,0.083,-0.224,0.161
2135.0,5.916,-8.785,4.32,0.083,-0.224,0.161
2139.0,5.916,-8.785,4.32,0.083,-0.224,0.161
2142.0,5.61,-8.441,4.137,0.184,-0.209,0.128
2146.0,5.61,-8.441,4.137,0.184,-0.209,0.128
2150.0,5.485,-7.959,4.042,0.282,-0.171,0.118
2154.0,5.485,-7.959,4.042,0.282,-0.171,0.118
2158.0,5.485,-7.959,4.042,0.282,-0.171,0.118
2162.0,5.457,-7.201,4.07,0.375,-0.129,0.131
2165.0,5.457,-7.201,4.07,0.375,-0.129,0.131
2169.0,5.299,-6.239,3.925,0.375,-0.079,0.181
2173.0,5.299,-6.239,3.925,0.472,-0.079,0.181
2177.0,5.299,-6.239,3.925,0.472,-0.079,0.181
2181.0,5.237,-5.066,3.513,0.576,-0.007,0.297
2184.0,5.237,-5.066,3.513,0.576,-0.007,0.297
2188.0,5.237,-5.066,3.404,0.576,-0.007,0.297
2192.0,5.581,-3.991,3.404,0.682,0.1,0.496
2196.0,5.581,-3.991,3.404,0.682,0.1,0.496
2200.0,6.286,-3.298,3.756,0.786,0.205,0.759
2203.0,6.286,-3.298,3.756,0.786,0.205,0.759
2207.0,6.286,-3.298,3.756,0.786,0.205,0.759
2211.0,6.718,-2.841,3.92,0.89,0.284,1.038
2214.0,6.718,-2.841,3.92,0.89,0.284,1.038
2218.0,6.468,-2.449,3.571,0.89,0.284,1.038
2222.0,6.468,-2.449,3.571,0.992,0.368,1.32
2226.0,6.468,-2.449,3.571,0.992,0.368,1.32
2229.0,5.776,-2.354,3.368,1.076,0.485,1.612
2233.0,5.776,-2.354,3.368,1.076,0.485,1.612
2237.0,5.776,-2.354,3.368,1.076,0.485,1.612
2241.0,5.151,-2.427,3.252,1.129,0.612,1.891
2244.0,5.151,-2.427,3.252,1.129,0.612,1.891
2248.0,4.67,-2.402,3.001,1.129,0.756,2.125
2252.0,4.67,-2.402,3.001,1.158,0.756,2.125
2256.0,4.67,-2.402,3.001,1.158,0.756,2.125
2259.0,4.19,-2.409,2.895,1.165,0.952,2.316
2263.0,4.19,-2.409,2.895,1.165,0.952,2.316
2267.0,4.19,-2.409,2.895,1.165,0.952,2.316
2270.0,3.52,-2.444,2.925,1.154,1.19,2.485
2274.0,3.52,-2.444,2.925,1.154,1.19,2.485
2278.0,2.715,-2.403,2.955,1.15,1.424,2.646
2282.0,2.715,-2.403,2.955,1.15,1.424,2.646
2285.0,2.715,-2.403,2.955,1.15,1.424,2.646
2289.0,1.7,-2.466,3.46,1.18,1.638,2.806
2293.0,1.7,-2.466,3.46,1.18,1.638,2.806
2297.0,1.7,-2.466,3.46,1.18,1.638,2.806
2300.0,0.601,-2.666,4.125,1.256,1.782,2.961
2304.0,0.601,-2.666,4.125,1.256,1.782,2.961
2308.0,-0.352,-3.082,4.522,1.376,1.834,3.103
2312.0,-0.352,-3.082,4.522,1.376,1.834,3.103
2315.0,-0.352,-3.082,4.522,1.376,1.834,3.103
2319.0,-1.187,-3.67,4.754,1.529,1.827,3.201
2323.0,-1.187,-3.67,4.754,1.529,1.827,3.201
2327.0,-1.848,-4.051,4.286,1.529,1.827,3.233
2331.0,-1.848,-4.051,4.286,1.693,1.785,3.233
2335.0,-1.848,-4.051,4.286,1.693,1.785,3.233
2338.0,-2.597,-3.947,3.224,1.849,1.789,3.207
2342.0,-2.597,-3.947,3.224,1.849,1.789,3.207
2346.0,-2.597,-3.947,3.224,1.849,1.789,3.207
2350.0,-3.471,-4.056,2.614,1.994,1.893,3.161
2354.0,-3.471,-4.056,2.614,1.994,1.893,3.161
2357.0,-3.592,-4.551,2.32,2.146,2.037,3.094
2361.0,-3.592,-4.551,2.32,2.146,2.037,3.094
2365.0,-3.592,-4.551,2.32,2.146,2.037,3.094
2369.0,-3.309,-5.176,2.903,2.357,2.188,2.98
2373.0,-3.309,-5.176,2.903,2.357,2.188,2.98
2377.0,-3.282,-5.766,3.984,2.357,2.276,2.821
2380.0,-3.282,-5.766,3.984,2.666,2.276,2.821
2384.0,-3.282,-5.766,3.984,2.666,2.276,2.821
2388.0,-3.325,-5.939,4.141,3.054,2.264,2.656
2392.0,-3.325,-5.939,4.141,3.054,2.264,2.656
2396.0,-3.325,-5.786,3.787,3.054,2.264,2.656
2399.0,-3.55,-5.786,3.787,3.482,2.259,2.502
2403.0,-3.55,-5.786,3.787,3.482,2.259,2.502
2407.0,-3.578,-5.451,2.803,3.901,2.316,2.365
2411.0,-3.578,-5.451,2.803,3.901,2.316,2.365
2415.0,-3.578,-5.451,2.803,3.901,2.316,2.365
2419.0,-3.397,-5.212,1.898,4.268,2.485,2.226
2422.0,-3.397,-5.212,1.898,4.268,2.485,2.226
2426.0,-3.182,-5.107,1.531,4.59,2.764,2.032
2430.0,-3.182,-5.107,1.531,4.59,2.764,2.032
2434.0,-3.182,-5.107,1.531,4.59,2.764,2.032
2438.0,-2.978,-4.953,1.322,4.872,3.083,1.781
2441.0,-2.978,-4.953,1.322,4.872,3.083,1.781
2445.0,-3.011,-4.623,1.343,4.872,3.083,1.781
2449.0,-3.011,-4.623,1.343,4.991,3.42,1.494
2453.0,-3.011,-4.623,1.343,4.991,3.42,1.494
2457.0,-3.269,-4.317,1.393,4.995,3.775,1.182
2461.0,-3.269,-4.317,1.393,4.995,3.775,1.182
2464.0,-3.269,-4.317,1.393,4.995,3.775,1.182
2468.0,-3.8,-4.024,1.443,4.995,4.143,0.859
2472.0,-3.8,-4.024,1.443,4.995,4.143,0.859
2476.0,-4.597,-3.727,1.568,4.995,4.491,0.542
2480.0,-4.597,-3.727,1.568,4.995,4.491,0.542
2484.0,-4.597,-3.727,1.568,4.995,4.491,0.542
2487.0,-5.652,-3.22,1.868,4.995,4.78,0.23
2491.0,-5.652,-3.22,1.868,4.995,4.78,0.23
2495.0,-6.717,-2.609,1.909,4.995,4.952,-0.066
2499.0,-6.717,-2.609,1.909,4.995,4.952,-0.066
2503.0,-6.717,-2.609,1.909,4.995,4.952,-0.066
2507.0,-7.597,-2.042,1.737,4.995,5.009,-0.342
2511.0,-7.597,-2.042,1.737,4.995,5.009,-0.342
2514.0,-8.386,-1.597,1.396,4.995,5.009,-0.621
2518.0,-8.386,-1.597,1.396,4.995,5.015,-0.621
2522.0,-8.386,-1.597,1.396,4.995,5.015,-0.621
2526.0,-9.302,-1.149,1.172,4.995,5.015,-0.916
2530.0,-9.302,-1.149,1.172,4.995,5.015,-0.916
2534.0,-10.236,-0.729,0.974,4.995,5.015,-0.916
2538.0,-10.236,-0.729,0.974,4.995,5.015,-1.222
2542.0,-10.236,-0.729,0.974,4.995,5.015,-1.222
2546.0,-11.369,-0.094,0.892,4.995,5.015,-1.521
2550.0,-11.369,-0.094,0.892,4.995,5.015,-1.521
2554.0,-12.669,0.614,0.844,4.995,5.015,-1.789
2558.0,-12.669,0.614,0.844,4.995,5.015,-1.789
2562.0,-12.669,0.614,0.844,4.995,5.015,-1.789
2566.0,-14.003,1.082,0.936,4.995,5.015,-2.023
2570.0,-14.003,1.082,0.936,4.995,5.015,-2.023
2574.0,-15.354,1.482,1.309,4.995,5.015,-2.023
2577.0,-15.354,1.482,1.309,4.956,5.015,-2.24
2581.0,-15.354,1.482,1.309,4.956,5.015,-2.24
2585.0,-16.408,1.822,1.932,4.548,5.015,-2.44
2589.0,-16.408,1.822,1.932,4.548,5.015,-2.44
2593.0,-16.408,2.008,2.636,4.548,5.015,-2.44
2597.0,-16.927,2.008,2.636,3.919,4.964,-2.622
2601.0,-16.927,2.008,2.636,3.919,4.964,-2.622
2605.0,-17.107,2.42,3.256,3.28,4.759,-2.776
2609.0,-17.107,2.42,3.256,3.28,4.759,-2.776
2613.0,-17.107,2.42,3.633,3.28,4.759,-2.776
2616.0,-16.802,2.747,3.633,2.657,4.508,-2.868
2620.0,-16.802,2.747,3.633,2.657,4.508,-2.868
2624.0,-16.187,2.833,3.741,2.062,4.257,-2.891
2628.0,-16.187,2.833,3.741,2.062,4.257,-2.891
2632.0,-16.187,2.833,3.741,2.062,4.257,-2.891
2636.0,-15.706,2.844,3.743,1.516,4.04,-2.855
2640.0,-15.706,2.844,3.743,1.516,4.04,-2.855
2644.0,-15.434,2.539,3.773,1.048,3.868,-2.77
2648.0,-15.434,2.539,3.773,1.048,3.868,-2.77
2652.0,-15.434,2.539,3.773,1.048,3.868,-2.77
2656.0,-15.43,2.116,3.638,0.669,3.722,-2.662
2659.0,-15.43,2.116,3.638,0.669,3.722,-2.662
2663.0,-15.538,1.695,3.745,0.377,3.582,-2.549
2667.0,-15.538,1.695,3.745,0.377,3.582,-2.549
2671.0,-15.538,1.695,3.745,0.377,3.582,-2.549
2675.0,-15.748,1.439,3.694,0.169,3.418,-2.447
2679.0,-15.748,1.439,3.694,0.169,3.418,-2.447
2683.0,-15.825,1.336,3.535,0.023,3.247,-2.37
2687.0,-15.825,1.336,3.535,0.023,3.247,-2.37
2691.0,-15.825,1.336,3.535,0.023,3.247,-2.37
2695.0,-15.879,1.257,3.477,-0.086,3.082,-2.323
2699.0,-15.879,1.257,3.477,-0.086,3.082,-2.323
2703.0,-16.031,1.2,3.409,-0.164,2.926,-2.307
2707.0,-16.031,1.2,3.409,-0.164,2.926,-2.307
2711.0,-16.031,1.2,3.409,-0.164,2.926,-2.307
2715.0,-16.29,1.217,3.522,-0.218,2.778,-2.308
2719.0,-16.29,1.217,3.522,-0.218,2.778,-2.308
2723.0,-16.738,1.342,3.618,-0.265,2.622,-2.306
2727.0,-16.738,1.342,3.618,-0.265,2.622,-2.306
2731.0,-16.738,1.342,3.618,-0.265,2.622,-2.306
2735.0,-17.13,1.616,3.75,-0.322,2.45,-2.272
2739.0,-17.13,1.616,3.75,-0.322,2.45,-2.272
2743.0,-17.115,1.81,3.9,-0.391,2.25,-2.193
2747.0,-17.115,1.81,3.9,-0.391,2.25,-2.193
2751.0,-17.115,1.81,3.9,-0.391,2.25,-2.193
2755.0,-16.836,1.966,3.802,-0.47,2.025,-2.082
2759.0,-16.836,1.966,3.802,-0.47,2.025,-2.082
2762.0,-16.328,2.021,3.66,-0.565,1.808,-1.961
2766.0,-16.328,2.021,3.66,-0.565,1.808,-1.961
2770.0,-16.328,2.021,3.572,-0.565,1.808,-1.961
2774.0,-15.626,2.037,3.572,-0.68,1.604,-1.847
2778.0,-15.626,2.037,3.572,-0.68,1.604,-1.847
2782.0,-14.951,1.99,3.294,-0.813,1.412,-1.745
2786.0,-14.951,1.99,3.294,-0.813,1.412,-1.745
2790.0,-14.951,1.894,3.07,-0.813,1.412,-1.745
2794.0,-14.552,1.894,3.07,-0.965,1.245,-1.652
2798.0,-14.552,1.894,3.07,-0.965,1.245,-1.652
2802.0,-14.276,1.769,2.904,-1.135,1.096,-1.563
2806.0,-14.276,1.769,2.904,-1.135,1.096,-1.563
2810.0,-14.075,1.63,2.641,-1.135,1.096,-1.563
2814.0,-14.075,1.63,2.641,-1.312,0.955,-1.461
2818.0,-14.075,1.63,2.641,-1.312,0.955,-1.461
2822.0,-14.045,1.51,2.551,-1.504,0.83,-1.341
2826.0,-14.045,1.51,2.551,-1.504,0.83,-1.341
2830.0,-14.081,1.18,2.481,-1.504,0.83,-1.192
2834.0,-14.081,1.18,2.481,-1.693,0.708,-1.192
2838.0,-14.081,1.18,2.481,-1.693,0.708,-1.192
2842.0,-14.104,0.837,2.35,-1.859,0.592,-1.032
2846.0,-14.104,0.837,2.35,-1.859,0.592,-1.032
2850.0,-14.005,0.568,2.248,-1.859,0.482,-0.88
2854.0,-14.005,0.568,2.248,-2.008,0.482,-0.88
2858.0,-14.005,0.568,2.248,-2.008,0.482,-0.88
2862.0,-13.7,0.321,2.118,-2.146,0.371,-0.741
2866.0,-13.7,0.321,2.118,-2.146,0.371,-0.741
2870.0,-13.294,0.151,2.03,-2.276,0.258,-0.62
2874.0,-13.294,0.151,2.03,-2.276,0.258,-0.62
2878.0,-13.294,0.151,2.03,-2.276,0.258,-0.62
2882.0,-12.798,-0.033,1.965,-2.397,0.147,-0.51
2886.0,-12.798,-0.033,1.965,-2.397,0.147,-0.51
2890.0,-12.268,-0.227,1.799,-2.507,0.041,-0.41
2895.0,-12.268,-0.227,1.799,-2.507,0.041,-0.41
2899.0,-12.268,-0.227,1.799,-2.507,0.041,-0.41
2903.0,-11.691,-0.454,1.622,-2.606,-0.051,-0.323
2907.0,-11.691,-0.454,1.622,-2.606,-0.051,-0.323
2911.0,-11.28,-0.715,1.429,-2.695,-0.121,-0.248
2915.0,-11.28,-0.715,1.429,-2.695,-0.121,-0.248
2919.0,-11.146,-0.937,1.317,-2.695,-0.167,-0.178
2924.0,-11.146,-0.937,1.317,-2.773,-0.167,-0.178
2928.0,-11.146,-0.937,1.317,-2.773,-0.167,-0.178
2932.0,-11.067,-1.12,1.269,-2.834,-0.199,-0.102
2936.0,-11.067,-1.12,1.269,-2.834,-0.199,-0.102
2940.0,-10.915,-1.353,1.244,-2.875,-0.231,-0.021
2944.0,-10.915,-1.353,1.244,-2.875,-0.231,-0.021
2949.0,-10.748,-1.592,1.18,-2.875,-0.231,-0.021
2953.0,-10.748,-1.592,1.18,-2.898,-0.271,0.053
2957.0,-10.748,-1.592,1.18,-2.898,-0.271,0.053
2961.0,-10.57,-1.817,1.111,-2.902,-0.313,0.119
2965.0,-10.57,-1.817,1.111,-2.902,-0.313,0.119
2969.0,-10.445,-2.022,1.056,-2.885,-0.355,0.181
2973.0,-10.445,-2.022,1.056,-2.885,-0.355,0.181
2977.0,-10.445,-2.022,1.056,-2.885,-0.355,0.181
2981.0,-10.408,-2.241,0.934,-2.851,-0.399,0.241
2985.0,-10.408,-2.241,0.934,-2.851,-0.399,0.241
2989.0,-10.378,-2.399,0.82,-2.8,-0.444,0.302
2993.0,-10.378,-2.399,0.82,-2.8,-0.444,0.302
2998.0,-10.378,-2.399,0.696,-2.8,-0.444,0.302
