deltaTime,Acc_X,Acc_Y,Acc_Z,Gyro_X,Gyro_Y,Gyro_Z
0.0,-3.239,-3.504,5.326,1.822,-0.136,-0.742
3.0,-3.239,-3.504,5.326,1.822,-0.136,-0.742
6.0,-2.989,-3.757,5.273,1.75,-0.182,-0.812
9.0,-2.989,-3.757,5.273,1.75,-0.182,-0.812
12.0,-2.989,-3.757,5.273,1.75,-0.182,-0.812
15.0,-2.989,-3.757,5.149,1.75,-0.182,-0.812
18.0,-2.959,-3.837,5.149,1.694,-0.179,-0.889
21.0,-2.959,-3.837,5.149,1.694,-0.179,-0.889
24.0,-2.959,-3.837,5.149,1.694,-0.179,-0.889
27.0,-2.996,-3.657,5.053,1.66,-0.182,-0.958
30.0,-2.996,-3.657,5.053,1.66,-0.182,-0.958
33.0,-2.996,-3.657,5.053,1.66,-0.182,-0.958
37.0,-3.071,-3.591,4.944,1.634,-0.217,-1.015
41.0,-3.071,-3.591,4.944,1.634,-0.217,-1.015
45.0,-3.071,-3.377,4.772,1.634,-0.217,-1.015
48.0,-3.044,-3.377,4.772,1.604,-0.251,-1.057
52.0,-3.044,-3.377,4.772,1.604,-0.251,-1.057
56.0,-2.954,-3.224,4.551,1.555,-0.268,-1.082
60.0,-2.954,-3.224,4.551,1.555,-0.268,-1.082
64.0,-2.954,-3.224,4.551,1.555,-0.268,-1.082
68.0,-2.908,-3.108,4.256,1.491,-0.275,-1.093
71.0,-2.908,-3.108,4.256,1.491,-0.275,-1.093
75.0,-2.992,-3.126,4.136,1.402,-0.267,-1.092
79.0,-2.992,-3.126,4.136,1.402,-0.267,-1.092
83.0,-2.992,-3.126,4.136,1.402,-0.267,-1.092
87.0,-3.429,-3.278,4.168,1.289,-0.249,-1.086
90.0,-3.429,-3.278,4.168,1.289,-0.249,-1.086
94.0,-3.937,-3.225,4.509,1.289,-0.249,-1.086
98.0,-3.937,-3.225,4.509,1.15,-0.238,-1.072
102.0,-3.937,-3.225,4.509,1.15,-0.238,-1.072
106.0,-4.229,-3.072,5.092,0.97,-0.232,-1.063
110.0,-4.229,-3.072,5.092,0.97,-0.232,-1.063
114.0,-4.229,-3.072,5.81,0.97,-0.232,-1.063
118.0,-4.343,-3.461,5.81,0.783,-0.226,-1.08
121.0,-4.343,-3.461,5.81,0.783,-0.226,-1.08
125.0,-4.424,-3.742,6.497,0.674,-0.215,-1.113
129.0,-4.424,-3.742,6.497,0.674,-0.215,-1.113
133.0,-4.424,-3.742,6.497,0.674,-0.215,-1.113
137.0,-4.606,-3.402,7.182,0.644,-0.196,-1.131
141.0,-4.606,-3.402,7.182,0.644,-0.196,-1.131
145.0,-4.935,-2.751,7.752,0.626,-0.179,-1.112
149.0,-4.935,-2.751,7.752,0.626,-0.179,-1.112
153.0,-4.935,-2.751,7.752,0.626,-0.179,-1.112
157.0,-5.212,-2.087,8.035,0.574,-0.161,-1.04
161.0,-5.212,-2.087,8.035,0.574,-0.161,-1.04
164.0,-5.424,-1.851,8.219,0.477,-0.123,-0.918
168.0,-5.424,-1.851,8.219,0.477,-0.123,-0.918
172.0,-5.424,-1.851,8.219,0.477,-0.123,-0.918
176.0,-5.624,-1.874,8.605,0.358,-0.051,-0.779
180.0,-5.624,-1.874,8.605,0.358,-0.051,-0.779
184.0,-5.921,-2.001,9.322,0.23,0.061,-0.641
188.0,-5.921,-2.001,9.322,0.23,0.061,-0.641
192.0,-5.921,-2.001,9.322,0.23,0.061,-0.641
195.0,-6.386,-2.24,10.326,0.104,0.186,-0.498
199.0,-6.386,-2.24,10.326,0.104,0.186,-0.498
203.0,-7.001,-2.858,11.613,0.104,0.3,-0.356
207.0,-7.001,-2.858,11.613,0.007,0.3,-0.356
211.0,-7.001,-2.858,11.613,0.007,0.3,-0.356
215.0,-7.819,-3.768,12.835,0.012,0.378,-0.226
219.0,-7.819,-3.768,12.835,0.012,0.378,-0.226
223.0,-8.631,-4.731,13.898,0.012,0.378,-0.115
227.0,-8.631,-4.731,13.898,0.162,0.404,-0.115
231.0,-8.631,-4.731,13.898,0.162,0.404,-0.115
234.0,-8.928,-4.819,14.621,0.462,0.397,-0.005
238.0,-8.928,-4.819,14.621,0.462,0.397,-0.005
242.0,-9.128,-4.871,14.92,0.462,0.397,-0.005
246.0,-9.128,-4.871,14.92,0.776,0.371,0.1
250.0,-9.128,-4.871,14.92,0.776,0.371,0.1
254.0,-8.739,-5.294,14.804,1.139,0.321,0.246
258.0,-8.739,-5.294,14.804,1.139,0.321,0.246
261.0,-8.739,-5.294,14.804,1.139,0.321,0.246
265.0,-7.923,-4.225,13.736,1.553,0.259,0.36
269.0,-7.923,-4.225,13.736,1.553,0.259,0.36
273.0,-7.204,-2.268,12.204,1.73,0.179,0.338
277.0,-7.204,-2.268,12.204,1.73,0.179,0.338
281.0,-7.204,-2.268,12.204,1.73,0.179,0.338
284.0,-6.884,-1.427,11.173,1.596,0.071,0.217
288.0,-6.884,-1.427,11.173,1.596,0.071,0.217
292.0,-6.687,-0.779,10.71,1.596,-0.041,0.093
296.0,-6.687,-0.779,10.71,1.341,-0.041,0.093
300.0,-6.687,-0.779,10.71,1.341,-0.041,0.093
304.0,-6.949,-0.315,10.557,1.016,-0.113,0.023
308.0,-6.949,-0.315,10.557,1.016,-0.113,0.023
312.0,-7.801,-0.398,10.78,1.016,-0.113,0.051
315.0,-7.801,-0.398,10.78,0.612,-0.147,0.051
319.0,-7.801,-0.398,10.78,0.612,-0.147,0.051
323.0,-8.865,-0.885,11.18,0.173,-0.201,0.158
327.0,-8.865,-0.885,11.18,0.173,-0.201,0.158
331.0,-9.53,-1.476,11.432,0.173,-0.201,0.158
335.0,-9.53,-1.476,11.432,-0.229,-0.334,0.284
339.0,-9.53,-1.476,11.432,-0.229,-0.334,0.284
343.0,-9.454,-2.036,11.383,-0.559,-0.537,0.37
347.0,-9.454,-2.036,11.383,-0.559,-0.537,0.37
351.0,-8.953,-2.539,10.969,-0.559,-0.537,0.4
355.0,-8.953,-2.539,10.969,-0.81,-0.749,0.4
359.0,-8.953,-2.539,10.969,-0.81,-0.749,0.4
363.0,-8.308,-3.089,10.503,-0.989,-0.948,0.399
367.0,-8.308,-3.089,10.503,-0.989,-0.948,0.399
371.0,-7.638,-3.757,10.034,-0.989,-1.14,0.359
375.0,-7.638,-3.757,10.034,-1.095,-1.14,0.359
379.0,-7.638,-3.757,10.034,-1.095,-1.14,0.359
383.0,-7.113,-4.397,9.553,-1.123,-1.32,0.271
387.0,-7.113,-4.397,9.553,-1.123,-1.32,0.271
391.0,-6.872,-5.148,9.453,-1.123,-1.466,0.165
395.0,-6.872,-5.148,9.453,-1.081,-1.466,0.165
399.0,-6.872,-5.148,9.453,-1.081,-1.466,0.165
402.0,-6.927,-5.815,9.763,-0.968,-1.566,0.084
406.0,-6.927,-5.815,9.763,-0.968,-1.566,0.084
410.0,-7.296,-6.513,10.386,-0.968,-1.566,0.058
414.0,-7.296,-6.513,10.386,-0.792,-1.629,0.058
418.0,-7.296,-6.513,10.386,-0.792,-1.629,0.058
422.0,-7.676,-7.159,10.993,-0.574,-1.694,0.061
426.0,-7.676,-7.159,10.993,-0.574,-1.694,0.061
430.0,-7.648,-7.583,11.463,-0.574,-1.793,0.027
434.0,-7.648,-7.583,11.463,-0.323,-1.793,0.027
438.0,-7.648,-7.583,11.463,-0.323,-1.793,0.027
442.0,-6.928,-7.719,11.524,-0.035,-1.925,-0.093
446.0,-6.928,-7.719,11.524,-0.035,-1.925,-0.093
450.0,-5.85,-7.466,11.113,0.284,-2.043,-0.282
454.0,-5.85,-7.466,11.113,0.284,-2.043,-0.282
458.0,-5.85,-7.466,11.113,0.284,-2.043,-0.282
462.0,-4.979,-7.08,10.768,0.62,-2.136,-0.497
466.0,-4.979,-7.08,10.768,0.62,-2.136,-0.497
470.0,-4.393,-6.561,10.454,0.955,-2.243,-0.699
474.0,-4.393,-6.561,10.454,0.955,-2.243,-0.699
478.0,-4.393,-6.561,10.454,0.955,-2.243,-0.699
482.0,-3.907,-6.474,10.283,1.292,-2.38,-0.853
486.0,-3.907,-6.474,10.283,1.292,-2.38,-0.853
490.0,-3.22,-6.666,9.943,1.649,-2.542,-0.97
494.0,-3.22,-6.666,9.943,1.649,-2.542,-0.97
498.0,-3.22,-6.666,9.943,1.649,-2.542,-0.97
502.0,-2.427,-6.909,9.95,2.033,-2.699,-1.059
506.0,-2.427,-6.909,9.95,2.033,-2.699,-1.059
510.0,-1.813,-7.18,9.865,2.445,-2.851,-1.146
514.0,-1.813,-7.18,9.865,2.445,-2.851,-1.146
518.0,-1.813,-7.18,9.865,2.445,-2.851,-1.146
522.0,-1.544,-7.491,9.674,2.896,-2.999,-1.266
525.0,-1.544,-7.491,9.674,2.896,-2.999,-1.266
529.0,-1.639,-7.924,9.486,3.383,-3.148,-1.445
533.0,-1.639,-7.924,9.486,3.383,-3.148,-1.445
537.0,-1.639,-7.924,9.486,3.383,-3.148,-1.445
541.0,-1.928,-7.888,8.974,3.895,-3.307,-1.706
545.0,-1.928,-7.888,8.974,3.895,-3.307,-1.706
549.0,-2.171,-7.547,7.963,4.419,-3.438,-2.047
553.0,-2.171,-7.547,7.963,4.419,-3.438,-2.047
557.0,-2.171,-7.547,7.963,4.419,-3.438,-2.047
561.0,-2.386,-6.527,7.119,4.865,-3.518,-2.418
565.0,-2.386,-6.527,7.119,4.865,-3.518,-2.418
568.0,-2.603,-5.156,6.571,4.865,-3.578,-2.739
572.0,-2.603,-5.156,6.571,4.994,-3.578,-2.739
576.0,-2.603,-5.156,6.571,4.994,-3.578,-2.739
580.0,-2.924,-3.699,6.127,4.995,-3.649,-3.0
584.0,-2.924,-3.699,6.127,4.995,-3.649,-3.0
588.0,-3.291,-2.259,5.524,4.995,-3.649,-3.221
592.0,-3.291,-2.259,5.524,4.995,-3.744,-3.221
596.0,-3.291,-2.259,5.524,4.995,-3.744,-3.221
600.0,-3.251,-1.351,4.646,4.981,-3.853,-3.403
604.0,-3.251,-1.351,4.646,4.981,-3.853,-3.403
607.0,-2.905,-0.756,3.897,4.981,-3.853,-3.403
611.0,-2.905,-0.756,3.897,4.728,-3.924,-3.587
615.0,-2.905,-0.756,3.897,4.728,-3.924,-3.587
619.0,-2.928,-0.058,3.013,4.245,-3.955,-3.824
623.0,-2.928,-0.058,3.013,4.245,-3.955,-3.824
627.0,-2.928,0.918,2.08,4.245,-3.955,-3.824
631.0,-2.92,0.918,2.08,3.728,-3.958,-4.045
635.0,-2.92,0.918,2.08,3.728,-3.958,-4.045
638.0,-2.8,1.814,1.152,3.221,-3.92,-4.134
642.0,-2.8,1.814,1.152,3.221,-3.92,-4.134
646.0,-2.8,1.814,1.152,3.221,-3.92,-4.134
650.0,-2.592,2.478,0.319,2.779,-3.84,-4.07
654.0,-2.592,2.478,0.319,2.779,-3.84,-4.07
658.0,-2.764,3.058,-0.51,2.44,-3.723,-3.912
661.0,-2.764,3.058,-0.51,2.44,-3.723,-3.912
665.0,-2.764,3.058,-0.51,2.44,-3.723,-3.912
669.0,-2.83,3.461,-1.146,2.193,-3.584,-3.674
673.0,-2.83,3.461,-1.146,2.193,-3.584,-3.674
677.0,-2.584,3.685,-1.368,1.989,-3.426,-3.379
681.0,-2.584,3.685,-1.368,1.989,-3.426,-3.379
685.0,-2.584,3.685,-1.368,1.989,-3.426,-3.379
689.0,-2.367,4.249,-1.452,1.801,-3.223,-3.079
693.0,-2.367,4.249,-1.452,1.801,-3.223,-3.079
697.0,-2.552,5.134,-1.498,1.801,-3.223,-2.777
701.0,-2.552,5.134,-1.498,1.618,-2.977,-2.777
704.0,-2.552,5.134,-1.498,1.618,-2.977,-2.777
708.0,-2.614,5.796,-1.524,1.443,-2.719,-2.425
712.0,-2.614,5.796,-1.524,1.443,-2.719,-2.425
716.0,-2.414,6.243,-1.409,1.443,-2.719,-2.425
720.0,-2.414,6.243,-1.409,1.271,-2.443,-2.02
724.0,-2.414,6.243,-1.409,1.271,-2.443,-2.02
728.0,-2.432,6.65,-0.957,1.101,-2.145,-1.589
732.0,-2.432,6.65,-0.957,1.101,-2.145,-1.589
736.0,-2.556,6.899,-0.193,1.101,-2.145,-1.589
740.0,-2.556,6.899,-0.193,0.943,-1.85,-1.152
744.0,-2.556,6.899,-0.193,0.943,-1.85,-1.152
747.0,-2.32,6.892,0.635,0.815,-1.565,-0.724
751.0,-2.32,6.892,0.635,0.815,-1.565,-0.724
755.0,-2.32,6.892,0.635,0.815,-1.565,-0.724
759.0,-1.66,7.063,1.647,0.709,-1.271,-0.328
763.0,-1.66,7.063,1.647,0.709,-1.271,-0.328
767.0,-1.254,7.324,2.961,0.622,-0.952,0.033
770.0,-1.254,7.324,2.961,0.622,-0.952,0.033
774.0,-1.254,7.324,2.961,0.622,-0.952,0.033
778.0,-0.833,7.586,4.445,0.557,-0.642,0.373
781.0,-0.833,7.586,4.445,0.557,-0.642,0.373
785.0,-0.533,8.143,6.144,0.557,-0.642,0.373
789.0,-0.533,8.143,6.144,0.506,-0.351,0.662
793.0,-0.533,8.143,6.144,0.506,-0.351,0.662
796.0,-0.582,8.826,7.972,0.473,-0.114,0.896
800.0,-0.582,8.826,7.972,0.473,-0.114,0.896
804.0,-0.582,8.826,7.972,0.473,-0.114,0.896
808.0,-0.691,9.538,9.544,0.443,0.052,1.085
811.0,-0.691,9.538,9.544,0.443,0.052,1.085
815.0,-0.852,9.94,11.17,0.443,0.052,1.085
819.0,-0.852,9.94,11.17,0.403,0.157,1.23
822.0,-0.852,9.94,11.17,0.403,0.157,1.23
826.0,-0.762,10.042,12.654,0.344,0.181,1.313
830.0,-0.762,10.042,12.654,0.344,0.181,1.313
834.0,-0.762,10.042,12.654,0.344,0.181,1.313
838.0,-0.766,10.413,13.808,0.295,0.134,1.306
841.0,-0.766,10.413,13.808,0.295,0.134,1.306
845.0,-0.813,10.889,14.142,0.271,0.03,1.291
849.0,-0.813,10.889,14.142,0.271,0.03,1.291
853.0,-0.813,10.889,14.142,0.271,0.03,1.291
857.0,-0.038,11.209,13.796,0.249,-0.108,1.322
861.0,-0.038,11.209,13.796,0.249,-0.108,1.322
864.0,1.376,11.328,13.436,0.249,-0.108,1.349
868.0,1.376,11.328,13.436,0.217,-0.249,1.349
872.0,1.376,11.328,13.436,0.217,-0.249,1.349
876.0,2.495,11.274,13.23,0.191,-0.36,1.367
880.0,2.495,11.274,13.23,0.191,-0.36,1.367
884.0,2.495,11.274,13.122,0.191,-0.36,1.367
887.0,3.22,10.81,13.122,0.186,-0.455,1.417
891.0,3.22,10.81,13.122,0.186,-0.455,1.417
895.0,3.617,10.242,12.744,0.242,-0.559,1.422
899.0,3.617,10.242,12.744,0.242,-0.559,1.422
903.0,3.617,10.242,12.744,0.242,-0.559,1.422
906.0,4.254,9.641,12.006,0.343,-0.661,1.43
910.0,4.254,9.641,12.006,0.343,-0.661,1.43
914.0,4.976,9.045,11.138,0.343,-0.708,1.494
918.0,4.976,9.045,11.138,0.459,-0.708,1.494
921.0,4.976,9.045,11.138,0.459,-0.708,1.494
925.0,5.189,8.777,9.972,0.591,-0.72,1.559
929.0,5.189,8.777,9.972,0.591,-0.72,1.559
932.0,5.189,8.777,9.972,0.591,-0.72,1.559
936.0,5.045,9.026,8.703,0.694,-0.717,1.633
940.0,5.045,9.026,8.703,0.694,-0.717,1.633
943.0,4.834,9.432,7.46,0.694,-0.717,1.753
947.0,4.834,9.432,7.46,0.743,-0.685,1.753
951.0,4.834,9.432,7.46,0.743,-0.685,1.753
954.0,4.714,9.92,6.416,0.734,-0.608,1.912
958.0,4.714,9.92,6.416,0.734,-0.608,1.912
962.0,4.714,9.92,6.416,0.734,-0.608,1.912
965.0,4.555,10.225,5.808,0.672,-0.485,2.098
969.0,4.555,10.225,5.808,0.672,-0.485,2.098
973.0,4.116,10.565,5.57,0.672,-0.485,2.098
976.0,4.116,10.565,5.57,0.598,-0.35,2.271
980.0,4.116,10.565,5.57,0.598,-0.35,2.271
984.0,3.374,10.877,5.322,0.538,-0.233,2.469
988.0,3.374,10.877,5.322,0.538,-0.233,2.469
991.0,3.374,10.877,5.322,0.538,-0.233,2.469
995.0,2.992,10.884,5.21,0.449,-0.127,2.783
999.0,2.992,10.884,5.21,0.449,-0.127,2.783
1003.0,2.907,10.61,5.534,0.449,-0.127,3.168
1006.0,2.907,10.61,5.534,0.335,-0.002,3.168
1010.0,2.907,10.61,5.534,0.335,-0.002,3.168
1014.0,2.706,10.432,6.142,0.224,0.133,3.516
1018.0,2.706,10.432,6.142,0.224,0.133,3.516
1021.0,2.706,10.432,6.142,0.224,0.133,3.516
1025.0,2.46,10.402,6.939,0.133,0.277,3.832
1029.0,2.46,10.402,6.939,0.133,0.277,3.832
1033.0,2.107,10.279,8.015,0.046,0.414,4.153
1036.0,2.107,10.279,8.015,0.046,0.414,4.153
1040.0,2.107,10.279,8.015,0.046,0.414,4.153
1044.0,1.829,9.845,8.92,-0.053,0.504,4.471
1048.0,1.829,9.845,8.92,-0.053,0.504,4.471
1051.0,1.829,9.845,9.321,-0.053,0.504,4.471
1055.0,1.639,9.258,9.321,-0.165,0.529,4.733
1059.0,1.639,9.258,9.321,-0.165,0.529,4.733
1063.0,1.683,8.596,9.612,-0.307,0.484,4.925
1066.0,1.683,8.596,9.612,-0.307,0.484,4.925
1070.0,1.683,8.596,9.612,-0.307,0.484,4.925
1074.0,1.954,7.823,9.586,-0.498,0.376,5.008
1077.0,1.954,7.823,9.586,-0.498,0.376,5.008
1081.0,2.369,6.934,9.271,-0.498,0.376,5.008
1085.0,2.369,6.934,9.271,-0.733,0.231,5.013
1089.0,2.369,6.934,9.271,-0.733,0.231,5.013
1092.0,2.585,6.116,9.153,-1.003,0.064,5.013
1096.0,2.585,6.116,9.153,-1.003,0.064,5.013
1100.0,2.585,6.116,9.153,-1.003,0.064,5.013
1104.0,2.475,5.208,9.187,-1.309,-0.144,5.013
1107.0,2.475,5.208,9.187,-1.309,-0.144,5.013
1111.0,2.167,4.169,8.641,-1.309,-0.368,5.013
1115.0,2.167,4.169,8.641,-1.653,-0.368,5.013
1119.0,2.167,4.169,8.641,-1.653,-0.368,5.013
1123.0,1.75,3.291,7.81,-2.02,-0.588,5.013
1126.0,1.75,3.291,7.81,-2.02,-0.588,5.013
1130.0,1.75,3.291,6.746,-2.02,-0.588,5.013
1134.0,1.64,2.256,6.746,-2.401,-0.813,5.005
1138.0,1.64,2.256,6.746,-2.401,-0.813,5.005
1142.0,1.798,1.075,5.57,-2.812,-1.007,4.944
1146.0,1.798,1.075,5.57,-2.812,-1.007,4.944
1149.0,1.798,1.075,5.57,-2.812,-1.007,4.944
1153.0,2.026,-0.201,4.414,-3.254,-1.158,4.85
1157.0,2.026,-0.201,4.414,-3.254,-1.158,4.85
1161.0,2.337,-1.597,3.478,-3.697,-1.272,4.72
1165.0,2.337,-1.597,3.478,-3.697,-1.272,4.72
1169.0,2.337,-1.597,3.478,-3.697,-1.272,4.72
1173.0,2.253,-3.26,3.459,-4.099,-1.356,4.518
1177.0,2.253,-3.26,3.459,-4.099,-1.356,4.518
1181.0,1.394,-5.882,3.788,-4.416,-1.46,4.242
1184.0,1.394,-5.882,3.788,-4.416,-1.46,4.242
1188.0,1.394,-5.882,3.788,-4.416,-1.46,4.242
1192.0,0.077,-9.276,3.811,-4.556,-1.56,3.844
1196.0,0.077,-9.276,3.811,-4.556,-1.56,3.844
1200.0,-1.033,-11.481,3.076,-4.556,-1.625,3.329
1204.0,-1.033,-11.481,3.076,-4.444,-1.625,3.329
1208.0,-1.033,-11.481,3.076,-4.444,-1.625,3.329
1212.0,-1.057,-12.453,1.135,-4.148,-1.653,2.828
1216.0,-1.057,-12.453,1.135,-4.148,-1.653,2.828
1221.0,-0.11,-12.509,-0.988,-3.824,-1.592,2.41
1225.0,-0.11,-12.509,-0.988,-3.824,-1.592,2.41
1229.0,-0.11,-12.509,-0.988,-3.824,-1.592,2.41
1233.0,1.385,-12.575,-2.629,-3.558,-1.453,2.079
1237.0,1.385,-12.575,-2.629,-3.558,-1.453,2.079
1241.0,2.785,-13.311,-3.116,-3.252,-1.279,1.774
1245.0,2.785,-13.311,-3.116,-3.252,-1.279,1.774
1249.0,3.543,-14.214,-3.024,-3.252,-1.279,1.462
1253.0,3.543,-14.214,-3.024,-2.696,-1.102,1.462
1257.0,3.543,-14.214,-3.024,-2.696,-1.102,1.462
1262.0,3.62,-14.532,-3.008,-1.871,-0.926,1.144
1266.0,3.62,-14.532,-3.008,-1.871,-0.926,1.144
1270.0,3.255,-14.114,-3.029,-0.903,-0.729,0.909
1274.0,3.255,-14.114,-3.029,-0.903,-0.729,0.909
1278.0,3.255,-14.114,-3.029,-0.903,-0.729,0.909
1282.0,3.129,-13.34,-3.163,0.065,-0.506,0.778
1286.0,3.129,-13.34,-3.163,0.065,-0.506,0.778
1290.0,3.743,-12.296,-2.836,0.924,-0.252,0.686
1294.0,3.743,-12.296,-2.836,0.924,-0.252,0.686
1298.0,3.743,-12.296,-2.836,0.924,-0.252,0.686
1302.0,4.608,-10.889,-1.902,1.604,-0.028,0.591
1306.0,4.608,-10.889,-1.902,1.604,-0.028,0.591
1310.0,5.215,-9.313,-1.522,2.076,0.135,0.473
1314.0,5.215,-9.313,-1.522,2.076,0.135,0.473
1318.0,5.215,-9.313,-1.522,2.076,0.135,0.473
1321.0,5.62,-7.771,-1.58,2.336,0.306,0.356
1325.0,5.62,-7.771,-1.58,2.336,0.306,0.356
1329.0,5.844,-6.488,-1.235,2.395,0.496,0.28
1333.0,5.844,-6.488,-1.235,2.395,0.496,0.28
1337.0,5.844,-6.488,-1.235,2.395,0.496,0.28
1340.0,5.874,-5.622,-0.828,2.288,0.664,0.251
1344.0,5.874,-5.622,-0.828,2.288,0.664,0.251
1348.0,5.875,-5.051,-0.431,2.288,0.664,0.236
1352.0,5.875,-5.051,-0.431,2.076,0.829,0.236
1356.0,5.875,-5.051,-0.431,2.076,0.829,0.236
1360.0,5.972,-4.688,0.437,1.811,0.965,0.223
1363.0,5.972,-4.688,0.437,1.811,0.965,0.223
1367.0,5.972,-4.688,0.437,1.811,0.965,0.223
1371.0,5.981,-4.525,1.463,1.517,1.015,0.209
1374.0,5.981,-4.525,1.463,1.517,1.015,0.209
1378.0,5.696,-4.487,2.065,1.205,0.997,0.173
1382.0,5.696,-4.487,2.065,1.205,0.997,0.173
1386.0,5.696,-4.487,2.065,1.205,0.997,0.173
1389.0,5.394,-4.403,2.426,0.881,0.993,0.125
1393.0,5.394,-4.403,2.426,0.881,0.993,0.125
1397.0,5.394,-4.403,3.064,0.881,0.993,0.125
1401.0,5.439,-4.388,3.064,0.547,1.03,0.102
1404.0,5.439,-4.388,3.064,0.547,1.03,0.102
1408.0,5.776,-4.451,4.008,0.225,1.067,0.112
1412.0,5.776,-4.451,4.008,0.225,1.067,0.112
1416.0,5.776,-4.451,4.008,0.225,1.067,0.112
1419.0,6.118,-4.661,4.726,-0.054,1.043,0.123
1423.0,6.118,-4.661,4.726,-0.054,1.043,0.123
1427.0,6.296,-5.053,4.848,-0.054,1.043,0.096
1431.0,6.296,-5.053,4.848,-0.291,0.989,0.096
1435.0,6.296,-5.053,4.848,-0.291,0.989,0.096
1438.0,6.44,-5.511,4.98,-0.488,1.011,0.04
1442.0,6.44,-5.511,4.98,-0.488,1.011,0.04
1446.0,6.44,-5.511,4.98,-0.488,1.011,0.04
1450.0,6.443,-5.984,5.545,-0.634,1.069,0.001
1454.0,6.443,-5.984,5.545,-0.634,1.069,0.001
1457.0,6.305,-6.388,6.269,-0.711,1.044,-0.022
1461.0,6.305,-6.388,6.269,-0.711,1.044,-0.022
1465.0,6.305,-6.388,6.269,-0.711,1.044,-0.022
1469.0,6.093,-6.811,6.628,-0.713,0.953,-0.049
1473.0,6.093,-6.811,6.628,-0.713,0.953,-0.049
1477.0,5.83,-7.348,6.715,-0.675,0.88,-0.058
1481.0,5.83,-7.348,6.715,-0.675,0.88,-0.058
1485.0,5.83,-7.348,6.715,-0.675,0.88,-0.058
1489.0,5.591,-7.927,7.107,-0.619,0.829,-0.029
1493.0,5.591,-7.927,7.107,-0.619,0.829,-0.029
1497.0,5.566,-8.408,7.383,-0.53,0.732,-0.001
1500.0,5.566,-8.408,7.383,-0.53,0.732,-0.001
1504.0,5.566,-8.408,7.383,-0.53,0.732,-0.001
1508.0,5.916,-8.499,7.53,-0.427,0.601,-0.014
1512.0,5.916,-8.499,7.53,-0.427,0.601,-0.014
1516.0,6.236,-8.252,7.751,-0.427,0.471,-0.044
1520.0,6.236,-8.252,7.751,-0.345,0.471,-0.044
1524.0,6.236,-8.252,7.751,-0.345,0.471,-0.044
1528.0,6.102,-7.925,7.726,-0.31,0.338,-0.046
1532.0,6.102,-7.925,7.726,-0.31,0.338,-0.046
1536.0,5.409,-7.746,7.085,-0.31,0.338,0.03
1539.0,5.409,-7.746,7.085,-0.334,0.3,0.03
1543.0,5.409,-7.746,7.085,-0.334,0.3,0.03
1547.0,4.566,-7.867,7.025,-0.402,0.446,0.222
1551.0,4.566,-7.867,7.025,-0.402,0.446,0.222
1555.0,4.566,-7.867,7.814,-0.402,0.446,0.222
1559.0,4.052,-8.174,7.814,-0.448,0.649,0.504
1562.0,4.052,-8.174,7.814,-0.448,0.649,0.504
1566.0,4.359,-8.452,8.701,-0.402,0.782,0.765
1570.0,4.359,-8.452,8.701,-0.402,0.782,0.765
1574.0,4.359,-8.452,8.701,-0.402,0.782,0.765
1578.0,5.477,-8.321,9.4,-0.231,0.837,0.918
1581.0,5.477,-8.321,9.4,-0.231,0.837,0.918
1585.0,6.504,-7.534,9.742,0.04,0.836,0.96
1589.0,6.504,-7.534,9.742,0.04,0.836,0.96
1593.0,6.504,-7.534,9.742,0.04,0.836,0.96
1596.0,7.007,-6.396,9.569,0.348,0.776,0.957
1600.0,7.007,-6.396,9.569,0.348,0.776,0.957
1604.0,7.007,-6.396,9.569,0.348,0.776,0.957
1608.0,7.143,-5.413,8.933,0.624,0.709,0.995
1611.0,7.143,-5.413,8.933,0.624,0.709,0.995
1615.0,6.812,-4.702,8.127,0.835,0.642,1.087
1619.0,6.812,-4.702,8.127,0.835,0.642,1.087
1623.0,6.812,-4.702,8.127,0.835,0.642,1.087
1626.0,5.964,-4.065,7.237,0.98,0.552,1.174
1630.0,5.964,-4.065,7.237,0.98,0.552,1.174
1634.0,5.964,-4.065,6.363,0.98,0.552,1.174
1638.0,5.107,-3.566,6.363,1.052,0.483,1.272
1641.0,5.107,-3.566,6.363,1.052,0.483,1.272
1645.0,4.395,-3.473,6.215,1.059,0.501,1.435
1649.0,4.395,-3.473,6.215,1.059,0.501,1.435
1652.0,4.395,-3.473,6.215,1.059,0.501,1.435
1656.0,3.227,-3.799,6.403,1.036,0.578,1.652
1660.0,3.227,-3.799,6.403,1.036,0.578,1.652
1664.0,1.781,-4.289,6.292,1.036,0.578,1.652
1667.0,1.781,-4.289,6.292,1.002,0.706,1.889
1671.0,1.781,-4.289,6.292,1.002,0.706,1.889
1675.0,0.349,-4.8,6.046,0.956,0.893,2.138
1679.0,0.349,-4.8,6.046,0.956,0.893,2.138
1682.0,0.349,-4.8,6.046,0.956,0.893,2.138
1686.0,-0.894,-5.231,5.873,0.881,1.11,2.366
1690.0,-0.894,-5.231,5.873,0.881,1.11,2.366
1694.0,-1.976,-5.259,6.039,0.881,1.335,2.517
1697.0,-1.976,-5.259,6.039,0.784,1.335,2.517
1701.0,-1.976,-5.259,6.039,0.784,1.335,2.517
1705.0,-2.856,-4.97,6.473,0.669,1.541,2.608
1709.0,-2.856,-4.97,6.473,0.669,1.541,2.608
1713.0,-2.856,-5.259,6.904,0.669,1.541,2.608
1717.0,-3.455,-5.259,6.904,0.539,1.754,2.697
1720.0,-3.455,-5.259,6.904,0.539,1.754,2.697
1724.0,-3.939,-5.917,6.879,0.394,2.016,2.784
1728.0,-3.939,-5.917,6.879,0.394,2.016,2.784
1732.0,-3.939,-5.917,6.879,0.394,2.016,2.784
1736.0,-4.53,-6.335,6.526,0.223,2.263,2.837
1740.0,-4.53,-6.335,6.526,0.223,2.263,2.837
1743.0,-5.152,-6.351,6.608,0.027,2.424,2.83
1747.0,-5.152,-6.351,6.608,0.027,2.424,2.83
1751.0,-5.152,-6.351,6.608,0.027,2.424,2.83
1755.0,-5.642,-6.15,6.549,-0.188,2.457,2.787
1759.0,-5.642,-6.15,6.549,-0.188,2.457,2.787
1763.0,-5.873,-5.908,5.897,-0.188,2.457,2.744
1767.0,-5.873,-5.908,5.897,-0.426,2.409,2.744
1770.0,-5.873,-5.908,5.897,-0.426,2.409,2.744
1774.0,-5.777,-5.736,4.995,-0.688,2.401,2.705
1778.0,-5.777,-5.736,4.995,-0.688,2.401,2.705
1782.0,-5.501,-5.685,4.363,-0.688,2.401,2.705
1786.0,-5.501,-5.685,4.363,-0.946,2.503,2.675
1790.0,-5.501,-5.685,4.363,-0.946,2.503,2.675
1794.0,-5.185,-5.642,3.861,-1.167,2.692,2.666
1798.0,-5.185,-5.642,3.861,-1.167,2.692,2.666
1802.0,-5.185,-5.513,3.507,-1.167,2.692,2.666
1806.0,-5.079,-5.513,3.507,-1.327,2.924,2.687
1809.0,-5.079,-5.513,3.507,-1.327,2.924,2.687
1813.0,-5.272,-5.307,3.103,-1.416,3.154,2.742
1817.0,-5.272,-5.307,3.103,-1.416,3.154,2.742
1821.0,-5.272,-5.307,3.027,-1.416,3.154,2.742
1825.0,-5.758,-5.031,3.027,-1.437,3.351,2.834
1829.0,-5.758,-5.031,3.027,-1.437,3.351,2.834
1833.0,-6.425,-4.786,3.497,-1.394,3.47,2.966
1837.0,-6.425,-4.786,3.497,-1.394,3.47,2.966
1841.0,-6.425,-4.786,3.497,-1.394,3.47,2.966
1845.0,-6.983,-4.761,4.135,-1.299,3.467,3.131
1849.0,-6.983,-4.761,4.135,-1.299,3.467,3.131
1852.0,-7.124,-4.886,4.253,-1.151,3.355,3.308
1856.0,-7.124,-4.886,4.253,-1.151,3.355,3.308
1860.0,-7.124,-4.886,4.253,-1.151,3.355,3.308
1864.0,-6.79,-5.168,3.641,-0.962,3.209,3.478
1868.0,-6.79,-5.168,3.641,-0.962,3.209,3.478
1872.0,-6.044,-5.355,2.639,-0.758,3.136,3.624
1876.0,-6.044,-5.355,2.639,-0.758,3.136,3.624
1880.0,-6.044,-5.355,2.639,-0.758,3.136,3.624
1884.0,-5.142,-5.352,1.48,-0.548,3.217,3.745
1888.0,-5.142,-5.352,1.48,-0.548,3.217,3.745
1892.0,-4.345,-5.308,0.683,-0.325,3.478,3.849
1895.0,-4.345,-5.308,0.683,-0.325,3.478,3.849
1899.0,-4.345,-5.308,0.683,-0.325,3.478,3.849
1903.0,-3.884,-5.372,0.555,-0.068,3.872,3.932
1907.0,-3.884,-5.372,0.555,-0.068,3.872,3.932
1911.0,-3.974,-5.33,0.833,0.248,4.301,3.999
1915.0,-3.974,-5.33,0.833,0.248,4.301,3.999
1919.0,-3.974,-5.33,0.833,0.248,4.301,3.999
1922.0,-4.969,-5.149,1.741,0.623,4.668,4.06
1926.0,-4.969,-5.149,1.741,0.623,4.668,4.06
1930.0,-6.658,-4.987,2.8,0.623,4.668,4.06
1934.0,-6.658,-4.987,2.8,1.046,4.889,4.108
1938.0,-6.658,-4.987,2.8,1.046,4.889,4.108
1942.0,-8.761,-4.937,5.128,1.5,4.9,4.125
1945.0,-8.761,-4.937,5.128,1.5,4.9,4.125
1949.0,-8.761,-4.937,5.128,1.5,4.9,4.125
1953.0,-10.211,-5.014,6.322,1.957,4.606,4.094
1957.0,-10.211,-5.014,6.322,1.957,4.606,4.094
1961.0,-10.5,-5.057,5.962,2.358,4.152,4.009
1965.0,-10.5,-5.057,5.962,2.358,4.152,4.009
1969.0,-10.5,-5.057,5.962,2.358,4.152,4.009
1973.0,-9.597,-4.836,4.964,2.674,3.776,3.86
1976.0,-9.597,-4.836,4.964,2.674,3.776,3.86
1980.0,-7.649,-4.584,4.013,2.911,3.612,3.644
1984.0,-7.649,-4.584,4.013,2.911,3.612,3.644
1988.0,-7.649,-4.584,4.013,2.911,3.612,3.644
1992.0,-5.124,-4.496,3.13,3.118,3.691,3.343
1995.0,-5.124,-4.496,3.13,3.118,3.691,3.343
1999.0,-2.983,-4.36,2.855,3.118,3.691,3.343
2003.0,-2.983,-4.36,2.855,3.361,3.991,2.929
2007.0,-2.983,-4.36,2.855,3.361,3.991,2.929
2011.0,-3.064,-3.511,4.622,3.654,4.349,2.429
2015.0,-3.064,-3.511,4.622,3.654,4.349,2.429
2018.0,-3.064,-3.511,4.622,3.654,4.349,2.429
2022.0,-5.986,-1.953,6.9,3.938,4.38,1.99
2026.0,-5.986,-1.953,6.9,3.938,4.38,1.99
2030.0,-9.276,-0.681,6.829,4.092,3.979,1.721
2034.0,-9.276,-0.681,6.829,4.092,3.979,1.721
2038.0,-9.276,-0.681,6.829,4.092,3.979,1.721
2041.0,-11.319,0.361,5.68,4.063,3.493,1.52
2045.0,-11.319,0.361,5.68,4.063,3.493,1.52
2049.0,-11.958,1.031,4.935,4.063,3.137,1.346
2053.0,-11.958,1.031,4.935,3.832,3.137,1.346
2057.0,-11.958,1.031,4.935,3.832,3.137,1.346
2060.0,-11.742,1.114,5.069,3.427,2.953,1.177
2064.0,-11.742,1.114,5.069,3.427,2.953,1.177
2068.0,-11.742,1.114,5.055,3.427,2.953,1.177
2072.0,-11.465,1.001,5.055,2.931,2.942,0.983
2076.0,-11.465,1.001,5.055,2.931,2.942,0.983
2080.0,-11.484,0.969,5.052,2.407,3.11,0.769
2083.0,-11.484,0.969,5.052,2.407,3.11,0.769
2087.0,-11.484,0.969,5.052,2.407,3.11,0.769
2091.0,-12.057,0.903,5.555,1.907,3.373,0.544
2095.0,-12.057,0.903,5.555,1.907,3.373,0.544
2099.0,-13.331,0.819,6.27,1.459,3.591,0.319
2102.0,-13.331,0.819,6.27,1.459,3.591,0.319
2106.0,-13.331,0.819,6.27,1.459,3.591,0.319
2110.0,-15.294,0.762,6.674,1.054,3.678,0.126
2114.0,-15.294,0.762,6.674,1.054,3.678,0.126
2118.0,-17.527,0.567,6.694,1.054,3.678,0.126
2122.0,-17.527,0.567,6.694,0.678,3.638,-0.012
2125.0,-17.527,0.567,6.694,0.678,3.638,-0.012
2129.0,-19.464,0.111,6.559,0.339,3.512,-0.117
2133.0,-19.464,0.111,6.559,0.339,3.512,-0.117
2137.0,-19.464,0.111,6.586,0.339,3.512,-0.117
2141.0,-19.6,-0.511,6.586,0.069,3.319,-0.197
2145.0,-19.6,-0.511,6.586,0.069,3.319,-0.197
2149.0,-19.6,-1.311,6.701,-0.092,3.056,-0.229
2153.0,-19.6,-1.311,6.701,-0.092,3.056,-0.229
2157.0,-19.6,-2.032,6.784,-0.092,3.056,-0.229
2161.0,-19.6,-2.032,6.784,-0.141,2.749,-0.221
2165.0,-19.6,-2.032,6.784,-0.141,2.749,-0.221
2169.0,-19.6,-2.371,6.449,-0.097,2.469,-0.216
2174.0,-19.6,-2.371,6.449,-0.097,2.469,-0.216
2178.0,-19.309,-2.431,5.618,0.019,2.281,-0.229
2182.0,-19.309,-2.431,5.618,0.019,2.281,-0.229
2186.0,-19.309,-2.431,5.618,0.019,2.281,-0.229
2190.0,-19.062,-2.302,4.646,0.172,2.171,-0.246
2194.0,-19.062,-2.302,4.646,0.172,2.171,-0.246
2198.0,-18.951,-2.171,3.945,0.308,2.079,-0.246
2202.0,-18.951,-2.171,3.945,0.308,2.079,-0.246
2206.0,-18.951,-2.171,3.945,0.308,2.079,-0.246
2210.0,-18.69,-1.942,3.602,0.384,1.975,-0.236
2214.0,-18.69,-1.942,3.602,0.384,1.975,-0.236
2218.0,-17.995,-1.836,3.735,0.394,1.861,-0.229
2222.0,-17.995,-1.836,3.735,0.394,1.861,-0.229
2226.0,-17.995,-1.836,3.735,0.394,1.861,-0.229
2230.0,-17.277,-1.827,4.104,0.364,1.723,-0.25
2234.0,-17.277,-1.827,4.104,0.364,1.723,-0.25
2238.0,-16.601,-1.728,4.563,0.304,1.554,-0.304
2242.0,-16.601,-1.728,4.563,0.304,1.554,-0.304
2245.0,-16.601,-1.728,4.563,0.304,1.554,-0.304
2249.0,-16.528,-1.683,4.407,0.207,1.341,-0.384
2253.0,-16.528,-1.683,4.407,0.207,1.341,-0.384
2257.0,-15.656,-1.461,4.318,0.098,1.083,-0.472
2261.0,-15.656,-1.461,4.318,0.098,1.083,-0.472
2265.0,-15.656,-1.461,3.858,0.098,1.083,-0.472
2269.0,-14.469,-1.213,3.858,-0.033,0.813,-0.576
2274.0,-14.469,-1.213,3.858,-0.033,0.813,-0.576
2278.0,-13.515,-1.032,3.06,-0.188,0.554,-0.684
2282.0,-13.515,-1.032,3.06,-0.188,0.554,-0.684
2286.0,-12.663,-0.971,2.38,-0.188,0.554,-0.766
2290.0,-12.663,-0.971,2.38,-0.364,0.341,-0.766
2294.0,-12.663,-0.971,2.38,-0.364,0.341,-0.766
2298.0,-11.489,-1.11,2.118,-0.547,0.171,-0.813
2302.0,-11.489,-1.11,2.118,-0.547,0.171,-0.813
2306.0,-10.259,-1.363,2.073,-0.714,0.028,-0.844
2310.0,-10.259,-1.363,2.073,-0.714,0.028,-0.844
2314.0,-10.259,-1.363,2.073,-0.714,0.028,-0.844
2318.0,-9.306,-1.663,1.969,-0.851,-0.093,-0.876
2322.0,-9.306,-1.663,1.969,-0.851,-0.093,-0.876
2327.0,-8.705,-1.908,1.781,-0.957,-0.189,-0.895
2331.0,-8.705,-1.908,1.781,-0.957,-0.189,-0.895
2335.0,-8.705,-2.069,1.59,-0.957,-0.189,-0.895
2339.0,-8.329,-2.069,1.59,-1.035,-0.249,-0.884
2343.0,-8.329,-2.069,1.59,-1.035,-0.249,-0.884
2347.0,-8.108,-2.361,1.613,-1.078,-0.277,-0.827
2351.0,-8.108,-2.361,1.613,-1.078,-0.277,-0.827
2355.0,-8.066,-2.815,1.808,-1.068,-0.296,-0.74
2359.0,-8.066,-2.815,1.808,-1.068,-0.296,-0.74
2363.0,-8.066,-2.815,1.808,-1.068,-0.296,-0.74
2367.0,-8.221,-3.3,2.008,-0.992,-0.33,-0.651
2371.0,-8.221,-3.3,2.008,-0.992,-0.33,-0.651
2376.0,-8.584,-3.778,2.143,-0.842,-0.4,-0.579
2380.0,-8.584,-3.778,2.143,-0.842,-0.4,-0.579
2384.0,-8.584,-3.778,2.143,-0.842,-0.4,-0.579
2388.0,-9.065,-4.172,2.018,-0.626,-0.516,-0.536
2392.0,-9.065,-4.172,2.018,-0.626,-0.516,-0.536
2396.0,-9.485,-4.378,1.729,-0.353,-0.672,-0.517
2400.0,-9.485,-4.378,1.729,-0.353,-0.672,-0.517
2404.0,-9.59,-4.454,1.272,-0.353,-0.672,-0.517
2408.0,-9.59,-4.454,1.272,-0.043,-0.856,-0.513
2412.0,-9.59,-4.454,1.272,-0.043,-0.856,-0.513
2416.0,-9.361,-4.436,0.869,0.279,-1.039,-0.525
2420.0,-9.361,-4.436,0.869,0.279,-1.039,-0.525
2424.0,-8.916,-4.335,0.535,0.588,-1.204,-0.549
2428.0,-8.916,-4.335,0.535,0.588,-1.204,-0.549
2432.0,-8.916,-4.335,0.535,0.588,-1.204,-0.549
2436.0,-8.393,-4.185,0.208,0.87,-1.345,-0.573
2440.0,-8.393,-4.185,0.208,0.87,-1.345,-0.573
2444.0,-7.816,-4.012,0.011,1.114,-1.468,-0.592
2448.0,-7.816,-4.012,0.011,1.114,-1.468,-0.592
2452.0,-7.816,-4.012,0.011,1.114,-1.468,-0.592
2456.0,-7.242,-3.857,-0.045,1.309,-1.577,-0.606
2460.0,-7.242,-3.857,-0.045,1.309,-1.577,-0.606
2464.0,-6.733,-3.788,-0.173,1.445,-1.668,-0.614
2468.0,-6.733,-3.788,-0.173,1.445,-1.668,-0.614
2473.0,-6.733,-3.788,-0.173,1.445,-1.668,-0.614
2477.0,-6.395,-3.669,-0.301,1.521,-1.724,-0.618
2481.0,-6.395,-3.669,-0.301,1.521,-1.724,-0.618
2485.0,-6.16,-3.47,-0.31,1.544,-1.743,-0.618
2489.0,-6.16,-3.47,-0.31,1.544,-1.743,-0.618
2493.0,-6.027,-3.272,-0.305,1.544,-1.743,-0.61
2497.0,-6.027,-3.272,-0.305,1.523,-1.74,-0.61
2501.0,-6.027,-3.272,-0.305,1.523,-1.74,-0.61
2505.0,-5.927,-3.101,-0.22,1.462,-1.721,-0.594
2509.0,-5.927,-3.101,-0.22,1.462,-1.721,-0.594
2513.0,-5.769,-2.99,-0.076,1.372,-1.697,-0.577
2517.0,-5.769,-2.99,-0.076,1.372,-1.697,-0.577
2522.0,-5.769,-2.99,-0.076,1.372,-1.697,-0.577
2526.0,-5.596,-2.905,0.025,1.268,-1.674,-0.563
2530.0,-5.596,-2.905,0.025,1.268,-1.674,-0.563
2534.0,-5.382,-2.829,-0.028,1.159,-1.647,-0.553
2538.0,-5.382,-2.829,-0.028,1.159,-1.647,-0.553
2542.0,-5.382,-2.829,-0.184,1.159,-1.647,-0.553
2546.0,-5.096,-2.82,-0.184,1.046,-1.6,-0.549
2550.0,-5.096,-2.82,-0.184,1.046,-1.6,-0.549
2554.0,-4.74,-2.78,-0.328,0.926,-1.525,-0.561
2558.0,-4.74,-2.78,-0.328,0.926,-1.525,-0.561
2562.0,-4.376,-2.77,-0.394,0.926,-1.525,-0.593
2566.0,-4.376,-2.77,-0.394,0.803,-1.42,-0.593
2570.0,-4.376,-2.77,-0.394,0.803,-1.42,-0.593
2574.0,-4.058,-2.714,-0.385,0.679,-1.294,-0.636
2578.0,-4.058,-2.714,-0.385,0.679,-1.294,-0.636
2583.0,-3.82,-2.686,-0.304,0.556,-1.157,-0.675
2587.0,-3.82,-2.686,-0.304,0.556,-1.157,-0.675
2591.0,-3.82,-2.686,-0.304,0.556,-1.157,-0.675
2595.0,-3.701,-2.761,-0.124,0.447,-1.025,-0.701
2599.0,-3.701,-2.761,-0.124,0.447,-1.025,-0.701
2603.0,-3.678,-2.843,0.069,0.354,-0.916,-0.722
2607.0,-3.678,-2.843,0.069,0.354,-0.916,-0.722
2611.0,-3.678,-2.843,0.206,0.354,-0.916,-0.722
2615.0,-3.704,-2.92,0.206,0.282,-0.836,-0.743
2619.0,-3.704,-2.92,0.206,0.282,-0.836,-0.743
2623.0,-3.736,-3.106,0.345,0.231,-0.788,-0.77
2627.0,-3.736,-3.106,0.345,0.231,-0.788,-0.77
2631.0,-3.771,-3.224,0.405,0.231,-0.788,-0.77
2635.0,-3.771,-3.224,0.405,0.202,-0.769,-0.811
2639.0,-3.771,-3.224,0.405,0.202,-0.769,-0.811
2643.0,-3.774,-3.308,0.407,0.199,-0.764,-0.859
2647.0,-3.774,-3.308,0.407,0.199,-0.764,-0.859
2651.0,-3.758,-3.425,0.409,0.199,-0.764,-0.859
2655.0,-3.758,-3.425,0.409,0.214,-0.764,-0.909
2659.0,-3.758,-3.425,0.409,0.214,-0.764,-0.909
2663.0,-3.742,-3.583,0.388,0.236,-0.764,-0.964
2667.0,-3.742,-3.583,0.388,0.236,-0.764,-0.964
2671.0,-3.836,-3.816,0.357,0.236,-0.756,-1.023
2675.0,-3.836,-3.816,0.357,0.258,-0.756,-1.023
2679.0,-3.836,-3.816,0.357,0.258,-0.756,-1.023
2683.0,-4.147,-4.216,0.376,0.266,-0.736,-1.085
2687.0,-4.147,-4.216,0.376,0.266,-0.736,-1.085
2691.0,-4.725,-4.702,0.374,0.246,-0.694,-1.144
2695.0,-4.725,-4.702,0.374,0.246,-0.694,-1.144
2699.0,-4.725,-4.702,0.374,0.246,-0.694,-1.144
2703.0,-5.527,-5.33,0.419,0.192,-0.625,-1.184
2707.0,-5.527,-5.33,0.419,0.192,-0.625,-1.184
2711.0,-6.52,-6.21,0.514,0.096,-0.535,-1.197
2715.0,-6.52,-6.21,0.514,0.096,-0.535,-1.197
2719.0,-6.52,-6.21,0.514,0.096,-0.535,-1.197
2723.0,-7.87,-7.246,0.606,-0.041,-0.421,-1.184
2727.0,-7.87,-7.246,0.606,-0.041,-0.421,-1.184
2731.0,-9.746,-8.6,0.806,-0.207,-0.285,-1.14
2735.0,-9.746,-8.6,0.806,-0.207,-0.285,-1.14
2739.0,-9.746,-8.6,0.806,-0.207,-0.285,-1.14
2743.0,-12.266,-10.008,1.16,-0.376,-0.149,-1.085
2747.0,-12.266,-10.008,1.16,-0.376,-0.149,-1.085
2752.0,-14.917,-11.304,1.53,-0.493,-0.065,-1.035
2756.0,-14.917,-11.304,1.53,-0.493,-0.065,-1.035
2760.0,-16.516,-12.548,1.75,-0.52,-0.069,-1.017
2764.0,-16.516,-12.548,1.75,-0.52,-0.069,-1.017
2769.0,-16.516,-12.548,1.75,-0.52,-0.069,-1.017
2773.0,-16.811,-13.563,1.744,-0.462,-0.133,-1.054
2777.0,-16.811,-13.563,1.744,-0.462,-0.133,-1.054
2781.0,-16.756,-14.334,1.497,-0.324,-0.182,-1.113
2786.0,-16.756,-14.334,1.497,-0.324,-0.182,-1.113
2790.0,-16.978,-14.793,1.019,-0.116,-0.189,-1.133
2794.0,-16.978,-14.793,1.019,-0.116,-0.189,-1.133
2798.0,-16.978,-14.793,0.579,-0.116,-0.189,-1.133
2803.0,-17.256,-15.044,0.579,0.133,-0.183,-1.096
2807.0,-17.256,-15.044,0.579,0.133,-0.183,-1.096
2811.0,-17.551,-15.187,0.401,0.39,-0.175,-1.011
2815.0,-17.551,-15.187,0.401,0.39,-0.175,-1.011
2819.0,-17.778,-15.096,0.517,0.635,-0.167,-0.897
2824.0,-17.778,-15.096,0.517,0.635,-0.167,-0.897
2828.0,-17.778,-15.096,0.517,0.635,-0.167,-0.897
2832.0,-17.8,-14.384,0.669,0.839,-0.187,-0.785
2836.0,-17.8,-14.384,0.669,0.839,-0.187,-0.785
2840.0,-17.599,-13.348,0.847,0.958,-0.244,-0.695
2844.0,-17.599,-13.348,0.847,0.958,-0.244,-0.695
2849.0,-17.259,-12.269,1.01,0.958,-0.303,-0.63
2853.0,-17.259,-12.269,1.01,0.978,-0.303,-0.63
2857.0,-17.259,-12.269,1.01,0.978,-0.303,-0.63
2861.0,-16.033,-10.901,1.234,0.924,-0.35,-0.602
2865.0,-16.033,-10.901,1.234,0.924,-0.35,-0.602
2869.0,-13.869,-9.245,1.351,0.832,-0.407,-0.634
2873.0,-13.869,-9.245,1.351,0.832,-0.407,-0.634
2878.0,-13.869,-7.549,1.32,0.832,-0.407,-0.634
2882.0,-11.535,-7.549,1.32,0.73,-0.472,-0.737
2886.0,-11.535,-7.549,1.32,0.73,-0.472,-0.737
2890.0,-9.611,-6.166,1.131,0.637,-0.512,-0.873
2894.0,-9.611,-6.166,1.131,0.637,-0.512,-0.873
2898.0,-8.329,-5.191,0.824,0.637,-0.512,-0.979
2902.0,-8.329,-5.191,0.824,0.551,-0.488,-0.979
2906.0,-8.329,-5.191,0.824,0.551,-0.488,-0.979
2910.0,-7.593,-4.478,0.559,0.472,-0.39,-0.998
2914.0,-7.593,-4.478,0.559,0.472,-0.39,-0.998
2918.0,-7.379,-4.134,0.348,0.472,-0.24,-0.891
2922.0,-7.379,-4.134,0.348,0.396,-0.24,-0.891
2926.0,-7.379,-4.134,0.348,0.396,-0.24,-0.891
2930.0,-7.627,-4.169,0.16,0.322,-0.064,-0.669
2934.0,-7.627,-4.169,0.16,0.322,-0.064,-0.669
2938.0,-8.231,-4.29,0.099,0.253,0.109,-0.377
2942.0,-8.231,-4.29,0.099,0.253,0.109,-0.377
2945.0,-8.231,-4.29,0.099,0.253,0.109,-0.377
2949.0,-8.901,-4.372,0.173,0.199,0.219,-0.065
2953.0,-8.901,-4.372,0.173,0.199,0.219,-0.065
2957.0,-9.334,-4.217,0.181,0.199,0.237,0.209
2961.0,-9.334,-4.217,0.181,0.169,0.237,0.209
2965.0,-9.334,-4.217,0.181,0.169,0.237,0.209
2969.0,-9.58,-3.596,-0.069,0.166,0.187,0.43
2973.0,-9.58,-3.596,-0.069,0.166,0.187,0.43
2976.0,-9.526,-2.799,-0.534,0.166,0.187,0.43
2980.0,-9.526,-2.799,-0.534,0.188,0.123,0.624
2984.0,-9.526,-2.799,-0.534,0.188,0.123,0.624
2988.0,-9.105,-2.224,-1.037,0.225,0.082,0.82
2992.0,-9.105,-2.224,-1.037,0.225,0.082,0.82
2996.0,-9.105,-1.85,-1.448,0.225,0.082,0.82
3000.0,-8.718,-1.85,-1.448,0.251,0.089,1.013
