deltaTime,Acc_X,Acc_Y,Acc_Z,Gyro_X,Gyro_Y,Gyro_Z
0.0,-9.14,-1.762,1.424,0.587,-0.273,-0.245
3.0,-8.996,-1.702,1.437,0.515,-0.269,-0.272
6.0,-8.996,-1.702,1.437,0.515,-0.269,-0.272
9.0,-8.996,-1.702,1.437,0.515,-0.269,-0.272
12.0,-9.354,-1.788,1.567,0.429,-0.237,-0.283
15.0,-9.354,-1.788,1.567,0.429,-0.237,-0.283
18.0,-9.354,-1.788,1.567,0.429,-0.237,-0.283
21.0,-9.903,-1.901,1.665,0.352,-0.192,-0.278
24.0,-9.903,-1.901,1.665,0.352,-0.192,-0.278
27.0,-9.903,-1.901,1.665,0.352,-0.192,-0.278
30.0,-10.358,-1.988,1.903,0.352,-0.192,-0.278
33.0,-10.358,-1.988,1.903,0.29,-0.161,-0.26
37.0,-10.358,-1.988,1.903,0.29,-0.161,-0.26
41.0,-10.492,-1.985,2.185,0.244,-0.156,-0.239
45.0,-10.492,-1.985,2.185,0.244,-0.156,-0.239
49.0,-10.492,-1.985,2.185,0.244,-0.156,-0.239
53.0,-10.315,-2.063,2.427,0.201,-0.18,-0.223
56.0,-10.315,-2.063,2.427,0.201,-0.18,-0.223
60.0,-9.994,-2.138,2.38,0.163,-0.223,-0.214
64.0,-9.994,-2.138,2.38,0.163,-0.223,-0.214
68.0,-9.994,-2.138,2.38,0.163,-0.223,-0.214
72.0,-9.697,-2.229,2.152,0.128,-0.262,-0.227
76.0,-9.697,-2.229,2.152,0.128,-0.262,-0.227
80.0,-9.532,-2.444,1.836,0.128,-0.262,-0.247
83.0,-9.532,-2.444,1.836,0.108,-0.273,-0.247
87.0,-9.532,-2.444,1.836,0.108,-0.273,-0.247
91.0,-9.572,-2.576,1.862,0.118,-0.248,-0.267
95.0,-9.572,-2.576,1.862,0.118,-0.248,-0.267
99.0,-9.572,-2.576,2.057,0.118,-0.248,-0.267
102.0,-9.429,-2.597,2.057,0.168,-0.218,-0.292
106.0,-9.429,-2.597,2.057,0.168,-0.218,-0.292
110.0,-9.335,-2.521,2.27,0.25,-0.21,-0.321
114.0,-9.335,-2.521,2.27,0.25,-0.21,-0.321
118.0,-9.335,-2.521,2.27,0.25,-0.21,-0.321
122.0,-9.311,-2.359,2.364,0.342,-0.21,-0.343
126.0,-9.311,-2.359,2.364,0.342,-0.21,-0.343
130.0,-9.129,-2.34,2.471,0.42,-0.21,-0.357
134.0,-9.129,-2.34,2.471,0.42,-0.21,-0.357
138.0,-9.129,-2.34,2.471,0.42,-0.21,-0.357
141.0,-8.851,-2.325,2.585,0.483,-0.209,-0.367
145.0,-8.851,-2.325,2.585,0.483,-0.209,-0.367
149.0,-8.824,-2.312,2.747,0.523,-0.205,-0.373
153.0,-8.824,-2.312,2.747,0.523,-0.205,-0.373
157.0,-8.824,-2.312,2.747,0.523,-0.205,-0.373
161.0,-8.983,-2.304,2.834,0.544,-0.193,-0.367
165.0,-8.983,-2.304,2.834,0.544,-0.193,-0.367
169.0,-9.209,-2.314,2.856,0.546,-0.171,-0.341
173.0,-9.209,-2.314,2.856,0.546,-0.171,-0.341
177.0,-9.209,-2.314,2.856,0.546,-0.171,-0.341
181.0,-9.4,-2.381,3.011,0.529,-0.133,-0.299
184.0,-9.4,-2.381,3.011,0.529,-0.133,-0.299
188.0,-9.547,-2.542,3.451,0.51,-0.094,-0.26
192.0,-9.547,-2.542,3.451,0.51,-0.094,-0.26
196.0,-9.547,-2.542,3.451,0.51,-0.094,-0.26
200.0,-9.809,-2.864,3.854,0.524,-0.079,-0.23
204.0,-9.809,-2.864,3.854,0.524,-0.079,-0.23
208.0,-10.199,-3.199,4.257,0.524,-0.078,-0.201
212.0,-10.199,-3.199,4.257,0.594,-0.078,-0.201
216.0,-10.199,-3.199,4.257,0.594,-0.078,-0.201
220.0,-10.488,-3.48,4.503,0.716,-0.091,-0.173
224.0,-10.488,-3.48,4.503,0.716,-0.091,-0.173
228.0,-10.528,-3.621,4.61,0.874,-0.11,-0.152
232.0,-10.528,-3.621,4.61,0.874,-0.11,-0.152
236.0,-10.528,-3.621,4.61,0.874,-0.11,-0.152
240.0,-10.276,-4.066,4.847,1.048,-0.106,-0.125
244.0,-10.276,-4.066,4.847,1.048,-0.106,-0.125
248.0,-10.102,-4.188,5.106,1.257,-0.095,-0.113
252.0,-10.102,-4.188,5.106,1.257,-0.095,-0.113
256.0,-10.102,-4.188,5.106,1.257,-0.095,-0.113
260.0,-10.003,-4.109,5.133,1.488,-0.094,-0.139
264.0,-10.003,-4.109,5.133,1.488,-0.094,-0.139
268.0,-9.75,-3.481,4.97,1.688,-0.112,-0.182
272.0,-9.75,-3.481,4.97,1.688,-0.112,-0.182
276.0,-9.75,-3.481,4.97,1.688,-0.112,-0.182
279.0,-9.662,-2.545,4.714,1.724,-0.153,-0.285
283.0,-9.662,-2.545,4.714,1.724,-0.153,-0.285
287.0,-9.756,-2.76,4.324,1.61,-0.245,-0.389
291.0,-9.756,-2.76,4.324,1.61,-0.245,-0.389
295.0,-9.756,-2.76,4.324,1.61,-0.245,-0.389
299.0,-9.756,-2.868,4.133,1.527,-0.391,-0.43
303.0,-9.756,-2.868,4.133,1.527,-0.391,-0.43
307.0,-10.231,-2.589,4.004,1.499,-0.583,-0.461
311.0,-10.231,-2.589,4.004,1.499,-0.583,-0.461
315.0,-10.231,-2.589,4.004,1.499,-0.583,-0.461
319.0,-10.719,-1.923,4.125,1.428,-0.826,-0.503
323.0,-10.719,-1.923,4.125,1.428,-0.826,-0.503
327.0,-10.596,-1.743,4.595,1.253,-1.071,-0.559
331.0,-10.596,-1.743,4.595,1.253,-1.071,-0.559
335.0,-10.596,-1.743,4.595,1.253,-1.071,-0.559
339.0,-10.234,-1.697,4.977,1.024,-1.284,-0.634
343.0,-10.234,-1.697,4.977,1.024,-1.284,-0.634
347.0,-10.196,-1.838,5.401,0.759,-1.445,-0.73
351.0,-10.196,-1.838,5.401,0.759,-1.445,-0.73
355.0,-10.196,-1.838,5.401,0.759,-1.445,-0.73
359.0,-10.628,-1.916,6.135,0.505,-1.568,-0.831
363.0,-10.628,-1.916,6.135,0.505,-1.568,-0.831
367.0,-11.286,-1.98,6.84,0.288,-1.689,-0.916
371.0,-11.286,-1.98,6.84,0.288,-1.689,-0.916
375.0,-11.286,-1.98,6.84,0.288,-1.689,-0.916
379.0,-11.877,-2.316,7.629,0.1,-1.818,-0.979
383.0,-11.877,-2.316,7.629,0.1,-1.818,-0.979
387.0,-12.313,-2.841,8.176,-0.069,-1.969,-1.028
391.0,-12.313,-2.841,8.176,-0.069,-1.969,-1.028
395.0,-12.313,-2.841,8.392,-0.069,-1.969,-1.028
399.0,-12.409,-3.389,8.392,-0.222,-2.153,-1.08
403.0,-12.409,-3.389,8.392,-0.222,-2.153,-1.08
407.0,-12.278,-4.043,8.41,-0.349,-2.361,-1.155
411.0,-12.278,-4.043,8.41,-0.349,-2.361,-1.155
415.0,-12.069,-4.929,8.423,-0.349,-2.561,-1.268
419.0,-12.069,-4.929,8.423,-0.424,-2.561,-1.268
423.0,-12.069,-4.929,8.423,-0.424,-2.561,-1.268
428.0,-11.716,-5.752,8.632,-0.442,-2.724,-1.414
432.0,-11.716,-5.752,8.632,-0.442,-2.724,-1.414
436.0,-11.45,-6.407,8.936,-0.413,-2.852,-1.574
440.0,-11.45,-6.407,8.936,-0.413,-2.852,-1.574
444.0,-11.45,-6.407,8.936,-0.413,-2.852,-1.574
448.0,-11.337,-7.078,9.179,-0.337,-2.946,-1.728
452.0,-11.337,-7.078,9.179,-0.337,-2.946,-1.728
456.0,-11.173,-7.719,9.6,-0.208,-3.023,-1.873
460.0,-11.173,-7.719,9.6,-0.208,-3.023,-1.873
464.0,-10.86,-8.192,9.921,-0.208,-3.023,-1.873
468.0,-10.86,-8.192,9.921,-0.035,-3.127,-2.016
472.0,-10.86,-8.192,9.921,-0.035,-3.127,-2.016
476.0,-10.55,-8.625,9.989,0.156,-3.266,-2.165
480.0,-10.55,-8.625,9.989,0.156,-3.266,-2.165
484.0,-10.097,-9.17,9.912,0.156,-3.402,-2.328
488.0,-10.097,-9.17,9.912,0.335,-3.402,-2.328
492.0,-10.097,-9.17,9.912,0.335,-3.402,-2.328
496.0,-9.73,-9.93,9.808,0.488,-3.502,-2.507
500.0,-9.73,-9.93,9.808,0.488,-3.502,-2.507
504.0,-9.593,-10.624,9.58,0.614,-3.564,-2.704
508.0,-9.593,-10.624,9.58,0.614,-3.564,-2.704
512.0,-9.593,-10.624,9.58,0.614,-3.564,-2.704
516.0,-9.354,-11.185,9.372,0.704,-3.603,-2.902
520.0,-9.354,-11.185,9.372,0.704,-3.603,-2.902
524.0,-8.896,-11.749,9.376,0.769,-3.639,-3.094
528.0,-8.896,-11.749,9.376,0.769,-3.639,-3.094
532.0,-8.896,-11.749,9.376,0.769,-3.639,-3.094
536.0,-8.463,-12.465,9.47,0.841,-3.681,-3.306
540.0,-8.463,-12.465,9.47,0.841,-3.681,-3.306
544.0,-8.276,-13.235,9.409,0.95,-3.726,-3.566
548.0,-8.276,-13.235,9.409,0.95,-3.726,-3.566
552.0,-8.276,-13.235,9.409,0.95,-3.726,-3.566
556.0,-8.218,-13.658,9.281,1.097,-3.765,-3.863
560.0,-8.218,-13.658,9.281,1.097,-3.765,-3.863
564.0,-8.061,-14.109,9.255,1.262,-3.805,-4.157
568.0,-8.061,-14.109,9.255,1.262,-3.805,-4.157
572.0,-8.061,-14.109,9.255,1.262,-3.805,-4.157
576.0,-7.856,-14.334,9.331,1.424,-3.867,-4.444
580.0,-7.856,-14.334,9.331,1.424,-3.867,-4.444
584.0,-7.825,-14.576,9.839,1.575,-3.965,-4.713
588.0,-7.825,-14.576,9.839,1.575,-3.965,-4.713
592.0,-7.825,-14.576,10.018,1.575,-3.965,-4.713
596.0,-7.97,-14.743,10.018,1.695,-4.122,-4.935
600.0,-7.97,-14.743,10.018,1.695,-4.122,-4.935
604.0,-7.939,-14.989,9.121,1.786,-4.322,-4.995
608.0,-7.939,-14.989,9.121,1.786,-4.322,-4.995
612.0,-7.557,-14.722,7.866,1.786,-4.322,-4.995
616.0,-7.557,-14.722,7.866,1.869,-4.508,-4.995
620.0,-7.557,-14.722,7.866,1.869,-4.508,-4.995
624.0,-6.59,-13.661,6.424,1.979,-4.647,-4.995
628.0,-6.59,-13.661,6.424,1.979,-4.647,-4.995
632.0,-5.426,-11.999,4.957,1.979,-4.647,-4.995
636.0,-5.426,-11.999,4.957,2.159,-4.702,-4.995
640.0,-5.426,-11.999,4.957,2.159,-4.702,-4.995
644.0,-4.472,-10.281,3.736,2.42,-4.668,-4.995
648.0,-4.472,-10.281,3.736,2.42,-4.668,-4.995
652.0,-3.798,-8.73,2.801,2.42,-4.574,-4.995
656.0,-3.798,-8.73,2.801,2.746,-4.574,-4.995
660.0,-3.798,-8.73,2.801,2.746,-4.574,-4.995
664.0,-3.322,-7.519,2.073,3.137,-4.436,-4.995
668.0,-3.322,-7.519,2.073,3.137,-4.436,-4.995
672.0,-2.86,-6.756,1.571,3.137,-4.436,-4.995
676.0,-2.86,-6.756,1.571,3.578,-4.263,-4.995
680.0,-2.86,-6.756,1.571,3.578,-4.263,-4.995
683.0,-2.606,-6.105,0.939,4.044,-4.062,-4.995
687.0,-2.606,-6.105,0.939,4.044,-4.062,-4.995
691.0,-2.495,-5.429,0.291,4.044,-4.062,-4.995
695.0,-2.495,-5.429,0.291,4.492,-3.826,-4.995
699.0,-2.495,-5.429,0.291,4.492,-3.826,-4.995
703.0,-2.268,-5.023,-0.217,4.863,-3.563,-4.965
707.0,-2.268,-5.023,-0.217,4.863,-3.563,-4.965
711.0,-2.174,-4.58,-0.629,4.863,-3.563,-4.965
715.0,-2.174,-4.58,-0.629,4.993,-3.286,-4.826
719.0,-2.174,-4.58,-0.629,4.993,-3.286,-4.826
723.0,-2.171,-4.222,-0.991,4.995,-3.015,-4.656
727.0,-2.171,-4.222,-0.991,4.995,-3.015,-4.656
731.0,-2.139,-4.02,-1.289,4.995,-3.015,-4.501
735.0,-2.139,-4.02,-1.289,4.995,-2.76,-4.501
739.0,-2.139,-4.02,-1.289,4.995,-2.76,-4.501
743.0,-2.2,-3.601,-1.399,4.995,-2.527,-4.383
747.0,-2.2,-3.601,-1.399,4.995,-2.527,-4.383
751.0,-2.444,-2.961,-1.375,4.995,-2.329,-4.29
755.0,-2.444,-2.961,-1.375,4.995,-2.329,-4.29
759.0,-2.444,-2.961,-1.375,4.995,-2.329,-4.29
763.0,-2.813,-2.012,-1.286,4.995,-2.171,-4.19
767.0,-2.813,-2.012,-1.286,4.995,-2.171,-4.19
771.0,-3.182,-0.55,-0.903,4.995,-2.057,-4.054
775.0,-3.182,-0.55,-0.903,4.995,-2.057,-4.054
779.0,-3.182,-0.55,-0.903,4.995,-2.057,-4.054
783.0,-3.43,0.964,-0.536,4.994,-1.983,-3.868
787.0,-3.43,0.964,-0.536,4.994,-1.983,-3.868
791.0,-3.51,2.371,-0.031,4.889,-1.932,-3.658
795.0,-3.51,2.371,-0.031,4.889,-1.932,-3.658
799.0,-3.51,2.371,-0.031,4.889,-1.932,-3.658
802.0,-3.48,3.514,0.314,4.575,-1.904,-3.459
806.0,-3.48,3.514,0.314,4.575,-1.904,-3.459
810.0,-3.279,4.721,0.655,4.575,-1.897,-3.274
814.0,-3.279,4.721,0.655,4.21,-1.897,-3.274
818.0,-3.279,4.721,0.655,4.21,-1.897,-3.274
822.0,-3.054,5.787,0.966,3.807,-1.899,-3.091
825.0,-3.054,5.787,0.966,3.807,-1.899,-3.091
829.0,-3.054,5.787,1.311,3.807,-1.899,-3.091
833.0,-2.634,7.064,1.311,3.373,-1.899,-2.911
837.0,-2.634,7.064,1.311,3.373,-1.899,-2.911
841.0,-1.96,8.313,1.577,2.906,-1.893,-2.745
844.0,-1.96,8.313,1.577,2.906,-1.893,-2.745
848.0,-1.96,8.313,1.577,2.906,-1.893,-2.745
852.0,-1.216,9.641,1.789,2.394,-1.875,-2.59
856.0,-1.216,9.641,1.789,2.394,-1.875,-2.59
860.0,-0.237,10.735,1.751,1.838,-1.85,-2.425
864.0,-0.237,10.735,1.751,1.838,-1.85,-2.425
868.0,-0.237,10.735,1.751,1.838,-1.85,-2.425
871.0,0.738,11.58,1.662,1.269,-1.79,-2.222
875.0,0.738,11.58,1.662,1.269,-1.79,-2.222
879.0,1.408,12.124,1.611,1.269,-1.79,-1.99
883.0,1.408,12.124,1.611,0.729,-1.691,-1.99
887.0,1.408,12.124,1.611,0.729,-1.691,-1.99
891.0,1.908,12.712,1.589,0.258,-1.578,-1.754
894.0,1.908,12.712,1.589,0.258,-1.578,-1.754
898.0,1.908,12.712,1.65,0.258,-1.578,-1.754
902.0,2.445,13.238,1.65,-0.115,-1.461,-1.506
906.0,2.445,13.238,1.65,-0.115,-1.461,-1.506
910.0,2.964,13.661,1.732,-0.356,-1.343,-1.22
914.0,2.964,13.661,1.732,-0.356,-1.343,-1.22
918.0,2.964,13.661,1.732,-0.356,-1.343,-1.22
922.0,3.348,13.868,1.832,-0.46,-1.219,-0.878
925.0,3.348,13.868,1.832,-0.46,-1.219,-0.878
929.0,3.699,13.909,1.944,-0.437,-1.085,-0.508
933.0,3.699,13.909,1.944,-0.437,-1.085,-0.508
937.0,3.699,13.909,1.944,-0.437,-1.085,-0.508
941.0,4.157,13.658,2.086,-0.312,-0.946,-0.147
945.0,4.157,13.658,2.086,-0.312,-0.946,-0.147
949.0,4.695,13.302,2.247,-0.128,-0.805,0.177
953.0,4.695,13.302,2.247,-0.128,-0.805,0.177
956.0,4.695,13.302,2.247,-0.128,-0.805,0.177
960.0,5.188,13.178,2.345,0.08,-0.65,0.464
964.0,5.188,13.178,2.345,0.08,-0.65,0.464
968.0,5.572,13.393,2.239,0.08,-0.65,0.464
972.0,5.572,13.393,2.239,0.282,-0.472,0.736
975.0,5.572,13.393,2.239,0.282,-0.472,0.736
979.0,5.902,13.677,1.842,0.447,-0.273,1.016
983.0,5.902,13.677,1.842,0.447,-0.273,1.016
986.0,5.902,13.677,1.842,0.447,-0.273,1.016
990.0,6.194,13.79,1.395,0.553,-0.048,1.296
994.0,6.194,13.79,1.395,0.553,-0.048,1.296
998.0,6.437,13.893,1.018,0.553,0.203,1.582
1001.0,6.437,13.893,1.018,0.602,0.203,1.582
1005.0,6.437,13.893,1.018,0.602,0.203,1.582
1009.0,6.468,13.802,1.043,0.625,0.476,1.856
1012.0,6.468,13.802,1.043,0.625,0.476,1.856
1016.0,6.468,13.802,1.043,0.625,0.476,1.856
1020.0,6.236,13.694,1.207,0.667,0.727,2.101
1024.0,6.236,13.694,1.207,0.667,0.727,2.101
1027.0,6.065,13.523,1.69,0.729,0.925,2.356
1031.0,6.065,13.523,1.69,0.729,0.925,2.356
1035.0,6.065,13.523,1.69,0.729,0.925,2.356
1039.0,5.985,13.4,2.398,0.818,1.074,2.592
1042.0,5.985,13.4,2.398,0.818,1.074,2.592
1046.0,5.985,13.4,2.398,0.818,1.074,2.592
1050.0,5.882,13.362,3.13,0.932,1.187,2.8
1054.0,5.882,13.362,3.13,0.932,1.187,2.8
1057.0,5.681,13.329,3.847,1.068,1.275,3.003
1061.0,5.681,13.329,3.847,1.068,1.275,3.003
1065.0,5.681,13.329,3.847,1.068,1.275,3.003
1068.0,5.473,13.463,4.787,1.199,1.348,3.211
1072.0,5.473,13.463,4.787,1.199,1.348,3.211
1076.0,5.473,13.463,5.454,1.199,1.348,3.211
1080.0,5.392,13.576,5.454,1.297,1.397,3.394
1083.0,5.392,13.576,5.454,1.297,1.397,3.394
1087.0,5.329,13.676,5.923,1.318,1.446,3.543
1091.0,5.329,13.676,5.923,1.318,1.446,3.543
1095.0,5.329,13.676,5.923,1.318,1.446,3.543
1098.0,5.486,13.53,6.159,1.225,1.488,3.653
1102.0,5.486,13.53,6.159,1.225,1.488,3.653
1106.0,5.779,13.196,6.098,1.225,1.488,3.653
1110.0,5.779,13.196,6.098,1.017,1.513,3.707
1113.0,5.779,13.196,6.098,1.017,1.513,3.707
1117.0,6.193,12.728,5.97,0.704,1.528,3.714
1121.0,6.193,12.728,5.97,0.704,1.528,3.714
1124.0,6.193,12.728,5.97,0.704,1.528,3.714
1128.0,6.456,12.119,5.909,0.31,1.537,3.706
1132.0,6.456,12.119,5.909,0.31,1.537,3.706
1136.0,6.48,11.524,6.019,0.31,1.537,3.709
1139.0,6.48,11.524,6.019,-0.117,1.539,3.709
1143.0,6.48,11.524,6.019,-0.117,1.539,3.709
1147.0,6.266,10.86,6.194,-0.538,1.525,3.74
1151.0,6.266,10.86,6.194,-0.538,1.525,3.74
1155.0,6.266,10.86,6.194,-0.538,1.525,3.74
1158.0,5.864,10.121,6.414,-0.931,1.486,3.805
1162.0,5.864,10.121,6.414,-0.931,1.486,3.805
1166.0,5.27,9.297,6.623,-1.277,1.422,3.903
1170.0,5.27,9.297,6.623,-1.277,1.422,3.903
1174.0,5.27,9.297,6.623,-1.277,1.422,3.903
1177.0,4.486,8.318,6.762,-1.566,1.33,4.034
1181.0,4.486,8.318,6.762,-1.566,1.33,4.034
1185.0,3.714,7.354,6.752,-1.566,1.33,4.034
1189.0,3.714,7.354,6.752,-1.786,1.224,4.177
1192.0,3.714,7.354,6.752,-1.786,1.224,4.177
1196.0,2.829,6.48,6.645,-1.942,1.112,4.322
1200.0,2.829,6.48,6.645,-1.942,1.112,4.322
1203.0,2.829,6.48,6.645,-1.942,1.112,4.322
1207.0,1.911,5.771,6.418,-2.063,1.003,4.465
1211.0,1.911,5.771,6.418,-2.063,1.003,4.465
1215.0,1.067,5.164,5.958,-2.063,1.003,4.606
1218.0,1.067,5.164,5.958,-2.188,0.912,4.606
1222.0,1.067,5.164,5.958,-2.188,0.912,4.606
1226.0,0.588,4.352,5.454,-2.358,0.848,4.764
1230.0,0.588,4.352,5.454,-2.358,0.848,4.764
1233.0,0.588,4.352,5.454,-2.358,0.848,4.764
1237.0,0.299,3.345,4.799,-2.588,0.807,4.924
1241.0,0.299,3.345,4.799,-2.588,0.807,4.924
1245.0,-0.144,2.222,3.994,-2.588,0.802,5.007
1248.0,-0.144,2.222,3.994,-2.869,0.802,5.007
1252.0,-0.144,2.222,3.994,-2.869,0.802,5.007
1256.0,-0.983,0.83,3.404,-3.186,0.819,5.013
1260.0,-0.983,0.83,3.404,-3.186,0.819,5.013
1264.0,-0.983,-0.936,2.912,-3.186,0.819,5.013
1268.0,-2.206,-0.936,2.912,-3.523,0.815,5.013
1271.0,-2.206,-0.936,2.912,-3.523,0.815,5.013
1275.0,-3.776,-3.139,3.039,-3.875,0.767,5.013
1279.0,-3.776,-3.139,3.039,-3.875,0.767,5.013
1283.0,-3.776,-3.139,3.959,-3.875,0.767,5.013
1287.0,-5.45,-6.252,3.959,-4.23,0.635,5.013
1291.0,-5.45,-6.252,3.959,-4.23,0.635,5.013
1295.0,-6.533,-9.336,4.234,-4.527,0.382,4.867
1299.0,-6.533,-9.336,4.234,-4.527,0.382,4.867
1303.0,-6.533,-9.336,4.234,-4.527,0.382,4.867
1307.0,-7.093,-11.279,3.614,-4.684,0.049,4.249
1311.0,-7.093,-11.279,3.614,-4.684,0.049,4.249
1315.0,-7.603,-12.081,2.573,-4.674,-0.309,3.485
1319.0,-7.603,-12.081,2.573,-4.674,-0.309,3.485
1323.0,-7.603,-12.081,1.033,-4.674,-0.309,3.485
1327.0,-7.994,-11.673,1.033,-4.498,-0.642,2.838
1331.0,-7.994,-11.673,1.033,-4.498,-0.642,2.838
1335.0,-7.287,-11.282,-0.547,-4.15,-0.889,2.428
1339.0,-7.287,-11.282,-0.547,-4.15,-0.889,2.428
1343.0,-5.12,-11.185,-1.318,-3.679,-1.051,2.156
1347.0,-5.12,-11.185,-1.318,-3.679,-1.051,2.156
1352.0,-5.12,-11.185,-1.318,-3.679,-1.051,2.156
1356.0,-2.61,-11.023,-1.515,-3.2,-1.18,1.921
1360.0,-2.61,-11.023,-1.515,-3.2,-1.18,1.921
1364.0,-0.17,-11.115,-1.507,-2.774,-1.293,1.682
1368.0,-0.17,-11.115,-1.507,-2.774,-1.293,1.682
1372.0,2.213,-11.531,-1.656,-2.774,-1.293,1.682
1377.0,2.213,-11.531,-1.656,-2.368,-1.359,1.414
1381.0,2.213,-11.531,-1.656,-2.368,-1.359,1.414
1385.0,3.937,-11.593,-1.866,-1.947,-1.353,1.133
1389.0,3.937,-11.593,-1.866,-1.947,-1.353,1.133
1393.0,5.027,-11.328,-1.899,-1.521,-1.292,0.895
1397.0,5.027,-11.328,-1.899,-1.521,-1.292,0.895
1401.0,5.027,-11.328,-1.899,-1.521,-1.292,0.895
1405.0,6.002,-10.834,-1.44,-1.13,-1.197,0.749
1409.0,6.002,-10.834,-1.44,-1.13,-1.197,0.749
1413.0,7.481,-10.306,-0.581,-0.803,-1.091,0.71
1417.0,7.481,-10.306,-0.581,-0.803,-1.091,0.71
1421.0,7.481,-10.306,0.329,-0.803,-1.091,0.71
1425.0,8.909,-9.881,0.329,-0.536,-0.973,0.729
1429.0,8.909,-9.881,0.329,-0.536,-0.973,0.729
1433.0,9.769,-9.474,0.901,-0.287,-0.826,0.746
1437.0,9.769,-9.474,0.901,-0.287,-0.826,0.746
1441.0,9.769,-9.474,1.071,-0.287,-0.826,0.746
1445.0,9.636,-9.106,1.071,-0.039,-0.636,0.758
1449.0,9.636,-9.106,1.071,-0.039,-0.636,0.758
1453.0,8.901,-8.809,1.052,0.2,-0.437,0.795
1457.0,8.901,-8.809,1.052,0.2,-0.437,0.795
1460.0,8.901,-8.809,1.052,0.2,-0.437,0.795
1464.0,8.141,-8.602,1.195,0.406,-0.287,0.868
1468.0,8.141,-8.602,1.195,0.406,-0.287,0.868
1472.0,7.479,-8.563,1.614,0.562,-0.196,0.947
1476.0,7.479,-8.563,1.614,0.562,-0.196,0.947
1479.0,7.479,-8.563,1.614,0.562,-0.196,0.947
1483.0,6.861,-8.559,1.885,0.669,-0.161,0.988
1487.0,6.861,-8.559,1.885,0.669,-0.161,0.988
1491.0,6.541,-8.471,1.954,0.669,-0.161,0.988
1495.0,6.541,-8.471,1.954,0.731,-0.172,0.985
1499.0,6.541,-8.471,1.954,0.731,-0.172,0.985
1502.0,6.53,-8.41,1.929,0.744,-0.195,0.971
1506.0,6.53,-8.41,1.929,0.744,-0.195,0.971
1510.0,6.53,-8.41,1.929,0.744,-0.195,0.971
1514.0,6.567,-8.303,1.679,0.715,-0.196,0.96
1518.0,6.567,-8.303,1.679,0.715,-0.196,0.96
1522.0,6.542,-8.171,1.299,0.657,-0.149,0.94
1525.0,6.542,-8.171,1.299,0.657,-0.149,0.94
1529.0,6.542,-8.171,1.299,0.657,-0.149,0.94
1533.0,6.582,-7.963,1.193,0.578,-0.07,0.889
1537.0,6.582,-7.963,1.193,0.578,-0.07,0.889
1541.0,6.595,-7.893,1.496,0.578,0.033,0.832
1544.0,6.595,-7.893,1.496,0.486,0.033,0.832
1548.0,6.595,-7.893,1.496,0.486,0.033,0.832
1552.0,6.43,-8.02,2.018,0.409,0.142,0.778
1556.0,6.43,-8.02,2.018,0.409,0.142,0.778
1559.0,6.43,-8.02,2.018,0.409,0.142,0.778
1563.0,5.956,-8.248,2.587,0.368,0.224,0.711
1567.0,5.956,-8.248,2.587,0.368,0.224,0.711
1570.0,5.422,-8.426,2.908,0.374,0.269,0.613
1574.0,5.422,-8.426,2.908,0.374,0.269,0.613
1578.0,5.422,-8.426,2.908,0.374,0.269,0.613
1582.0,5.221,-8.546,3.355,0.422,0.28,0.502
1585.0,5.221,-8.546,3.355,0.422,0.28,0.502
1589.0,5.221,-8.546,3.412,0.422,0.28,0.502
1593.0,5.231,-8.555,3.412,0.498,0.254,0.402
1597.0,5.231,-8.555,3.412,0.498,0.254,0.402
1600.0,5.445,-8.443,3.499,0.586,0.225,0.315
1604.0,5.445,-8.443,3.499,0.586,0.225,0.315
1608.0,5.445,-8.443,3.499,0.586,0.225,0.315
1612.0,5.719,-8.149,3.544,0.669,0.188,0.236
1615.0,5.719,-8.149,3.544,0.669,0.188,0.236
1619.0,5.719,-7.776,3.565,0.669,0.188,0.236
1623.0,6.036,-7.776,3.565,0.741,0.152,0.16
1626.0,6.036,-7.776,3.565,0.741,0.152,0.16
1630.0,6.384,-7.335,3.582,0.797,0.132,0.1
1634.0,6.384,-7.335,3.582,0.797,0.132,0.1
1638.0,6.384,-7.335,3.582,0.797,0.132,0.1
1641.0,6.551,-6.984,3.796,0.83,0.128,0.072
1645.0,6.551,-6.984,3.796,0.83,0.128,0.072
1649.0,6.3,-6.773,3.851,0.83,0.128,0.072
1653.0,6.3,-6.773,3.851,0.849,0.124,0.064
1656.0,6.3,-6.773,3.851,0.849,0.124,0.064
1660.0,5.83,-6.579,3.673,0.858,0.12,0.065
1664.0,5.83,-6.579,3.673,0.858,0.12,0.065
1668.0,5.83,-6.579,3.673,0.858,0.12,0.065
1671.0,5.563,-6.31,3.613,0.851,0.12,0.072
1675.0,5.563,-6.31,3.613,0.851,0.12,0.072
1679.0,5.623,-5.973,3.703,0.851,0.118,0.087
1682.0,5.623,-5.973,3.703,0.817,0.118,0.087
1686.0,5.623,-5.973,3.703,0.817,0.118,0.087
1690.0,5.921,-5.7,3.817,0.751,0.111,0.101
1694.0,5.921,-5.7,3.817,0.751,0.111,0.101
1697.0,5.921,-5.7,3.817,0.751,0.111,0.101
1701.0,6.21,-5.434,3.68,0.66,0.091,0.106
1705.0,6.21,-5.434,3.68,0.66,0.091,0.106
1709.0,6.429,-5.253,3.56,0.552,0.089,0.113
1712.0,6.429,-5.253,3.56,0.552,0.089,0.113
1716.0,6.429,-5.253,3.56,0.552,0.089,0.113
1720.0,6.51,-5.152,3.434,0.443,0.097,0.135
1723.0,6.51,-5.152,3.434,0.443,0.097,0.135
1727.0,6.51,-5.152,3.434,0.443,0.097,0.135
1731.0,6.443,-4.985,3.257,0.341,0.11,0.168
1735.0,6.443,-4.985,3.257,0.341,0.11,0.168
1738.0,6.322,-4.89,3.207,0.252,0.14,0.212
1742.0,6.322,-4.89,3.207,0.252,0.14,0.212
1746.0,6.322,-4.89,3.207,0.252,0.14,0.212
1750.0,6.052,-4.875,3.146,0.182,0.168,0.281
1753.0,6.052,-4.875,3.146,0.182,0.168,0.281
1757.0,6.052,-4.85,3.143,0.182,0.168,0.281
1761.0,5.581,-4.85,3.143,0.134,0.193,0.364
1765.0,5.581,-4.85,3.143,0.134,0.193,0.364
1768.0,4.958,-4.814,3.089,0.104,0.208,0.451
1772.0,4.958,-4.814,3.089,0.104,0.208,0.451
1776.0,4.958,-4.814,3.089,0.104,0.208,0.451
1779.0,4.544,-4.723,3.036,0.082,0.211,0.541
1783.0,4.544,-4.723,3.036,0.082,0.211,0.541
1787.0,4.397,-4.611,3.036,0.082,0.211,0.541
1791.0,4.397,-4.611,3.036,0.064,0.211,0.636
1794.0,4.397,-4.611,3.036,0.064,0.211,0.636
1798.0,4.402,-4.494,3.063,0.048,0.218,0.74
1802.0,4.402,-4.494,3.063,0.048,0.218,0.74
1806.0,4.402,-4.494,3.063,0.048,0.218,0.74
1809.0,4.443,-4.395,3.127,0.038,0.244,0.848
1813.0,4.443,-4.395,3.127,0.038,0.244,0.848
1817.0,4.478,-4.213,3.258,0.038,0.244,0.958
1821.0,4.478,-4.213,3.258,0.033,0.288,0.958
1824.0,4.478,-4.213,3.258,0.033,0.288,0.958
1828.0,4.586,-4.031,3.322,0.025,0.341,1.066
1832.0,4.586,-4.031,3.322,0.025,0.341,1.066
1835.0,4.586,-4.031,3.322,0.025,0.341,1.066
1839.0,4.68,-3.907,3.289,0.009,0.392,1.166
1843.0,4.68,-3.907,3.289,0.009,0.392,1.166
1847.0,4.654,-3.798,3.397,0.009,0.444,1.26
1850.0,4.654,-3.798,3.397,-0.002,0.444,1.26
1854.0,4.654,-3.798,3.397,-0.002,0.444,1.26
1858.0,4.34,-3.73,3.658,-0.003,0.494,1.366
1862.0,4.34,-3.73,3.658,-0.003,0.494,1.366
1866.0,4.34,-3.736,3.766,-0.003,0.494,1.366
1870.0,3.765,-3.736,3.766,0.01,0.525,1.492
1873.0,3.765,-3.736,3.766,0.01,0.525,1.492
1877.0,3.293,-3.788,3.846,0.035,0.541,1.626
1881.0,3.293,-3.788,3.846,0.035,0.541,1.626
1884.0,3.293,-3.788,3.846,0.035,0.541,1.626
1888.0,3.123,-4.144,3.992,0.065,0.539,1.765
1892.0,3.123,-4.144,3.992,0.065,0.539,1.765
1896.0,3.102,-4.618,4.071,0.065,0.539,1.765
1899.0,3.102,-4.618,4.071,0.098,0.527,1.886
1903.0,3.102,-4.618,4.071,0.098,0.527,1.886
1907.0,2.932,-4.926,4.073,0.138,0.526,1.966
1911.0,2.932,-4.926,4.073,0.138,0.526,1.966
1914.0,2.932,-4.926,4.073,0.138,0.526,1.966
1918.0,2.605,-5.335,4.119,0.181,0.552,2.024
1922.0,2.605,-5.335,4.119,0.181,0.552,2.024
1925.0,2.108,-5.806,4.126,0.181,0.59,2.05
1929.0,2.108,-5.806,4.126,0.213,0.59,2.05
1933.0,2.108,-5.806,4.126,0.213,0.59,2.05
1937.0,1.497,-6.008,4.07,0.225,0.629,2.029
1940.0,1.497,-6.008,4.07,0.225,0.629,2.029
1944.0,1.497,-6.008,4.07,0.225,0.629,2.029
1948.0,0.977,-6.048,4.065,0.216,0.662,1.98
1952.0,0.977,-6.048,4.065,0.216,0.662,1.98
1955.0,0.733,-6.055,4.229,0.191,0.683,1.933
1959.0,0.733,-6.055,4.229,0.191,0.683,1.933
1963.0,0.733,-6.055,4.229,0.191,0.683,1.933
1967.0,0.797,-6.066,4.379,0.164,0.691,1.906
1970.0,0.797,-6.066,4.379,0.164,0.691,1.906
1974.0,0.797,-6.066,4.379,0.164,0.691,1.906
1978.0,0.862,-5.98,4.595,0.146,0.703,1.903
1981.0,0.862,-5.98,4.595,0.146,0.703,1.903
1985.0,0.881,-6.022,4.603,0.132,0.724,1.92
1989.0,0.881,-6.022,4.603,0.132,0.724,1.92
1993.0,0.881,-6.022,4.603,0.132,0.724,1.92
1996.0,0.656,-6.166,4.463,0.108,0.752,1.952
2000.0,0.656,-6.166,4.463,0.108,0.752,1.952
2004.0,0.656,-6.354,4.387,0.108,0.752,1.952
2008.0,0.251,-6.354,4.387,0.08,0.777,1.979
2011.0,0.251,-6.354,4.387,0.08,0.777,1.979
2015.0,-0.087,-6.584,4.577,0.052,0.79,1.991
2019.0,-0.087,-6.584,4.577,0.052,0.79,1.991
2023.0,-0.087,-6.584,4.577,0.052,0.79,1.991
2027.0,-0.325,-6.773,4.786,0.041,0.787,2.005
2030.0,-0.325,-6.773,4.786,0.041,0.787,2.005
2034.0,-0.551,-6.857,4.69,0.041,0.775,2.019
2038.0,-0.551,-6.857,4.69,0.053,0.775,2.019
2042.0,-0.551,-6.857,4.69,0.053,0.775,2.019
2046.0,-0.86,-6.696,4.472,0.089,0.782,2.009
2049.0,-0.86,-6.696,4.472,0.089,0.782,2.009
2053.0,-0.86,-6.358,4.483,0.089,0.782,2.009
2057.0,-1.199,-6.358,4.483,0.132,0.813,1.972
2061.0,-1.199,-6.358,4.483,0.132,0.813,1.972
2065.0,-1.365,-6.026,4.681,0.166,0.853,1.949
2069.0,-1.365,-6.026,4.681,0.166,0.853,1.949
2072.0,-1.365,-6.026,4.681,0.166,0.853,1.949
2076.0,-1.602,-5.766,4.741,0.184,0.897,1.963
2080.0,-1.602,-5.766,4.741,0.184,0.897,1.963
2084.0,-1.992,-5.59,4.607,0.195,0.959,1.998
2088.0,-1.992,-5.59,4.607,0.195,0.959,1.998
2091.0,-1.992,-5.59,4.607,0.195,0.959,1.998
2095.0,-2.562,-5.465,4.525,0.209,1.027,2.031
2099.0,-2.562,-5.465,4.525,0.209,1.027,2.031
2103.0,-3.149,-5.241,4.248,0.209,1.027,2.031
2107.0,-3.149,-5.241,4.248,0.225,1.07,2.046
2111.0,-3.149,-5.241,4.248,0.225,1.07,2.046
2114.0,-3.555,-5.065,3.918,0.235,1.105,2.066
2118.0,-3.555,-5.065,3.918,0.235,1.105,2.066
2122.0,-3.555,-5.065,3.918,0.235,1.105,2.066
2126.0,-3.772,-4.859,3.563,0.246,1.165,2.107
2130.0,-3.772,-4.859,3.563,0.246,1.165,2.107
2133.0,-3.876,-4.896,3.622,0.262,1.27,2.191
2137.0,-3.876,-4.896,3.622,0.262,1.27,2.191
2141.0,-3.876,-4.896,3.622,0.262,1.27,2.191
2145.0,-3.975,-5.067,3.658,0.31,1.385,2.308
2149.0,-3.975,-5.067,3.658,0.31,1.385,2.308
2153.0,-4.334,-5.163,3.663,0.31,1.498,2.443
2156.0,-4.334,-5.163,3.663,0.403,1.498,2.443
2160.0,-4.334,-5.163,3.663,0.403,1.498,2.443
2164.0,-4.894,-5.383,3.695,0.525,1.609,2.588
2168.0,-4.894,-5.383,3.695,0.525,1.609,2.588
2172.0,-4.894,-5.383,3.278,0.525,1.609,2.588
2175.0,-5.434,-5.605,3.278,0.677,1.725,2.73
2179.0,-5.434,-5.605,3.278,0.677,1.725,2.73
2183.0,-6.063,-5.815,2.802,0.861,1.889,2.857
2187.0,-6.063,-5.815,2.802,0.861,1.889,2.857
2191.0,-6.063,-5.815,2.802,0.861,1.889,2.857
2195.0,-6.715,-6.13,2.499,1.079,2.107,2.954
2198.0,-6.715,-6.13,2.499,1.079,2.107,2.954
2202.0,-7.545,-6.401,2.642,1.346,2.344,3.002
2206.0,-7.545,-6.401,2.642,1.346,2.344,3.002
2210.0,-7.545,-6.401,2.642,1.346,2.344,3.002
2214.0,-8.402,-6.495,3.109,1.657,2.539,3.014
2218.0,-8.402,-6.495,3.109,1.657,2.539,3.014
2221.0,-9.029,-6.639,3.315,1.657,2.539,3.014
2225.0,-9.029,-6.639,3.315,2.006,2.683,3.043
2229.0,-9.029,-6.639,3.315,2.006,2.683,3.043
2233.0,-9.221,-6.592,3.555,2.383,2.824,3.108
2237.0,-9.221,-6.592,3.555,2.383,2.824,3.108
2240.0,-9.221,-6.592,3.555,2.383,2.824,3.108
2244.0,-8.739,-6.862,4.044,2.787,2.986,3.203
2248.0,-8.739,-6.862,4.044,2.787,2.986,3.203
2252.0,-7.961,-7.5,5.027,3.239,3.172,3.249
2256.0,-7.961,-7.5,5.027,3.239,3.172,3.249
2260.0,-7.961,-7.5,5.027,3.239,3.172,3.249
2263.0,-7.787,-7.989,6.942,3.748,3.312,3.14
2267.0,-7.787,-7.989,6.942,3.748,3.312,3.14
2271.0,-8.409,-7.507,7.356,3.748,3.295,2.849
2275.0,-8.409,-7.507,7.356,4.246,3.295,2.849
2279.0,-8.409,-7.507,7.356,4.246,3.295,2.849
2282.0,-9.349,-6.092,5.825,4.627,3.222,2.514
2286.0,-9.349,-6.092,5.825,4.627,3.222,2.514
2290.0,-9.349,-6.092,3.724,4.627,3.222,2.514
2294.0,-10.318,-4.34,3.724,4.823,3.247,2.284
2298.0,-10.318,-4.34,3.724,4.823,3.247,2.284
2302.0,-11.29,-3.161,2.225,4.817,3.413,2.203
2306.0,-11.29,-3.161,2.225,4.817,3.413,2.203
2310.0,-11.29,-3.161,2.225,4.817,3.413,2.203
2313.0,-12.017,-2.801,1.664,4.652,3.679,2.201
2317.0,-12.017,-2.801,1.664,4.652,3.679,2.201
2321.0,-12.42,-2.794,1.478,4.409,3.98,2.175
2325.0,-12.42,-2.794,1.478,4.409,3.98,2.175
2329.0,-12.42,-2.794,1.478,4.409,3.98,2.175
2333.0,-12.739,-3.09,1.699,4.165,4.281,2.083
2337.0,-12.739,-3.09,1.699,4.165,4.281,2.083
2341.0,-13.449,-3.513,2.774,3.979,4.542,1.91
2345.0,-13.449,-3.513,2.774,3.979,4.542,1.91
2349.0,-13.449,-3.513,2.774,3.979,4.542,1.91
2352.0,-14.7,-3.613,4.617,3.849,4.662,1.644
2356.0,-14.7,-3.613,4.617,3.849,4.662,1.644
2360.0,-15.842,-3.098,4.985,3.716,4.588,1.334
2364.0,-15.842,-3.098,4.985,3.716,4.588,1.334
2368.0,-15.842,-3.098,4.985,3.716,4.588,1.334
2372.0,-16.301,-2.335,4.199,3.518,4.456,1.081
2376.0,-16.301,-2.335,4.199,3.518,4.456,1.081
2380.0,-16.108,-1.79,3.475,3.241,4.394,0.914
2384.0,-16.108,-1.79,3.475,3.241,4.394,0.914
2388.0,-16.108,-1.79,3.475,3.241,4.394,0.914
2392.0,-15.723,-1.574,3.144,2.914,4.438,0.786
2395.0,-15.723,-1.574,3.144,2.914,4.438,0.786
2399.0,-15.657,-1.665,3.068,2.914,4.57,0.646
2403.0,-15.657,-1.665,3.068,2.587,4.57,0.646
2407.0,-15.657,-1.665,3.068,2.587,4.57,0.646
2411.0,-16.138,-2.015,3.412,2.3,4.736,0.479
2415.0,-16.138,-2.015,3.412,2.3,4.736,0.479
2419.0,-17.236,-2.249,4.32,2.3,4.736,0.292
2423.0,-17.236,-2.249,4.32,2.061,4.833,0.292
2427.0,-17.236,-2.249,4.32,2.061,4.833,0.292
2431.0,-18.314,-2.167,4.396,1.834,4.771,0.114
2435.0,-18.314,-2.167,4.396,1.834,4.771,0.114
2438.0,-18.796,-2.026,3.775,1.834,4.771,0.114
2442.0,-18.796,-2.026,3.775,1.574,4.586,-0.014
2446.0,-18.796,-2.026,3.775,1.574,4.586,-0.014
2450.0,-18.684,-1.927,3.074,1.27,4.362,-0.098
2454.0,-18.684,-1.927,3.074,1.27,4.362,-0.098
2458.0,-18.087,-1.854,2.717,1.27,4.362,-0.098
2462.0,-18.087,-1.854,2.717,0.933,4.166,-0.17
2466.0,-18.087,-1.854,2.717,0.933,4.166,-0.17
2470.0,-17.259,-1.882,2.516,0.587,4.022,-0.245
2474.0,-17.259,-1.882,2.516,0.587,4.022,-0.245
2478.0,-16.492,-1.931,2.661,0.587,3.925,-0.337
2482.0,-16.492,-1.931,2.661,0.26,3.925,-0.337
2486.0,-16.492,-1.931,2.661,0.26,3.925,-0.337
2490.0,-15.927,-1.945,2.902,-0.025,3.837,-0.441
2494.0,-15.927,-1.945,2.902,-0.025,3.837,-0.441
2498.0,-15.634,-1.906,3.101,-0.259,3.726,-0.529
2502.0,-15.634,-1.906,3.101,-0.259,3.726,-0.529
2507.0,-15.634,-1.906,3.101,-0.259,3.726,-0.529
2511.0,-15.584,-1.778,3.065,-0.453,3.581,-0.575
2515.0,-15.584,-1.778,3.065,-0.453,3.581,-0.575
2519.0,-15.575,-1.726,3.045,-0.625,3.413,-0.546
2523.0,-15.575,-1.726,3.045,-0.625,3.413,-0.546
2527.0,-15.575,-1.726,3.065,-0.625,3.413,-0.546
2531.0,-15.234,-1.805,3.065,-0.778,3.222,-0.455
2535.0,-15.234,-1.805,3.065,-0.778,3.222,-0.455
2539.0,-14.568,-1.99,3.176,-0.909,3.006,-0.333
2543.0,-14.568,-1.99,3.176,-0.909,3.006,-0.333
2547.0,-13.835,-2.162,3.179,-0.909,2.765,-0.211
2551.0,-13.835,-2.162,3.179,-1.019,2.765,-0.211
2556.0,-13.835,-2.162,3.179,-1.019,2.765,-0.211
2560.0,-13.232,-2.293,2.986,-1.115,2.516,-0.099
2564.0,-13.232,-2.293,2.986,-1.115,2.516,-0.099
2568.0,-12.79,-2.381,2.697,-1.196,2.264,0.004
2572.0,-12.79,-2.381,2.697,-1.196,2.264,0.004
2576.0,-12.79,-2.381,2.697,-1.196,2.264,0.004
2580.0,-12.336,-2.413,2.396,-1.265,2.016,0.098
2584.0,-12.336,-2.413,2.396,-1.265,2.016,0.098
2588.0,-11.689,-2.401,2.15,-1.325,1.772,0.182
2592.0,-11.689,-2.401,2.15,-1.325,1.772,0.182
2596.0,-11.689,-2.401,2.15,-1.325,1.772,0.182
2600.0,-11.034,-2.357,1.941,-1.379,1.533,0.251
2604.0,-11.034,-2.357,1.941,-1.379,1.533,0.251
2608.0,-10.554,-2.268,1.711,-1.427,1.308,0.308
2612.0,-10.554,-2.268,1.711,-1.427,1.308,0.308
2616.0,-10.554,-2.268,1.466,-1.427,1.308,0.308
2620.0,-10.278,-2.161,1.466,-1.473,1.096,0.369
2624.0,-10.278,-2.161,1.466,-1.473,1.096,0.369
2628.0,-10.092,-2.121,1.259,-1.518,0.9,0.446
2632.0,-10.092,-2.121,1.259,-1.518,0.9,0.446
2636.0,-10.092,-2.137,1.149,-1.518,0.9,0.446
2640.0,-9.953,-2.137,1.149,-1.562,0.718,0.529
2644.0,-9.953,-2.137,1.149,-1.562,0.718,0.529
2647.0,-9.761,-2.158,1.13,-1.61,0.55,0.599
2651.0,-9.761,-2.158,1.13,-1.61,0.55,0.599
2655.0,-9.761,-2.158,1.207,-1.61,0.55,0.599
2659.0,-9.512,-2.173,1.207,-1.662,0.392,0.641
2663.0,-9.512,-2.173,1.207,-1.662,0.392,0.641
2667.0,-9.272,-2.218,1.309,-1.712,0.241,0.649
2671.0,-9.272,-2.218,1.309,-1.712,0.241,0.649
2675.0,-9.272,-2.218,1.309,-1.712,0.241,0.649
2679.0,-9.092,-2.214,1.31,-1.758,0.096,0.627
2683.0,-9.092,-2.214,1.31,-1.758,0.096,0.627
2687.0,-9.066,-2.136,1.177,-1.802,-0.04,0.595
2691.0,-9.066,-2.136,1.177,-1.802,-0.04,0.595
2694.0,-9.066,-2.136,1.177,-1.802,-0.04,0.595
2698.0,-9.152,-2.06,0.959,-1.845,-0.156,0.57
2702.0,-9.152,-2.06,0.959,-1.845,-0.156,0.57
2706.0,-9.277,-1.965,0.714,-1.891,-0.253,0.561
2710.0,-9.277,-1.965,0.714,-1.891,-0.253,0.561
2714.0,-9.277,-1.965,0.351,-1.891,-0.253,0.561
2718.0,-9.334,-1.898,0.351,-1.946,-0.33,0.571
2722.0,-9.334,-1.898,0.351,-1.946,-0.33,0.571
2726.0,-9.287,-1.917,0.051,-2.008,-0.38,0.597
2730.0,-9.287,-1.917,0.051,-2.008,-0.38,0.597
2734.0,-9.287,-2.013,-0.157,-2.008,-0.38,0.597
2739.0,-9.27,-2.013,-0.157,-2.075,-0.405,0.629
2743.0,-9.27,-2.013,-0.157,-2.075,-0.405,0.629
2747.0,-9.26,-2.167,-0.306,-2.138,-0.407,0.652
2751.0,-9.26,-2.167,-0.306,-2.138,-0.407,0.652
2755.0,-9.149,-2.309,-0.306,-2.138,-0.393,0.658
2759.0,-9.149,-2.309,-0.306,-2.191,-0.393,0.658
2763.0,-9.149,-2.309,-0.306,-2.191,-0.393,0.658
2767.0,-8.898,-2.456,-0.133,-2.227,-0.375,0.639
2771.0,-8.898,-2.456,-0.133,-2.227,-0.375,0.639
2775.0,-8.526,-2.567,-0.074,-2.235,-0.356,0.592
2779.0,-8.526,-2.567,-0.074,-2.235,-0.356,0.592
2783.0,-8.526,-2.567,-0.074,-2.235,-0.356,0.592
2787.0,-8.209,-2.725,0.129,-2.21,-0.319,0.526
2791.0,-8.209,-2.725,0.129,-2.21,-0.319,0.526
2795.0,-8.104,-2.877,0.425,-2.144,-0.28,0.448
2799.0,-8.104,-2.877,0.425,-2.144,-0.28,0.448
2803.0,-8.104,-3.025,0.662,-2.144,-0.28,0.448
2807.0,-8.338,-3.025,0.662,-2.034,-0.262,0.371
2811.0,-8.338,-3.025,0.662,-2.034,-0.262,0.371
2815.0,-8.981,-3.152,0.629,-1.882,-0.263,0.303
2819.0,-8.981,-3.152,0.629,-1.882,-0.263,0.303
2823.0,-9.897,-3.196,0.458,-1.882,-0.263,0.303
2827.0,-9.897,-3.196,0.458,-1.696,-0.275,0.251
2831.0,-9.897,-3.196,0.458,-1.696,-0.275,0.251
2835.0,-10.697,-3.229,0.175,-1.491,-0.302,0.221
2839.0,-10.697,-3.229,0.175,-1.491,-0.302,0.221
2844.0,-11.094,-3.267,-0.111,-1.491,-0.338,0.209
2848.0,-11.094,-3.267,-0.111,-1.28,-0.338,0.209
2852.0,-11.094,-3.267,-0.111,-1.28,-0.338,0.209
2856.0,-10.979,-3.313,-0.2,-1.067,-0.367,0.195
2860.0,-10.979,-3.313,-0.2,-1.067,-0.367,0.195
2864.0,-10.51,-3.389,-0.09,-0.849,-0.389,0.157
2869.0,-10.51,-3.389,-0.09,-0.849,-0.389,0.157
2873.0,-10.001,-3.447,0.083,-0.849,-0.389,0.157
2877.0,-10.001,-3.447,0.083,-0.62,-0.405,0.077
2881.0,-10.001,-3.447,0.083,-0.62,-0.405,0.077
2885.0,-9.589,-3.455,0.384,-0.372,-0.42,-0.046
2889.0,-9.589,-3.455,0.384,-0.372,-0.42,-0.046
2893.0,-9.357,-3.419,0.715,-0.111,-0.448,-0.204
2897.0,-9.357,-3.419,0.715,-0.111,-0.448,-0.204
2901.0,-9.357,-3.419,0.715,-0.111,-0.448,-0.204
2905.0,-9.379,-3.306,0.939,0.154,-0.497,-0.384
2909.0,-9.379,-3.306,0.939,0.154,-0.497,-0.384
2913.0,-9.7,-3.205,1.053,0.414,-0.555,-0.577
2917.0,-9.7,-3.205,1.053,0.414,-0.555,-0.577
2921.0,-9.7,-3.205,1.053,0.414,-0.555,-0.577
2925.0,-10.227,-2.975,0.955,0.666,-0.607,-0.785
2929.0,-10.227,-2.975,0.955,0.666,-0.607,-0.785
2933.0,-10.642,-2.728,0.744,0.912,-0.653,-1.003
2938.0,-10.642,-2.728,0.744,0.912,-0.653,-1.003
2942.0,-10.642,-2.378,0.312,0.912,-0.653,-1.003
2946.0,-10.939,-2.378,0.312,1.15,-0.712,-1.224
2950.0,-10.939,-2.378,0.312,1.15,-0.712,-1.224
2954.0,-11.304,-1.88,-0.293,1.364,-0.778,-1.435
2958.0,-11.304,-1.88,-0.293,1.364,-0.778,-1.435
2962.0,-11.782,-1.317,-0.888,1.533,-0.83,-1.613
2966.0,-11.782,-1.317,-0.888,1.533,-0.83,-1.613
2971.0,-11.782,-1.317,-0.888,1.533,-0.83,-1.613
2975.0,-12.188,-0.756,-1.315,1.644,-0.866,-1.734
2979.0,-12.188,-0.756,-1.315,1.644,-0.866,-1.734
2983.0,-12.312,-0.299,-1.566,1.69,-0.893,-1.792
2987.0,-12.312,-0.299,-1.566,1.69,-0.893,-1.792
2991.0,-12.182,0.017,-1.685,1.69,-0.893,-1.792
2995.0,-12.182,0.017,-1.685,1.675,-0.911,-1.802
3000.0,-12.182,0.017,-1.685,1.675,-0.911,-1.802
