deltaTime,Acc_X,Acc_Y,Acc_Z,Gyro_X,Gyro_Y,Gyro_Z
0.0,-4.133,-5.078,7.664,-0.092,-0.551,-0.421
4.0,-5.218,-5.078,7.664,-0.253,-0.372,-0.44
7.0,-5.218,-5.078,7.664,-0.253,-0.372,-0.44
10.0,-5.218,-5.078,7.664,-0.253,-0.372,-0.44
13.0,-5.407,-5.494,8.081,-0.301,-0.335,-0.453
16.0,-5.407,-5.494,8.081,-0.301,-0.335,-0.453
19.0,-5.407,-5.494,8.081,-0.301,-0.335,-0.453
22.0,-5.685,-5.828,8.494,-0.292,-0.273,-0.493
25.0,-5.685,-5.828,8.494,-0.292,-0.273,-0.493
28.0,-5.685,-5.828,8.494,-0.292,-0.273,-0.493
31.0,-6.11,-6.078,8.99,-0.292,-0.214,-0.563
35.0,-6.11,-6.078,8.99,-0.23,-0.214,-0.563
39.0,-6.11,-6.078,8.99,-0.23,-0.214,-0.563
43.0,-6.578,-6.217,9.438,-0.136,-0.192,-0.645
46.0,-6.578,-6.217,9.438,-0.136,-0.192,-0.645
50.0,-7.02,-6.27,9.723,-0.136,-0.192,-0.717
54.0,-7.02,-6.27,9.723,-0.02,-0.203,-0.717
58.0,-7.02,-6.27,9.723,-0.02,-0.203,-0.717
62.0,-7.365,-6.187,9.835,0.131,-0.262,-0.767
66.0,-7.365,-6.187,9.835,0.131,-0.262,-0.767
70.0,-7.365,-6.039,9.643,0.131,-0.262,-0.767
74.0,-7.342,-6.039,9.643,0.273,-0.312,-0.789
77.0,-7.342,-6.039,9.643,0.273,-0.312,-0.789
81.0,-7.367,-5.688,9.151,0.372,-0.331,-0.769
85.0,-7.367,-5.688,9.151,0.372,-0.331,-0.769
89.0,-7.367,-5.688,9.151,0.372,-0.331,-0.769
93.0,-7.152,-5.481,8.715,0.395,-0.35,-0.724
96.0,-7.152,-5.481,8.715,0.395,-0.35,-0.724
100.0,-7.109,-5.723,8.652,0.334,-0.331,-0.666
104.0,-7.109,-5.723,8.652,0.334,-0.331,-0.666
108.0,-7.109,-5.723,8.652,0.334,-0.331,-0.666
112.0,-7.177,-6.391,8.838,0.241,-0.301,-0.618
116.0,-7.177,-6.391,8.838,0.241,-0.301,-0.618
120.0,-7.186,-7.084,9.041,0.171,-0.272,-0.586
124.0,-7.186,-7.084,9.041,0.171,-0.272,-0.586
128.0,-7.186,-7.084,9.041,0.171,-0.272,-0.586
132.0,-7.275,-7.762,9.273,0.141,-0.24,-0.556
135.0,-7.275,-7.762,9.273,0.141,-0.24,-0.556
139.0,-7.504,-8.349,9.309,0.141,-0.211,-0.516
143.0,-7.504,-8.349,9.309,0.154,-0.211,-0.516
147.0,-7.504,-8.349,9.309,0.154,-0.211,-0.516
151.0,-7.6,-8.786,9.127,0.206,-0.181,-0.474
155.0,-7.6,-8.786,9.127,0.206,-0.181,-0.474
159.0,-7.758,-9.029,8.886,0.206,-0.181,-0.444
163.0,-7.758,-9.029,8.886,0.295,-0.146,-0.444
167.0,-7.758,-9.029,8.886,0.295,-0.146,-0.444
171.0,-7.791,-8.953,8.548,0.415,-0.123,-0.435
174.0,-7.791,-8.953,8.548,0.415,-0.123,-0.435
178.0,-7.43,-8.749,8.138,0.415,-0.123,-0.435
182.0,-7.43,-8.749,8.138,0.552,-0.118,-0.456
186.0,-7.43,-8.749,8.138,0.552,-0.118,-0.456
190.0,-7.118,-8.489,7.764,0.718,-0.13,-0.516
194.0,-7.118,-8.489,7.764,0.718,-0.13,-0.516
198.0,-7.118,-8.489,7.403,0.718,-0.13,-0.516
202.0,-6.779,-8.013,7.403,0.896,-0.163,-0.606
206.0,-6.779,-8.013,7.403,0.896,-0.163,-0.606
210.0,-6.374,-7.582,7.093,1.035,-0.204,-0.683
214.0,-6.374,-7.582,7.093,1.035,-0.204,-0.683
217.0,-6.374,-7.582,7.093,1.035,-0.204,-0.683
221.0,-6.1,-7.308,6.776,1.093,-0.234,-0.708
225.0,-6.1,-7.308,6.776,1.093,-0.234,-0.708
229.0,-6.203,-7.269,6.651,1.033,-0.235,-0.666
233.0,-6.203,-7.269,6.651,1.033,-0.235,-0.666
237.0,-6.203,-7.269,6.651,1.033,-0.235,-0.666
241.0,-6.163,-7.345,6.458,0.844,-0.212,-0.6
245.0,-6.163,-7.345,6.458,0.844,-0.212,-0.6
249.0,-6.023,-7.883,6.296,0.595,-0.172,-0.547
253.0,-6.023,-7.883,6.296,0.595,-0.172,-0.547
257.0,-6.023,-7.883,6.296,0.595,-0.172,-0.547
260.0,-6.018,-8.379,6.324,0.429,-0.123,-0.523
264.0,-6.018,-8.379,6.324,0.429,-0.123,-0.523
268.0,-6.1,-8.533,6.434,0.391,-0.074,-0.529
272.0,-6.1,-8.533,6.434,0.391,-0.074,-0.529
276.0,-6.1,-8.533,6.434,0.391,-0.074,-0.529
280.0,-6.03,-8.089,6.547,0.421,-0.027,-0.554
284.0,-6.03,-8.089,6.547,0.421,-0.027,-0.554
288.0,-5.746,-7.522,6.656,0.441,0.013,-0.582
292.0,-5.746,-7.522,6.656,0.441,0.013,-0.582
295.0,-5.746,-7.522,6.656,0.441,0.013,-0.582
299.0,-5.434,-7.21,6.72,0.451,0.04,-0.614
303.0,-5.434,-7.21,6.72,0.451,0.04,-0.614
307.0,-5.286,-6.815,6.791,0.451,0.04,-0.614
311.0,-5.286,-6.815,6.791,0.485,0.048,-0.653
314.0,-5.286,-6.815,6.791,0.485,0.048,-0.653
318.0,-5.081,-6.268,6.705,0.521,0.031,-0.679
322.0,-5.081,-6.268,6.705,0.521,0.031,-0.679
326.0,-5.081,-6.268,6.705,0.521,0.031,-0.679
330.0,-4.82,-5.837,6.398,0.533,0.001,-0.683
334.0,-4.82,-5.837,6.398,0.533,0.001,-0.683
337.0,-4.519,-5.45,6.103,0.536,-0.025,-0.662
341.0,-4.519,-5.45,6.103,0.536,-0.025,-0.662
345.0,-4.519,-5.45,6.103,0.536,-0.025,-0.662
349.0,-4.167,-5.0,5.853,0.529,-0.031,-0.616
353.0,-4.167,-5.0,5.853,0.529,-0.031,-0.616
357.0,-3.727,-4.54,5.593,0.489,-0.017,-0.559
361.0,-3.727,-4.54,5.593,0.489,-0.017,-0.559
365.0,-3.727,-4.54,5.593,0.489,-0.017,-0.559
369.0,-3.31,-4.368,5.433,0.417,0.018,-0.497
372.0,-3.31,-4.368,5.433,0.417,0.018,-0.497
376.0,-2.999,-4.52,5.339,0.417,0.074,-0.434
380.0,-2.999,-4.52,5.339,0.361,0.074,-0.434
384.0,-2.999,-4.52,5.339,0.361,0.074,-0.434
388.0,-2.95,-4.558,5.351,0.341,0.132,-0.383
392.0,-2.95,-4.558,5.351,0.341,0.132,-0.383
395.0,-2.95,-4.434,5.447,0.341,0.132,-0.383
399.0,-3.216,-4.434,5.447,0.316,0.185,-0.348
403.0,-3.216,-4.434,5.447,0.316,0.185,-0.348
407.0,-3.44,-4.497,5.462,0.27,0.231,-0.317
411.0,-3.44,-4.497,5.462,0.27,0.231,-0.317
414.0,-3.44,-4.497,5.462,0.27,0.231,-0.317
418.0,-3.499,-4.875,5.501,0.238,0.277,-0.285
422.0,-3.499,-4.875,5.501,0.238,0.277,-0.285
426.0,-3.552,-5.202,5.589,0.261,0.327,-0.267
430.0,-3.552,-5.202,5.589,0.261,0.327,-0.267
434.0,-3.552,-5.202,5.589,0.261,0.327,-0.267
437.0,-3.462,-5.171,5.562,0.323,0.377,-0.272
441.0,-3.462,-5.171,5.562,0.323,0.377,-0.272
445.0,-3.243,-4.928,5.473,0.323,0.377,-0.272
449.0,-3.243,-4.928,5.473,0.382,0.424,-0.292
453.0,-3.243,-4.928,5.473,0.382,0.424,-0.292
457.0,-3.153,-4.601,5.469,0.399,0.472,-0.316
460.0,-3.153,-4.601,5.469,0.399,0.472,-0.316
464.0,-3.153,-4.601,5.469,0.399,0.472,-0.316
468.0,-3.206,-4.665,5.192,0.376,0.516,-0.346
472.0,-3.206,-4.665,5.192,0.376,0.516,-0.346
476.0,-3.525,-5.029,5.004,0.373,0.558,-0.39
479.0,-3.525,-5.029,5.004,0.373,0.558,-0.39
483.0,-3.525,-5.029,5.004,0.373,0.558,-0.39
487.0,-3.326,-4.926,4.788,0.42,0.601,-0.44
491.0,-3.326,-4.926,4.788,0.42,0.601,-0.44
495.0,-3.121,-4.901,4.761,0.42,0.643,-0.458
499.0,-3.121,-4.901,4.761,0.468,0.643,-0.458
502.0,-3.121,-4.901,4.761,0.468,0.643,-0.458
506.0,-3.074,-4.941,4.917,0.5,0.671,-0.453
510.0,-3.074,-4.941,4.917,0.5,0.671,-0.453
514.0,-3.074,-4.919,4.947,0.5,0.671,-0.453
518.0,-2.982,-4.919,4.947,0.518,0.687,-0.436
521.0,-2.982,-4.919,4.947,0.518,0.687,-0.436
525.0,-2.679,-4.915,4.954,0.517,0.699,-0.414
529.0,-2.679,-4.915,4.954,0.517,0.699,-0.414
533.0,-2.679,-4.915,4.954,0.517,0.699,-0.414
537.0,-2.298,-5.026,4.964,0.501,0.715,-0.386
541.0,-2.298,-5.026,4.964,0.501,0.715,-0.386
544.0,-2.088,-5.17,4.981,0.48,0.743,-0.359
548.0,-2.088,-5.17,4.981,0.48,0.743,-0.359
552.0,-2.088,-5.17,4.981,0.48,0.743,-0.359
556.0,-2.277,-5.359,5.038,0.458,0.777,-0.342
560.0,-2.277,-5.359,5.038,0.458,0.777,-0.342
563.0,-2.663,-5.537,5.07,0.458,0.777,-0.342
567.0,-2.663,-5.537,5.07,0.44,0.797,-0.335
571.0,-2.663,-5.537,5.07,0.44,0.797,-0.335
575.0,-2.928,-5.653,5.093,0.438,0.801,-0.329
579.0,-2.928,-5.653,5.093,0.438,0.801,-0.329
583.0,-2.928,-5.653,5.093,0.438,0.801,-0.329
586.0,-2.959,-5.787,5.139,0.456,0.804,-0.304
590.0,-2.959,-5.787,5.139,0.456,0.804,-0.304
594.0,-2.83,-5.98,5.273,0.504,0.82,-0.271
598.0,-2.83,-5.98,5.273,0.504,0.82,-0.271
602.0,-2.83,-5.98,5.273,0.504,0.82,-0.271
605.0,-2.575,-6.133,5.456,0.584,0.837,-0.245
609.0,-2.575,-6.133,5.456,0.584,0.837,-0.245
613.0,-2.642,-5.977,5.548,0.584,0.848,-0.237
617.0,-2.642,-5.977,5.548,0.688,0.848,-0.237
621.0,-2.642,-5.977,5.548,0.688,0.848,-0.237
625.0,-2.749,-5.623,5.663,0.767,0.844,-0.276
628.0,-2.749,-5.623,5.663,0.767,0.844,-0.276
632.0,-2.749,-5.623,5.697,0.767,0.844,-0.276
636.0,-2.529,-5.498,5.697,0.821,0.84,-0.345
640.0,-2.529,-5.498,5.697,0.821,0.84,-0.345
644.0,-2.253,-5.383,5.624,0.895,0.842,-0.402
647.0,-2.253,-5.383,5.624,0.895,0.842,-0.402
651.0,-2.253,-5.383,5.624,0.895,0.842,-0.402
655.0,-2.259,-5.214,5.698,1.019,0.847,-0.424
659.0,-2.259,-5.214,5.698,1.019,0.847,-0.424
663.0,-2.475,-4.901,5.822,1.178,0.864,-0.415
667.0,-2.475,-4.901,5.822,1.178,0.864,-0.415
670.0,-2.475,-4.901,5.822,1.178,0.864,-0.415
674.0,-2.935,-4.48,6.046,1.333,0.876,-0.37
678.0,-2.935,-4.48,6.046,1.333,0.876,-0.37
682.0,-3.709,-3.943,6.364,1.333,0.876,-0.37
686.0,-3.709,-3.943,6.364,1.449,0.866,-0.293
689.0,-3.709,-3.943,6.364,1.449,0.866,-0.293
693.0,-4.376,-3.775,6.889,1.482,0.818,-0.21
697.0,-4.376,-3.775,6.889,1.482,0.818,-0.21
701.0,-4.376,-3.775,6.889,1.482,0.818,-0.21
705.0,-4.806,-3.891,7.381,1.471,0.755,-0.14
709.0,-4.806,-3.891,7.381,1.471,0.755,-0.14
712.0,-5.166,-3.853,7.726,1.458,0.68,-0.09
716.0,-5.166,-3.853,7.726,1.458,0.68,-0.09
720.0,-5.166,-3.853,7.726,1.458,0.68,-0.09
724.0,-5.353,-3.641,8.008,1.447,0.595,-0.058
728.0,-5.353,-3.641,8.008,1.447,0.595,-0.058
731.0,-5.459,-3.318,8.264,1.447,0.595,-0.038
735.0,-5.459,-3.318,8.264,1.443,0.51,-0.038
739.0,-5.459,-3.318,8.264,1.443,0.51,-0.038
743.0,-5.631,-2.846,8.629,1.449,0.424,-0.015
747.0,-5.631,-2.846,8.629,1.449,0.424,-0.015
751.0,-5.631,-2.846,9.079,1.449,0.424,-0.015
754.0,-5.757,-2.49,9.079,1.45,0.321,0.029
758.0,-5.757,-2.49,9.079,1.45,0.321,0.029
762.0,-5.682,-2.299,9.658,1.434,0.195,0.092
766.0,-5.682,-2.299,9.658,1.434,0.195,0.092
769.0,-5.682,-2.299,9.658,1.434,0.195,0.092
773.0,-5.379,-2.35,10.556,1.408,0.063,0.168
777.0,-5.379,-2.35,10.556,1.408,0.063,0.168
781.0,-4.951,-2.495,11.628,1.408,0.063,0.24
785.0,-4.951,-2.495,11.628,1.389,-0.056,0.24
788.0,-4.951,-2.495,11.628,1.389,-0.056,0.24
792.0,-4.606,-2.806,12.7,1.383,-0.155,0.304
796.0,-4.606,-2.806,12.7,1.383,-0.155,0.304
800.0,-4.606,-3.361,13.584,1.383,-0.155,0.304
804.0,-4.42,-3.361,13.584,1.385,-0.242,0.354
808.0,-4.42,-3.361,13.584,1.385,-0.242,0.354
812.0,-4.335,-3.919,14.368,1.405,-0.318,0.376
816.0,-4.335,-3.919,14.368,1.405,-0.318,0.376
820.0,-4.335,-3.919,15.142,1.405,-0.318,0.376
824.0,-4.181,-4.555,15.142,1.461,-0.388,0.353
828.0,-4.181,-4.555,15.142,1.461,-0.388,0.353
831.0,-4.047,-5.109,15.848,1.572,-0.455,0.276
835.0,-4.047,-5.109,15.848,1.572,-0.455,0.276
839.0,-4.047,-5.109,15.848,1.572,-0.455,0.276
843.0,-4.186,-5.493,16.543,1.72,-0.534,0.163
847.0,-4.186,-5.493,16.543,1.72,-0.534,0.163
851.0,-4.519,-5.696,17.188,1.862,-0.652,0.048
855.0,-4.519,-5.696,17.188,1.862,-0.652,0.048
859.0,-4.519,-5.696,17.188,1.862,-0.652,0.048
863.0,-4.698,-5.747,17.632,1.967,-0.803,-0.048
867.0,-4.698,-5.747,17.632,1.967,-0.803,-0.048
871.0,-4.548,-6.024,17.971,2.028,-0.972,-0.132
875.0,-4.548,-6.024,17.971,2.028,-0.972,-0.132
879.0,-4.548,-6.024,17.971,2.028,-0.972,-0.132
883.0,-4.283,-6.331,18.255,2.066,-1.154,-0.216
887.0,-4.283,-6.331,18.255,2.066,-1.154,-0.216
891.0,-4.171,-6.701,18.384,2.098,-1.348,-0.303
895.0,-4.171,-6.701,18.384,2.098,-1.348,-0.303
899.0,-4.171,-6.701,18.272,2.098,-1.348,-0.303
903.0,-4.22,-7.053,18.272,2.148,-1.556,-0.399
907.0,-4.22,-7.053,18.272,2.148,-1.556,-0.399
911.0,-4.23,-7.359,18.027,2.234,-1.775,-0.506
915.0,-4.23,-7.359,18.027,2.234,-1.775,-0.506
919.0,-4.23,-7.519,17.557,2.234,-1.775,-0.506
923.0,-3.96,-7.519,17.557,2.37,-1.994,-0.626
927.0,-3.96,-7.519,17.557,2.37,-1.994,-0.626
931.0,-3.471,-7.348,16.924,2.558,-2.181,-0.749
935.0,-3.471,-7.348,16.924,2.558,-2.181,-0.749
939.0,-3.07,-7.198,16.384,2.558,-2.181,-0.749
943.0,-3.07,-7.198,16.384,2.787,-2.331,-0.862
947.0,-3.07,-7.198,16.384,2.787,-2.331,-0.862
951.0,-2.78,-7.021,15.761,3.045,-2.457,-0.972
955.0,-2.78,-7.021,15.761,3.045,-2.457,-0.972
958.0,-2.485,-6.656,15.193,3.045,-2.457,-1.078
962.0,-2.485,-6.656,15.193,3.314,-2.559,-1.078
966.0,-2.485,-6.656,15.193,3.314,-2.559,-1.078
970.0,-2.212,-6.204,14.773,3.572,-2.639,-1.18
974.0,-2.212,-6.204,14.773,3.572,-2.639,-1.18
978.0,-2.051,-5.85,14.311,3.572,-2.719,-1.283
982.0,-2.051,-5.85,14.311,3.805,-2.719,-1.283
986.0,-2.051,-5.85,14.311,3.805,-2.719,-1.283
990.0,-1.858,-5.317,13.685,4.013,-2.808,-1.383
994.0,-1.858,-5.317,13.685,4.013,-2.808,-1.383
998.0,-1.656,-4.896,12.986,4.189,-2.87,-1.475
1002.0,-1.656,-4.896,12.986,4.189,-2.87,-1.475
1006.0,-1.656,-4.896,12.986,4.189,-2.87,-1.475
1011.0,-1.396,-4.745,12.519,4.327,-2.897,-1.573
1015.0,-1.396,-4.745,12.519,4.327,-2.897,-1.573
1019.0,-1.303,-4.637,12.052,4.432,-2.898,-1.698
1023.0,-1.303,-4.637,12.052,4.432,-2.898,-1.698
1027.0,-1.303,-4.637,11.391,4.432,-2.898,-1.698
1031.0,-1.445,-4.455,11.391,4.508,-2.879,-1.853
1035.0,-1.445,-4.455,11.391,4.508,-2.879,-1.853
1039.0,-1.605,-4.445,10.773,4.573,-2.859,-2.038
1043.0,-1.605,-4.445,10.773,4.573,-2.859,-2.038
1047.0,-1.617,-4.198,9.857,4.573,-2.859,-2.251
1051.0,-1.617,-4.198,9.857,4.644,-2.847,-2.251
1055.0,-1.617,-4.198,9.857,4.644,-2.847,-2.251
1059.0,-1.622,-3.844,8.713,4.716,-2.819,-2.47
1063.0,-1.622,-3.844,8.713,4.716,-2.819,-2.47
1067.0,-1.652,-3.345,7.605,4.716,-2.772,-2.673
1071.0,-1.652,-3.345,7.605,4.768,-2.772,-2.673
1075.0,-1.652,-3.345,7.605,4.768,-2.772,-2.673
1079.0,-1.659,-2.711,6.552,4.777,-2.707,-2.829
1083.0,-1.659,-2.711,6.552,4.777,-2.707,-2.829
1087.0,-1.622,-2.131,5.614,4.708,-2.613,-2.9
1091.0,-1.622,-2.131,5.614,4.708,-2.613,-2.9
1095.0,-1.622,-2.131,5.614,4.708,-2.613,-2.9
1099.0,-1.589,-1.707,5.018,4.543,-2.463,-2.882
1103.0,-1.589,-1.707,5.018,4.543,-2.463,-2.882
1107.0,-1.707,-1.513,4.741,4.3,-2.267,-2.824
1111.0,-1.707,-1.513,4.741,4.3,-2.267,-2.824
1115.0,-1.707,-1.513,4.741,4.3,-2.267,-2.824
1119.0,-1.953,-1.307,4.549,4.008,-2.057,-2.789
1123.0,-1.953,-1.307,4.549,4.008,-2.057,-2.789
1127.0,-2.305,-0.998,4.315,3.685,-1.855,-2.797
1131.0,-2.305,-0.998,4.315,3.685,-1.855,-2.797
1135.0,-2.305,-0.998,4.315,3.685,-1.855,-2.797
1139.0,-2.678,-0.556,4.107,3.347,-1.679,-2.833
1143.0,-2.678,-0.556,4.107,3.347,-1.679,-2.833
1147.0,-2.949,0.057,3.766,3.004,-1.524,-2.865
1151.0,-2.949,0.057,3.766,3.004,-1.524,-2.865
1155.0,-2.949,0.057,3.766,3.004,-1.524,-2.865
1159.0,-3.12,0.648,3.383,2.665,-1.377,-2.863
1163.0,-3.12,0.648,3.383,2.665,-1.377,-2.863
1167.0,-3.26,1.188,2.981,2.335,-1.236,-2.819
1171.0,-3.26,1.188,2.981,2.335,-1.236,-2.819
1174.0,-3.26,1.188,2.981,2.335,-1.236,-2.819
1178.0,-3.348,1.74,2.595,2.022,-1.102,-2.747
1182.0,-3.348,1.74,2.595,2.022,-1.102,-2.747
1186.0,-3.37,2.303,2.298,1.733,-0.97,-2.643
1190.0,-3.37,2.303,2.298,1.733,-0.97,-2.643
1194.0,-3.37,2.303,2.298,1.733,-0.97,-2.643
1198.0,-3.447,2.779,2.21,1.473,-0.839,-2.503
1202.0,-3.447,2.779,2.21,1.473,-0.839,-2.503
1206.0,-3.666,3.086,2.182,1.241,-0.714,-2.329
1210.0,-3.666,3.086,2.182,1.241,-0.714,-2.329
1214.0,-3.666,3.086,2.182,1.241,-0.714,-2.329
1217.0,-3.81,3.429,2.219,1.022,-0.599,-2.128
1221.0,-3.81,3.429,2.219,1.022,-0.599,-2.128
1225.0,-3.73,3.782,2.317,0.783,-0.508,-1.913
1229.0,-3.73,3.782,2.317,0.783,-0.508,-1.913
1233.0,-3.73,3.782,2.317,0.783,-0.508,-1.913
1237.0,-3.395,4.052,2.371,0.501,-0.447,-1.702
1241.0,-3.395,4.052,2.371,0.501,-0.447,-1.702
1245.0,-2.876,4.293,2.389,0.501,-0.447,-1.518
1249.0,-2.876,4.293,2.389,0.173,-0.387,-1.518
1253.0,-2.876,4.293,2.389,0.173,-0.387,-1.518
1256.0,-2.395,4.444,2.595,-0.189,-0.307,-1.356
1260.0,-2.395,4.444,2.595,-0.189,-0.307,-1.356
1264.0,-2.127,4.446,2.856,-0.189,-0.307,-1.206
1268.0,-2.127,4.446,2.856,-0.544,-0.219,-1.206
1272.0,-2.127,4.446,2.856,-0.544,-0.219,-1.206
1276.0,-1.978,4.319,3.08,-0.855,-0.128,-1.076
1280.0,-1.978,4.319,3.08,-0.855,-0.128,-1.076
1284.0,-1.853,4.142,3.398,-0.855,-0.046,-0.955
1288.0,-1.853,4.142,3.398,-1.106,-0.046,-0.955
1292.0,-1.853,4.142,3.398,-1.106,-0.046,-0.955
1296.0,-1.853,4.061,3.617,-1.291,0.028,-0.827
1300.0,-1.853,4.061,3.617,-1.291,0.028,-0.827
1304.0,-2.008,4.111,3.812,-1.413,0.1,-0.675
1308.0,-2.008,4.111,3.812,-1.413,0.1,-0.675
1312.0,-2.008,4.111,3.812,-1.413,0.1,-0.675
1316.0,-2.262,4.355,4.071,-1.475,0.165,-0.489
1320.0,-2.262,4.355,4.071,-1.475,0.165,-0.489
1324.0,-2.797,4.831,4.419,-1.475,0.227,-0.258
1328.0,-2.797,4.831,4.419,-1.466,0.227,-0.258
1332.0,-2.797,4.831,4.419,-1.466,0.227,-0.258
1335.0,-3.488,5.46,4.783,-1.382,0.27,0.032
1339.0,-3.488,5.46,4.783,-1.382,0.27,0.032
1343.0,-4.131,6.075,5.307,-1.382,0.27,0.032
1347.0,-4.131,6.075,5.307,-1.243,0.29,0.38
1351.0,-4.131,6.075,5.307,-1.243,0.29,0.38
1355.0,-4.54,6.489,5.827,-1.076,0.297,0.77
1358.0,-4.54,6.489,5.827,-1.076,0.297,0.77
1362.0,-4.54,6.489,5.827,-1.076,0.297,0.77
1366.0,-4.607,6.859,6.336,-0.913,0.307,1.174
1370.0,-4.607,6.859,6.336,-0.913,0.307,1.174
1374.0,-4.847,7.295,6.881,-0.765,0.328,1.565
1377.0,-4.847,7.295,6.881,-0.765,0.328,1.565
1381.0,-4.847,7.295,6.881,-0.765,0.328,1.565
1385.0,-5.322,7.996,7.161,-0.636,0.33,1.956
1389.0,-5.322,7.996,7.161,-0.636,0.33,1.956
1393.0,-5.658,8.935,7.21,-0.636,0.33,2.401
1397.0,-5.658,8.935,7.21,-0.562,0.316,2.401
1400.0,-5.658,8.935,7.21,-0.562,0.316,2.401
1404.0,-6.016,9.701,7.301,-0.576,0.306,2.886
1408.0,-6.016,9.701,7.301,-0.576,0.306,2.886
1412.0,-6.016,9.701,7.895,-0.576,0.306,2.886
1416.0,-6.537,10.26,7.895,-0.632,0.299,3.316
1420.0,-6.537,10.26,7.895,-0.632,0.299,3.316
1424.0,-7.327,11.46,8.624,-0.599,0.291,3.547
1427.0,-7.327,11.46,8.624,-0.599,0.291,3.547
1431.0,-7.327,11.46,8.624,-0.599,0.291,3.547
1435.0,-8.067,13.257,9.235,-0.399,0.267,3.672
1439.0,-8.067,13.257,9.235,-0.399,0.267,3.672
1443.0,-8.057,14.53,9.721,-0.117,0.223,3.966
1447.0,-8.057,14.53,9.721,-0.117,0.223,3.966
1451.0,-8.057,14.53,9.721,-0.117,0.223,3.966
1455.0,-7.622,14.73,10.343,0.158,0.179,4.467
1459.0,-7.622,14.73,10.343,0.158,0.179,4.467
1463.0,-7.551,14.236,11.128,0.414,0.133,4.922
1466.0,-7.551,14.236,11.128,0.414,0.133,4.922
1470.0,-7.551,14.236,11.128,0.414,0.133,4.922
1474.0,-7.601,13.946,11.868,0.64,0.067,5.013
1478.0,-7.601,13.946,11.868,0.64,0.067,5.013
1482.0,-7.458,13.642,12.597,0.793,-0.03,5.013
1486.0,-7.458,13.642,12.597,0.793,-0.03,5.013
1490.0,-7.458,13.642,12.597,0.793,-0.03,5.013
1494.0,-7.128,13.311,12.794,0.869,-0.16,5.013
1498.0,-7.128,13.311,12.794,0.869,-0.16,5.013
1502.0,-6.708,12.929,12.639,0.87,-0.298,5.013
1506.0,-6.708,12.929,12.639,0.87,-0.298,5.013
1510.0,-6.708,12.929,12.639,0.87,-0.298,5.013
1514.0,-6.245,12.194,12.333,0.792,-0.437,5.013
1518.0,-6.245,12.194,12.333,0.792,-0.437,5.013
1522.0,-5.713,11.191,11.886,0.654,-0.579,5.013
1526.0,-5.713,11.191,11.886,0.654,-0.579,5.013
1530.0,-5.713,11.191,11.886,0.654,-0.579,5.013
1534.0,-5.26,10.213,11.347,0.492,-0.714,5.013
1538.0,-5.26,10.213,11.347,0.492,-0.714,5.013
1542.0,-4.845,9.189,10.644,0.325,-0.829,5.013
1546.0,-4.845,9.189,10.644,0.325,-0.829,5.013
1550.0,-4.845,9.189,10.644,0.325,-0.829,5.013
1554.0,-4.161,8.24,9.916,0.162,-0.907,5.013
1558.0,-4.161,8.24,9.916,0.162,-0.907,5.013
1561.0,-3.36,7.585,9.265,0.032,-0.926,5.013
1565.0,-3.36,7.585,9.265,0.032,-0.926,5.013
1569.0,-3.36,7.585,9.265,0.032,-0.926,5.013
1573.0,-2.67,7.24,8.887,-0.064,-0.897,5.013
1577.0,-2.67,7.24,8.887,-0.064,-0.897,5.013
1581.0,-2.02,7.073,8.746,-0.145,-0.834,5.013
1585.0,-2.02,7.073,8.746,-0.145,-0.834,5.013
1588.0,-2.02,7.073,8.746,-0.145,-0.834,5.013
1592.0,-1.581,6.749,8.639,-0.216,-0.744,5.013
1596.0,-1.581,6.749,8.639,-0.216,-0.744,5.013
1600.0,-1.088,6.073,8.475,-0.216,-0.632,5.013
1604.0,-1.088,6.073,8.475,-0.288,-0.632,5.013
1608.0,-1.088,6.073,8.475,-0.288,-0.632,5.013
1612.0,-0.384,5.355,8.498,-0.348,-0.504,5.013
1616.0,-0.384,5.355,8.498,-0.348,-0.504,5.013
1620.0,0.471,4.764,8.381,-0.348,-0.504,5.013
1624.0,0.471,4.764,8.381,-0.387,-0.382,5.013
1627.0,0.471,4.764,8.381,-0.387,-0.382,5.013
1631.0,0.932,4.485,7.938,-0.427,-0.256,5.013
1635.0,0.932,4.485,7.938,-0.427,-0.256,5.013
1639.0,0.932,4.485,7.938,-0.427,-0.256,5.013
1643.0,1.111,4.236,7.317,-0.488,-0.102,5.013
1646.0,1.111,4.236,7.317,-0.488,-0.102,5.013
1650.0,1.376,3.787,6.495,-0.587,0.076,5.013
1654.0,1.376,3.787,6.495,-0.587,0.076,5.013
1658.0,1.376,3.787,6.495,-0.587,0.076,5.013
1661.0,1.694,3.436,5.882,-0.733,0.279,5.013
1665.0,1.694,3.436,5.882,-0.733,0.279,5.013
1669.0,2.046,2.958,5.593,-0.733,0.279,5.013
1673.0,2.046,2.958,5.593,-0.932,0.474,5.013
1676.0,2.046,2.958,5.593,-0.932,0.474,5.013
1680.0,2.563,2.454,5.581,-1.168,0.63,5.013
1684.0,2.563,2.454,5.581,-1.168,0.63,5.013
1688.0,2.563,2.454,5.581,-1.168,0.63,5.013
1691.0,2.927,1.941,5.479,-1.414,0.755,5.013
1695.0,2.927,1.941,5.479,-1.414,0.755,5.013
1699.0,2.687,1.363,5.518,-1.414,0.755,5.013
1702.0,2.687,1.363,5.518,-1.655,0.855,5.013
1706.0,2.687,1.363,5.518,-1.655,0.855,5.013
1710.0,1.428,0.056,5.952,-1.88,0.901,5.013
1714.0,1.428,0.056,5.952,-1.88,0.901,5.013
1717.0,1.428,0.056,5.952,-1.88,0.901,5.013
1721.0,-0.43,-2.457,6.588,-2.091,0.853,5.013
1725.0,-0.43,-2.457,6.588,-2.091,0.853,5.013
1729.0,-2.381,-5.731,7.631,-2.303,0.724,5.013
1733.0,-2.381,-5.731,7.631,-2.303,0.724,5.013
1737.0,-2.381,-5.731,7.631,-2.303,0.724,5.013
1741.0,-4.306,-8.841,7.501,-2.526,0.507,4.984
1745.0,-4.306,-8.841,7.501,-2.526,0.507,4.984
1749.0,-5.771,-10.545,5.734,-2.758,0.215,4.607
1752.0,-5.771,-10.545,5.734,-2.758,0.215,4.607
1756.0,-5.771,-10.545,5.734,-2.758,0.215,4.607
1760.0,-6.252,-10.523,3.467,-3.03,-0.059,4.053
1765.0,-6.252,-10.523,3.467,-3.03,-0.059,4.053
1769.0,-5.365,-10.27,2.207,-3.366,-0.247,3.683
1773.0,-5.365,-10.27,2.207,-3.366,-0.247,3.683
1777.0,-5.365,-10.27,2.207,-3.366,-0.247,3.683
1781.0,-3.07,-11.062,2.293,-3.682,-0.369,3.482
1785.0,-3.07,-11.062,2.293,-3.682,-0.369,3.482
1789.0,-0.912,-12.516,3.051,-3.842,-0.467,3.313
1793.0,-0.912,-12.516,3.051,-3.842,-0.467,3.313
1797.0,0.714,-14.281,3.718,-3.842,-0.467,3.313
1801.0,0.714,-14.281,3.718,-3.741,-0.585,3.086
1805.0,0.714,-14.281,3.718,-3.741,-0.585,3.086
1809.0,1.879,-15.743,3.983,-3.334,-0.735,2.813
1813.0,1.879,-15.743,3.983,-3.334,-0.735,2.813
1817.0,2.323,-16.634,3.715,-3.334,-0.735,2.579
1821.0,2.323,-16.634,3.715,-2.651,-0.861,2.579
1825.0,2.323,-16.634,3.715,-2.651,-0.861,2.579
1829.0,2.179,-16.816,3.034,-1.79,-0.913,2.423
1833.0,2.179,-16.816,3.034,-1.79,-0.913,2.423
1837.0,2.049,-16.51,2.331,-1.79,-0.9,2.328
1841.0,2.049,-16.51,2.331,-0.854,-0.9,2.328
1845.0,2.049,-16.51,2.331,-0.854,-0.9,2.328
1849.0,2.322,-15.714,2.074,0.073,-0.827,2.261
1853.0,2.322,-15.714,2.074,0.073,-0.827,2.261
1857.0,2.941,-14.562,2.224,0.073,-0.685,2.216
1861.0,2.941,-14.562,2.224,0.896,-0.685,2.216
1865.0,2.941,-14.562,2.224,0.896,-0.685,2.216
1869.0,3.667,-13.451,2.471,1.541,-0.496,2.195
1873.0,3.667,-13.451,2.471,1.541,-0.496,2.195
1876.0,4.226,-12.395,2.792,1.541,-0.496,2.18
1880.0,4.226,-12.395,2.792,1.987,-0.271,2.18
1884.0,4.226,-12.395,2.792,1.987,-0.271,2.18
1888.0,4.463,-11.38,3.193,2.249,-0.022,2.144
1892.0,4.463,-11.38,3.193,2.249,-0.022,2.144
1896.0,4.618,-10.474,3.599,2.249,-0.022,2.144
1900.0,4.618,-10.474,3.599,2.35,0.236,2.071
1904.0,4.618,-10.474,3.599,2.35,0.236,2.071
1908.0,4.597,-9.818,4.27,2.313,0.485,1.956
1911.0,4.597,-9.818,4.27,2.313,0.485,1.956
1915.0,4.597,-9.818,4.27,2.313,0.485,1.956
1919.0,4.31,-9.291,4.848,2.171,0.685,1.792
1922.0,4.31,-9.291,4.848,2.171,0.685,1.792
1926.0,3.689,-8.755,5.148,1.95,0.824,1.587
1930.0,3.689,-8.755,5.148,1.95,0.824,1.587
1934.0,3.689,-8.755,5.148,1.95,0.824,1.587
1937.0,2.965,-8.116,5.258,1.666,0.898,1.375
1941.0,2.965,-8.116,5.258,1.666,0.898,1.375
1945.0,2.965,-8.116,5.353,1.666,0.898,1.375
1949.0,2.298,-7.529,5.353,1.335,0.915,1.186
1952.0,2.298,-7.529,5.353,1.335,0.915,1.186
1956.0,1.796,-7.056,5.411,0.987,0.879,1.025
1960.0,1.796,-7.056,5.411,0.987,0.879,1.025
1964.0,1.796,-7.056,5.411,0.987,0.879,1.025
1967.0,1.547,-6.728,5.33,0.653,0.811,0.877
1971.0,1.547,-6.728,5.33,0.653,0.811,0.877
1975.0,1.547,-6.482,5.033,0.653,0.811,0.877
1978.0,1.52,-6.482,5.033,0.358,0.729,0.728
1982.0,1.52,-6.482,5.033,0.358,0.729,0.728
1986.0,1.672,-6.244,4.526,0.116,0.66,0.566
1990.0,1.672,-6.244,4.526,0.116,0.66,0.566
1993.0,1.672,-6.244,4.526,0.116,0.66,0.566
1997.0,1.785,-5.99,3.978,-0.07,0.647,0.4
2001.0,1.785,-5.99,3.978,-0.07,0.647,0.4
2005.0,1.72,-5.623,3.37,-0.07,0.647,0.25
2009.0,1.72,-5.623,3.37,-0.199,0.7,0.25
2012.0,1.72,-5.623,3.37,-0.199,0.7,0.25
2016.0,1.49,-5.018,2.664,-0.272,0.797,0.139
2020.0,1.49,-5.018,2.664,-0.272,0.797,0.139
2024.0,1.49,-5.018,1.887,-0.272,0.797,0.139
2028.0,1.231,-4.091,1.887,-0.292,0.94,0.093
2031.0,1.231,-4.091,1.887,-0.292,0.94,0.093
2035.0,1.117,-3.006,1.21,-0.249,1.134,0.146
2039.0,1.117,-3.006,1.21,-0.249,1.134,0.146
2043.0,1.117,-3.006,1.21,-0.249,1.134,0.146
2047.0,1.365,-1.981,0.784,-0.137,1.365,0.314
2051.0,1.365,-1.981,0.784,-0.137,1.365,0.314
2054.0,1.695,-1.266,0.923,0.04,1.625,0.583
2058.0,1.695,-1.266,0.923,0.04,1.625,0.583
2062.0,1.695,-1.266,0.923,0.04,1.625,0.583
2066.0,1.835,-1.122,1.149,0.282,1.878,0.922
2069.0,1.835,-1.122,1.149,0.282,1.878,0.922
2073.0,1.835,-1.122,1.149,0.282,1.878,0.922
2077.0,1.656,-1.527,1.007,0.571,2.104,1.268
2081.0,1.656,-1.527,1.007,0.571,2.104,1.268
2084.0,1.192,-2.096,0.641,0.883,2.32,1.553
2088.0,1.192,-2.096,0.641,0.883,2.32,1.553
2092.0,1.192,-2.096,0.641,0.883,2.32,1.553
2095.0,0.506,-2.595,0.337,1.196,2.526,1.751
2099.0,0.506,-2.595,0.337,1.196,2.526,1.751
2103.0,0.506,-2.595,0.057,1.196,2.526,1.751
2107.0,-0.138,-2.931,0.057,1.488,2.711,1.866
2110.0,-0.138,-2.931,0.057,1.488,2.711,1.866
2114.0,-0.675,-3.087,-0.22,1.743,2.895,1.911
2118.0,-0.675,-3.087,-0.22,1.743,2.895,1.911
2122.0,-0.675,-3.087,-0.22,1.743,2.895,1.911
2126.0,-1.189,-3.067,-0.554,1.962,3.09,1.908
2130.0,-1.189,-3.067,-0.554,1.962,3.09,1.908
2134.0,-1.654,-2.953,-0.933,2.145,3.286,1.891
2138.0,-1.654,-2.953,-0.933,2.145,3.286,1.891
2142.0,-1.654,-2.953,-0.933,2.145,3.286,1.891
2146.0,-2.064,-2.83,-1.291,2.296,3.492,1.875
2149.0,-2.064,-2.83,-1.291,2.296,3.492,1.875
2153.0,-2.525,-2.71,-1.588,2.424,3.717,1.858
2157.0,-2.525,-2.71,-1.588,2.424,3.717,1.858
2161.0,-2.525,-2.71,-1.588,2.424,3.717,1.858
2165.0,-3.06,-2.607,-1.892,2.543,3.963,1.834
2169.0,-3.06,-2.607,-1.892,2.543,3.963,1.834
2173.0,-3.725,-2.61,-2.07,2.658,4.239,1.816
2177.0,-3.725,-2.61,-2.07,2.658,4.239,1.816
2181.0,-3.725,-2.61,-2.07,2.658,4.239,1.816
2185.0,-4.392,-3.034,-1.96,2.774,4.535,1.808
2189.0,-4.392,-3.034,-1.96,2.774,4.535,1.808
2192.0,-5.006,-3.822,-1.878,2.774,4.814,1.783
2196.0,-5.006,-3.822,-1.878,2.91,4.814,1.783
2200.0,-5.006,-3.822,-1.878,2.91,4.814,1.783
2204.0,-5.721,-4.724,-1.858,3.088,4.996,1.691
2208.0,-5.721,-4.724,-1.858,3.088,4.996,1.691
2212.0,-6.745,-5.588,-1.585,3.088,4.996,1.691
2216.0,-6.745,-5.588,-1.585,3.318,5.015,1.537
2220.0,-6.745,-5.588,-1.585,3.318,5.015,1.537
2224.0,-7.913,-6.535,-1.201,3.611,5.015,1.351
2228.0,-7.913,-6.535,-1.201,3.611,5.015,1.351
2231.0,-9.348,-7.471,-0.635,3.611,5.015,1.351
2235.0,-9.348,-7.471,-0.635,3.995,5.015,1.125
2239.0,-9.348,-7.471,-0.635,3.995,5.015,1.125
2243.0,-11.074,-8.279,0.188,4.498,5.015,0.832
2247.0,-11.074,-8.279,0.188,4.498,5.015,0.832
2251.0,-11.074,-8.279,1.164,4.498,5.015,0.832
2255.0,-12.994,-8.925,1.164,4.935,5.015,0.48
2259.0,-12.994,-8.925,1.164,4.935,5.015,0.48
2263.0,-14.834,-8.979,1.372,4.995,5.015,0.09
2267.0,-14.834,-8.979,1.372,4.995,5.015,0.09
2271.0,-14.834,-8.979,1.372,4.995,5.015,0.09
2274.0,-16.646,-8.459,0.48,4.995,5.015,-0.276
2278.0,-16.646,-8.459,0.48,4.995,5.015,-0.276
2282.0,-18.367,-7.39,-0.679,4.995,5.015,-0.558
2287.0,-18.367,-7.39,-0.679,4.995,5.015,-0.558
2291.0,-18.367,-5.943,-1.29,4.995,5.015,-0.558
2295.0,-19.326,-5.943,-1.29,4.995,5.015,-0.728
2299.0,-19.326,-5.943,-1.29,4.995,5.015,-0.728
2303.0,-19.178,-4.562,-1.248,4.995,5.015,-0.83
2307.0,-19.178,-4.562,-1.248,4.995,5.015,-0.83
2311.0,-18.35,-3.665,-0.645,4.995,4.99,-0.96
2315.0,-18.35,-3.665,-0.645,4.995,4.99,-0.96
2319.0,-18.35,-3.665,-0.645,4.995,4.99,-0.96
2323.0,-17.886,-3.016,0.187,4.995,4.883,-1.194
2327.0,-17.886,-3.016,0.187,4.995,4.883,-1.194
2331.0,-18.269,-2.32,0.924,4.995,4.779,-1.518
2335.0,-18.269,-2.32,0.924,4.995,4.779,-1.518
2339.0,-18.269,-2.32,0.924,4.995,4.779,-1.518
2343.0,-19.155,-1.677,1.537,4.868,4.691,-1.874
2347.0,-19.155,-1.677,1.537,4.868,4.691,-1.874
2351.0,-19.6,-0.877,2.234,4.438,4.575,-2.211
2355.0,-19.6,-0.877,2.234,4.438,4.575,-2.211
2359.0,-19.6,-0.877,2.234,4.438,4.575,-2.211
2363.0,-19.6,0.107,2.689,4.026,4.397,-2.472
2367.0,-19.6,0.107,2.689,4.026,4.397,-2.472
2371.0,-19.6,0.976,2.913,3.69,4.158,-2.606
2375.0,-19.6,0.976,2.913,3.69,4.158,-2.606
2379.0,-19.6,0.976,2.913,3.69,4.158,-2.606
2383.0,-19.6,1.49,2.764,3.415,3.903,-2.614
2387.0,-19.6,1.49,2.764,3.415,3.903,-2.614
2391.0,-19.6,1.51,2.225,3.173,3.698,-2.545
2394.0,-19.6,1.51,2.225,3.173,3.698,-2.545
2398.0,-19.6,1.51,2.225,3.173,3.698,-2.545
2402.0,-19.301,1.341,1.683,2.927,3.586,-2.458
2406.0,-19.301,1.341,1.683,2.927,3.586,-2.458
2410.0,-18.286,1.279,1.496,2.661,3.57,-2.401
2414.0,-18.286,1.279,1.496,2.661,3.57,-2.401
2418.0,-18.286,1.279,1.496,2.661,3.57,-2.401
2422.0,-18.246,1.089,1.564,2.406,3.62,-2.387
2426.0,-18.246,1.089,1.564,2.406,3.62,-2.387
2430.0,-19.186,1.185,1.842,2.212,3.676,-2.405
2433.0,-19.186,1.185,1.842,2.212,3.676,-2.405
2437.0,-19.186,1.185,1.842,2.212,3.676,-2.405
2441.0,-19.6,1.714,2.279,2.091,3.658,-2.395
2445.0,-19.6,1.714,2.279,2.091,3.658,-2.395
2449.0,-19.6,2.448,2.504,2.091,3.517,-2.308
2453.0,-19.6,2.448,2.504,2.017,3.517,-2.308
2457.0,-19.6,2.448,2.504,2.017,3.517,-2.308
2461.0,-19.6,3.236,2.199,1.965,3.286,-2.158
2465.0,-19.6,3.236,2.199,1.965,3.286,-2.158
2469.0,-19.6,3.775,1.381,1.965,3.286,-1.979
2473.0,-19.6,3.775,1.381,1.906,3.022,-1.979
2476.0,-19.6,3.775,1.381,1.906,3.022,-1.979
2480.0,-19.6,4.18,0.375,1.803,2.765,-1.797
2484.0,-19.6,4.18,0.375,1.803,2.765,-1.797
2488.0,-19.6,4.344,-0.45,1.803,2.765,-1.797
2492.0,-19.6,4.344,-0.45,1.627,2.541,-1.611
2496.0,-19.6,4.344,-0.45,1.627,2.541,-1.611
2500.0,-19.6,4.208,-0.796,1.374,2.353,-1.43
2504.0,-19.6,4.208,-0.796,1.374,2.353,-1.43
2508.0,-19.6,3.931,-0.675,1.374,2.353,-1.279
2512.0,-19.6,3.931,-0.675,1.078,2.191,-1.279
2516.0,-19.6,3.931,-0.675,1.078,2.191,-1.279
2520.0,-19.6,3.822,-0.369,0.796,2.028,-1.173
2524.0,-19.6,3.822,-0.369,0.796,2.028,-1.173
2528.0,-19.333,3.805,0.145,0.796,1.839,-1.096
2532.0,-19.333,3.805,0.145,0.561,1.839,-1.096
2536.0,-19.333,3.805,0.145,0.561,1.839,-1.096
2540.0,-18.539,3.951,0.673,0.385,1.606,-1.038
2544.0,-18.539,3.951,0.673,0.385,1.606,-1.038
2548.0,-17.5,4.378,0.89,0.385,1.606,-0.98
2552.0,-17.5,4.378,0.89,0.253,1.344,-0.98
2555.0,-17.5,4.378,0.89,0.253,1.344,-0.98
2559.0,-17.706,6.451,3.152,0.156,1.055,-0.85
2563.0,-17.706,6.451,3.152,0.156,1.055,-0.85
2567.0,-18.096,8.153,6.83,0.156,1.055,-0.85
2571.0,-18.096,8.153,6.83,0.011,0.521,-0.547
2575.0,-18.096,8.153,6.83,0.011,0.521,-0.547
2579.0,-17.433,7.737,7.71,-0.169,-0.227,-0.182
2583.0,-17.433,7.737,7.71,-0.169,-0.227,-0.182
2587.0,-15.684,6.803,7.25,-0.169,-0.227,-0.182
2591.0,-15.684,6.803,7.25,-0.284,-0.871,0.033
2595.0,-15.684,6.803,7.25,-0.284,-0.871,0.033
2599.0,-12.589,5.606,5.88,-0.371,-1.297,0.086
2603.0,-12.589,5.606,5.88,-0.371,-1.297,0.086
2607.0,-9.954,4.516,4.373,-0.371,-1.476,0.064
2611.0,-9.954,4.516,4.373,-0.451,-1.476,0.064
2615.0,-9.954,4.516,4.373,-0.451,-1.476,0.064
2619.0,-8.155,3.682,2.986,-0.556,-1.457,0.019
2623.0,-8.155,3.682,2.986,-0.556,-1.457,0.019
2627.0,-6.857,3.004,1.621,-0.556,-1.457,-0.04
2631.0,-6.857,3.004,1.621,-0.704,-1.317,-0.04
2635.0,-6.857,3.004,1.621,-0.704,-1.317,-0.04
2639.0,-5.892,2.61,0.469,-0.904,-1.139,-0.124
2643.0,-5.892,2.61,0.469,-0.904,-1.139,-0.124
2647.0,-5.384,2.491,-0.494,-0.904,-0.983,-0.224
2651.0,-5.384,2.491,-0.494,-1.15,-0.983,-0.224
2655.0,-5.384,2.491,-0.494,-1.15,-0.983,-0.224
2659.0,-5.271,2.395,-1.147,-1.419,-0.872,-0.292
2663.0,-5.271,2.395,-1.147,-1.419,-0.872,-0.292
2667.0,-5.341,2.097,-1.408,-1.689,-0.825,-0.305
2671.0,-5.341,2.097,-1.408,-1.689,-0.825,-0.305
2675.0,-5.341,2.097,-1.408,-1.689,-0.825,-0.305
2679.0,-5.448,1.603,-1.509,-1.94,-0.834,-0.274
2683.0,-5.448,1.603,-1.509,-1.94,-0.834,-0.274
2687.0,-5.578,0.963,-1.547,-2.129,-0.854,-0.217
2691.0,-5.578,0.963,-1.547,-2.129,-0.854,-0.217
2696.0,-5.884,0.241,-1.439,-2.129,-0.854,-0.217
2700.0,-5.884,0.241,-1.439,-2.224,-0.862,-0.145
2704.0,-5.884,0.241,-1.439,-2.224,-0.862,-0.145
2708.0,-6.421,-0.446,-1.335,-2.224,-0.863,-0.073
2712.0,-6.421,-0.446,-1.335,-2.224,-0.863,-0.073
2716.0,-6.915,-1.118,-1.182,-2.148,-0.87,-0.001
2720.0,-6.915,-1.118,-1.182,-2.148,-0.87,-0.001
2724.0,-6.915,-1.118,-1.182,-2.148,-0.87,-0.001
2729.0,-7.31,-1.665,-1.081,-2.007,-0.902,0.073
2733.0,-7.31,-1.665,-1.081,-2.007,-0.902,0.073
2737.0,-7.436,-2.023,-1.099,-1.811,-0.953,0.149
2741.0,-7.436,-2.023,-1.099,-1.811,-0.953,0.149
2745.0,-7.244,-2.103,-1.203,-1.811,-0.953,0.149
2749.0,-7.244,-2.103,-1.203,-1.58,-1.01,0.232
2753.0,-7.244,-2.103,-1.203,-1.58,-1.01,0.232
2757.0,-6.784,-1.946,-1.332,-1.335,-1.063,0.329
2761.0,-6.784,-1.946,-1.332,-1.335,-1.063,0.329
2765.0,-6.376,-1.845,-1.347,-1.099,-1.102,0.441
2769.0,-6.376,-1.845,-1.347,-1.099,-1.102,0.441
2773.0,-6.376,-1.845,-1.347,-1.099,-1.102,0.441
2778.0,-5.727,-1.763,-1.31,-0.871,-1.126,0.545
2782.0,-5.727,-1.763,-1.31,-0.871,-1.126,0.545
2786.0,-5.088,-1.592,-1.372,-0.661,-1.141,0.615
2790.0,-5.088,-1.592,-1.372,-0.661,-1.141,0.615
2794.0,-5.088,-1.592,-1.531,-0.661,-1.141,0.615
2798.0,-4.587,-1.394,-1.531,-0.48,-1.13,0.649
2802.0,-4.587,-1.394,-1.531,-0.48,-1.13,0.649
2806.0,-4.167,-1.284,-1.677,-0.334,-1.093,0.648
2810.0,-4.167,-1.284,-1.677,-0.334,-1.093,0.648
2814.0,-3.838,-0.971,-1.658,-0.334,-1.055,0.596
2818.0,-3.838,-0.971,-1.658,-0.256,-1.055,0.596
2822.0,-3.838,-0.971,-1.658,-0.256,-1.055,0.596
2827.0,-3.494,-0.842,-1.493,-0.205,-1.023,0.543
2831.0,-3.494,-0.842,-1.493,-0.205,-1.023,0.543
2835.0,-3.235,-0.721,-1.279,-0.159,-1.002,0.484
2839.0,-3.235,-0.721,-1.279,-0.159,-1.002,0.484
2843.0,-3.235,-0.721,-1.279,-0.159,-1.002,0.484
2847.0,-3.01,-0.602,-1.086,-0.123,-0.99,0.407
2851.0,-3.01,-0.602,-1.086,-0.123,-0.99,0.407
2855.0,-3.022,-0.541,-0.9,-0.096,-0.975,0.326
2859.0,-3.022,-0.541,-0.9,-0.096,-0.975,0.326
2863.0,-3.297,-0.421,-0.771,-0.096,-0.975,0.326
2867.0,-3.297,-0.421,-0.771,-0.095,-0.952,0.24
2871.0,-3.297,-0.421,-0.771,-0.095,-0.952,0.24
2875.0,-3.91,-0.275,-0.654,-0.128,-0.918,0.157
2880.0,-3.91,-0.275,-0.654,-0.128,-0.918,0.157
2884.0,-4.845,-0.23,-0.572,-0.197,-0.872,0.084
2888.0,-4.845,-0.23,-0.572,-0.197,-0.872,0.084
2892.0,-4.845,-0.23,-0.572,-0.197,-0.872,0.084
2896.0,-5.917,-0.219,-0.504,-0.293,-0.81,0.025
2900.0,-5.917,-0.219,-0.504,-0.293,-0.81,0.025
2904.0,-7.17,-0.267,-0.414,-0.411,-0.725,-0.027
2908.0,-7.17,-0.267,-0.414,-0.411,-0.725,-0.027
2912.0,-7.17,-0.267,-0.319,-0.411,-0.725,-0.027
2917.0,-8.831,-0.373,-0.319,-0.541,-0.614,-0.082
2921.0,-8.831,-0.373,-0.319,-0.541,-0.614,-0.082
2925.0,-10.989,-0.581,-0.19,-0.674,-0.478,-0.144
2929.0,-10.989,-0.581,-0.19,-0.674,-0.478,-0.144
2933.0,-13.326,-0.663,0.05,-0.799,-0.331,-0.212
2938.0,-13.326,-0.663,0.05,-0.799,-0.331,-0.212
2942.0,-13.326,-0.663,0.05,-0.799,-0.331,-0.212
2946.0,-14.974,-0.657,0.29,-0.907,-0.192,-0.268
2950.0,-14.974,-0.657,0.29,-0.907,-0.192,-0.268
2954.0,-15.318,-0.669,0.728,-1.002,-0.066,-0.294
2958.0,-15.318,-0.669,0.728,-1.002,-0.066,-0.294
2963.0,-14.946,-0.697,1.163,-1.078,0.046,-0.282
2967.0,-14.946,-0.697,1.163,-1.078,0.046,-0.282
2971.0,-14.946,-0.697,1.163,-1.078,0.046,-0.282
2975.0,-14.625,-0.718,1.379,-1.125,0.155,-0.241
2979.0,-14.625,-0.718,1.379,-1.125,0.155,-0.241
2983.0,-14.645,-0.721,1.394,-1.138,0.269,-0.187
2987.0,-14.645,-0.721,1.394,-1.138,0.269,-0.187
2991.0,-14.645,-0.721,1.394,-1.138,0.269,-0.187
2995.0,-14.877,-0.775,1.211,-1.121,0.377,-0.134
2999.0,-14.877,-0.775,1.211,-1.121,0.377,-0.134
