deltaTime,Acc_X,Acc_Y,Acc_Z,Gyro_X,Gyro_Y,Gyro_Z
0.0,-10.742,-2.922,3.03,-1.353,-0.33,0.276
3.0,-10.742,-2.922,3.03,-1.447,-0.36,0.276
6.0,-10.742,-2.922,3.03,-1.447,-0.36,0.276
9.0,-10.742,-2.922,3.03,-1.447,-0.36,0.276
12.0,-10.35,-2.877,3.221,-1.407,-0.466,0.26
15.0,-10.35,-2.877,3.221,-1.407,-0.466,0.26
18.0,-10.35,-2.877,3.221,-1.407,-0.466,0.26
21.0,-10.14,-2.73,2.968,-1.327,-0.552,0.218
24.0,-10.14,-2.73,2.968,-1.327,-0.552,0.218
27.0,-10.14,-2.73,2.968,-1.327,-0.552,0.218
31.0,-9.881,-2.463,2.15,-1.232,-0.581,0.171
35.0,-9.881,-2.463,2.15,-1.232,-0.581,0.171
38.0,-9.881,-2.463,2.15,-1.232,-0.581,0.171
42.0,-9.56,-2.289,1.814,-1.187,-0.559,0.144
46.0,-9.56,-2.289,1.814,-1.187,-0.559,0.144
50.0,-9.338,-2.429,1.969,-1.187,-0.559,0.144
54.0,-9.338,-2.429,1.969,-1.177,-0.514,0.122
57.0,-9.338,-2.429,1.969,-1.177,-0.514,0.122
61.0,-9.337,-2.616,2.241,-1.161,-0.491,0.091
65.0,-9.337,-2.616,2.241,-1.161,-0.491,0.091
69.0,-9.337,-2.616,2.241,-1.161,-0.491,0.091
73.0,-9.178,-2.596,2.109,-1.146,-0.51,0.053
77.0,-9.178,-2.596,2.109,-1.146,-0.51,0.053
80.0,-9.071,-2.489,2.158,-1.149,-0.531,0.008
84.0,-9.071,-2.489,2.158,-1.149,-0.531,0.008
88.0,-9.071,-2.489,2.158,-1.149,-0.531,0.008
92.0,-9.161,-2.408,2.245,-1.141,-0.537,-0.028
96.0,-9.161,-2.408,2.245,-1.141,-0.537,-0.028
100.0,-9.677,-2.35,2.334,-1.118,-0.53,-0.041
104.0,-9.677,-2.35,2.334,-1.118,-0.53,-0.041
108.0,-9.677,-2.35,2.334,-1.118,-0.53,-0.041
112.0,-10.174,-2.473,2.462,-1.098,-0.529,-0.035
116.0,-10.174,-2.473,2.462,-1.098,-0.529,-0.035
120.0,-10.261,-2.402,1.705,-1.043,-0.524,-0.027
124.0,-10.261,-2.402,1.705,-1.043,-0.524,-0.027
128.0,-10.261,-2.402,1.705,-1.043,-0.524,-0.027
132.0,-10.007,-2.018,1.513,-1.024,-0.482,-0.008
136.0,-10.007,-2.018,1.513,-1.024,-0.482,-0.008
140.0,-10.283,-2.248,2.423,-1.089,-0.439,0.026
144.0,-10.283,-2.248,2.423,-1.089,-0.439,0.026
148.0,-10.283,-2.859,-0.438,-1.089,-0.439,0.026
152.0,-9.406,-2.859,-0.438,-1.126,-0.523,0.022
156.0,-9.406,-2.859,-0.438,-1.126,-0.523,0.022
160.0,-8.603,-2.447,4.895,-0.993,-0.583,-0.003
164.0,-8.603,-2.447,4.895,-0.993,-0.583,-0.003
168.0,-10.7,-2.167,2.838,-0.993,-0.583,-0.003
172.0,-10.7,-2.167,2.838,-1.167,-0.444,0.009
176.0,-10.7,-2.167,2.838,-1.167,-0.444,0.009
180.0,-10.137,-2.715,3.443,-1.252,-0.492,-0.047
184.0,-10.137,-2.715,3.443,-1.252,-0.492,-0.047
188.0,-9.963,-2.802,3.762,-1.197,-0.493,-0.05
192.0,-9.963,-2.802,3.762,-1.197,-0.493,-0.05
196.0,-9.963,-2.802,3.762,-1.197,-0.493,-0.05
200.0,-9.796,-2.797,2.789,-1.1,-0.472,-0.042
204.0,-9.796,-2.797,2.789,-1.1,-0.472,-0.042
208.0,-9.549,-2.75,2.546,-1.042,-0.439,-0.048
212.0,-9.549,-2.75,2.546,-1.042,-0.439,-0.048
216.0,-9.549,-2.75,2.546,-1.042,-0.439,-0.048
220.0,-9.165,-3.223,3.139,-1.042,-0.435,-0.062
224.0,-9.165,-3.223,3.139,-1.042,-0.435,-0.062
228.0,-8.771,-3.492,3.275,-0.944,-0.43,-0.094
232.0,-8.771,-3.492,3.275,-0.944,-0.43,-0.094
236.0,-8.771,-3.492,3.275,-0.944,-0.43,-0.094
240.0,-8.575,-3.212,3.397,-0.794,-0.376,-0.12
244.0,-8.575,-3.212,3.397,-0.794,-0.376,-0.12
248.0,-8.456,-3.236,3.032,-0.694,-0.324,-0.135
252.0,-8.456,-3.236,3.032,-0.694,-0.324,-0.135
256.0,-8.456,-3.236,3.032,-0.694,-0.324,-0.135
260.0,-8.435,-3.27,2.493,-0.595,-0.284,-0.17
264.0,-8.435,-3.27,2.493,-0.595,-0.284,-0.17
268.0,-8.579,-3.443,2.737,-0.515,-0.245,-0.195
272.0,-8.579,-3.443,2.737,-0.515,-0.245,-0.195
276.0,-8.579,-3.443,2.928,-0.515,-0.245,-0.195
280.0,-8.786,-3.965,2.928,-0.371,-0.203,-0.197
284.0,-8.786,-3.965,2.928,-0.371,-0.203,-0.197
288.0,-8.889,-3.59,2.965,-0.157,-0.175,-0.194
292.0,-8.889,-3.59,2.965,-0.157,-0.175,-0.194
296.0,-8.889,-3.354,2.334,-0.157,-0.175,-0.194
300.0,-8.904,-3.354,2.334,-0.011,-0.162,-0.184
304.0,-8.904,-3.354,2.334,-0.011,-0.162,-0.184
308.0,-8.51,-2.65,1.947,0.029,-0.185,-0.162
312.0,-8.51,-2.65,1.947,0.029,-0.185,-0.162
316.0,-8.51,-2.557,2.28,0.029,-0.185,-0.162
320.0,-8.494,-2.557,2.28,-0.055,-0.192,-0.157
324.0,-8.494,-2.557,2.28,-0.055,-0.192,-0.157
328.0,-8.575,-2.491,2.547,-0.126,-0.17,-0.17
332.0,-8.575,-2.491,2.547,-0.126,-0.17,-0.17
336.0,-8.429,-2.268,2.858,-0.126,-0.17,-0.17
340.0,-8.429,-2.268,2.858,-0.167,-0.152,-0.187
344.0,-8.429,-2.268,2.858,-0.167,-0.152,-0.187
348.0,-8.157,-2.207,2.017,-0.155,-0.127,-0.206
352.0,-8.157,-2.207,2.017,-0.155,-0.127,-0.206
356.0,-7.913,-1.503,1.865,-0.155,-0.127,-0.21
360.0,-7.913,-1.503,1.865,-0.158,-0.113,-0.21
364.0,-7.913,-1.503,1.865,-0.158,-0.113,-0.21
368.0,-8.085,-1.668,2.676,-0.26,-0.077,-0.207
372.0,-8.085,-1.668,2.676,-0.26,-0.077,-0.207
376.0,-8.505,-2.222,2.768,-0.26,-0.031,-0.2
380.0,-8.505,-2.222,2.768,-0.265,-0.031,-0.2
384.0,-8.505,-2.222,2.768,-0.265,-0.031,-0.2
388.0,-9.032,-2.301,2.548,-0.207,-0.012,-0.174
392.0,-9.032,-2.301,2.548,-0.207,-0.012,-0.174
396.0,-9.36,-2.508,2.269,-0.161,0.002,-0.15
400.0,-9.36,-2.508,2.269,-0.161,0.002,-0.15
404.0,-9.36,-2.508,2.269,-0.161,0.002,-0.15
408.0,-9.451,-2.428,2.153,-0.116,0.03,-0.131
411.0,-9.451,-2.428,2.153,-0.116,0.03,-0.131
415.0,-9.61,-2.617,2.332,-0.116,0.059,-0.11
419.0,-9.61,-2.617,2.332,-0.11,0.059,-0.11
423.0,-9.61,-2.617,2.332,-0.11,0.059,-0.11
427.0,-9.794,-2.694,2.456,-0.063,0.09,-0.084
431.0,-9.794,-2.694,2.456,-0.063,0.09,-0.084
435.0,-10.006,-2.818,2.557,-0.063,0.09,-0.046
439.0,-10.006,-2.818,2.557,-0.008,0.109,-0.046
443.0,-10.006,-2.818,2.557,-0.008,0.109,-0.046
447.0,-10.347,-2.654,2.444,0.045,0.129,-0.009
451.0,-10.347,-2.654,2.444,0.045,0.129,-0.009
455.0,-10.287,-2.638,2.483,0.045,0.129,0.022
458.0,-10.287,-2.638,2.483,0.062,0.12,0.022
462.0,-10.287,-2.638,2.483,0.062,0.12,0.022
466.0,-9.976,-2.758,2.621,0.048,0.083,0.046
470.0,-9.976,-2.758,2.621,0.048,0.083,0.046
474.0,-9.976,-2.758,2.621,0.048,0.083,0.046
477.0,-9.605,-2.992,2.382,0.089,0.043,0.046
481.0,-9.605,-2.992,2.382,0.089,0.043,0.046
485.0,-9.12,-2.655,2.16,0.199,0.022,0.021
489.0,-9.12,-2.655,2.16,0.199,0.022,0.021
492.0,-9.12,-2.655,2.16,0.199,0.022,0.021
496.0,-8.923,-2.46,2.474,0.255,0.024,-0.011
500.0,-8.923,-2.46,2.474,0.255,0.024,-0.011
504.0,-8.923,-2.427,2.559,0.255,0.024,-0.011
507.0,-8.87,-2.427,2.559,0.341,0.051,-0.042
511.0,-8.87,-2.427,2.559,0.341,0.051,-0.042
515.0,-8.851,-2.197,2.554,0.441,0.057,-0.066
519.0,-8.851,-2.197,2.554,0.441,0.057,-0.066
523.0,-8.851,-2.197,2.554,0.441,0.057,-0.066
527.0,-8.984,-2.164,2.607,0.49,0.045,-0.095
530.0,-8.984,-2.164,2.607,0.49,0.045,-0.095
534.0,-9.058,-1.996,2.517,0.506,0.019,-0.131
538.0,-9.058,-1.996,2.517,0.506,0.019,-0.131
542.0,-9.058,-1.996,2.517,0.506,0.019,-0.131
546.0,-9.027,-2.057,2.435,0.484,-0.023,-0.187
550.0,-9.027,-2.057,2.435,0.484,-0.023,-0.187
553.0,-8.939,-2.122,2.246,0.484,-0.08,-0.249
557.0,-8.939,-2.122,2.246,0.468,-0.08,-0.249
561.0,-8.939,-2.122,2.246,0.468,-0.08,-0.249
565.0,-8.819,-2.124,2.178,0.467,-0.119,-0.309
569.0,-8.819,-2.124,2.178,0.467,-0.119,-0.309
573.0,-8.805,-2.068,2.278,0.467,-0.119,-0.309
577.0,-8.805,-2.068,2.278,0.469,-0.139,-0.376
581.0,-8.805,-2.068,2.278,0.469,-0.139,-0.376
585.0,-8.911,-2.109,2.518,0.467,-0.156,-0.458
589.0,-8.911,-2.109,2.518,0.467,-0.156,-0.458
592.0,-9.082,-2.157,2.897,0.467,-0.156,-0.458
596.0,-9.082,-2.157,2.897,0.473,-0.173,-0.521
600.0,-9.082,-2.157,2.897,0.473,-0.173,-0.521
604.0,-9.261,-1.637,3.188,0.485,-0.196,-0.561
608.0,-9.261,-1.637,3.188,0.485,-0.196,-0.561
612.0,-9.261,-1.637,3.469,0.485,-0.196,-0.561
616.0,-9.586,-1.478,3.469,0.441,-0.227,-0.587
620.0,-9.586,-1.478,3.469,0.441,-0.227,-0.587
624.0,-9.866,-1.786,3.747,0.393,-0.269,-0.583
628.0,-9.866,-1.786,3.747,0.393,-0.269,-0.583
632.0,-9.866,-1.786,3.747,0.393,-0.269,-0.583
635.0,-9.826,-1.917,4.076,0.394,-0.328,-0.565
639.0,-9.826,-1.917,4.076,0.394,-0.328,-0.565
643.0,-9.605,-1.787,4.269,0.403,-0.393,-0.56
647.0,-9.605,-1.787,4.269,0.403,-0.393,-0.56
651.0,-9.605,-1.787,4.269,0.403,-0.393,-0.56
655.0,-9.479,-1.72,4.365,0.39,-0.448,-0.568
659.0,-9.479,-1.72,4.365,0.39,-0.448,-0.568
663.0,-9.375,-1.786,4.413,0.372,-0.488,-0.581
667.0,-9.375,-1.786,4.413,0.372,-0.488,-0.581
671.0,-9.375,-1.786,4.413,0.372,-0.488,-0.581
675.0,-9.185,-1.939,4.394,0.363,-0.52,-0.591
678.0,-9.185,-1.939,4.394,0.363,-0.52,-0.591
682.0,-9.038,-2.154,4.312,0.373,-0.542,-0.602
686.0,-9.038,-2.154,4.312,0.373,-0.542,-0.602
690.0,-9.038,-2.154,4.312,0.373,-0.542,-0.602
694.0,-8.969,-2.407,4.346,0.419,-0.55,-0.621
698.0,-8.969,-2.407,4.346,0.419,-0.55,-0.621
702.0,-8.969,-2.644,4.516,0.508,-0.561,-0.659
706.0,-8.969,-2.644,4.516,0.508,-0.561,-0.659
710.0,-8.969,-2.644,4.516,0.508,-0.561,-0.659
714.0,-8.972,-2.785,4.71,0.627,-0.597,-0.716
717.0,-8.972,-2.785,4.71,0.627,-0.597,-0.716
721.0,-9.014,-2.952,4.913,0.627,-0.651,-0.784
725.0,-9.014,-2.952,4.913,0.765,-0.651,-0.784
729.0,-9.014,-2.952,4.913,0.765,-0.651,-0.784
733.0,-9.057,-3.036,5.076,0.916,-0.706,-0.853
737.0,-9.057,-3.036,5.076,0.916,-0.706,-0.853
741.0,-9.068,-3.193,5.274,0.916,-0.706,-0.919
745.0,-9.068,-3.193,5.274,1.064,-0.757,-0.919
749.0,-9.068,-3.193,5.274,1.064,-0.757,-0.919
753.0,-9.123,-3.266,5.444,1.193,-0.802,-0.99
757.0,-9.123,-3.266,5.444,1.193,-0.802,-0.99
760.0,-9.223,-3.273,5.634,1.193,-0.802,-0.99
764.0,-9.223,-3.273,5.634,1.303,-0.828,-1.062
768.0,-9.223,-3.273,5.634,1.303,-0.828,-1.062
772.0,-9.229,-3.294,5.889,1.403,-0.854,-1.138
776.0,-9.229,-3.294,5.889,1.403,-0.854,-1.138
780.0,-9.229,-3.395,6.089,1.403,-0.854,-1.138
784.0,-9.179,-3.395,6.089,1.505,-0.89,-1.221
788.0,-9.179,-3.395,6.089,1.505,-0.89,-1.221
792.0,-9.221,-3.542,6.421,1.63,-0.918,-1.306
796.0,-9.221,-3.542,6.421,1.63,-0.918,-1.306
800.0,-9.221,-3.542,6.895,1.63,-0.918,-1.306
803.0,-9.461,-3.74,6.895,1.784,-0.95,-1.389
807.0,-9.461,-3.74,6.895,1.784,-0.95,-1.389
811.0,-9.903,-3.977,7.385,1.967,-1.008,-1.46
815.0,-9.903,-3.977,7.385,1.967,-1.008,-1.46
819.0,-9.903,-3.977,7.385,1.967,-1.008,-1.46
823.0,-10.465,-4.242,8.114,2.173,-1.097,-1.534
827.0,-10.465,-4.242,8.114,2.173,-1.097,-1.534
831.0,-11.086,-4.134,8.55,2.384,-1.227,-1.63
835.0,-11.086,-4.134,8.55,2.384,-1.227,-1.63
839.0,-11.086,-4.134,8.757,2.384,-1.227,-1.63
843.0,-11.707,-3.902,8.757,2.555,-1.388,-1.728
847.0,-11.707,-3.902,8.757,2.555,-1.388,-1.728
851.0,-12.048,-3.6,9.057,2.673,-1.55,-1.807
855.0,-12.048,-3.6,9.057,2.673,-1.55,-1.807
859.0,-12.048,-3.435,9.427,2.673,-1.55,-1.807
863.0,-12.213,-3.435,9.427,2.764,-1.702,-1.85
867.0,-12.213,-3.435,9.427,2.764,-1.702,-1.85
871.0,-12.483,-3.234,10.178,2.851,-1.86,-1.852
875.0,-12.483,-3.234,10.178,2.851,-1.86,-1.852
879.0,-12.614,-3.067,10.858,2.851,-1.86,-1.82
883.0,-12.614,-3.067,10.858,2.96,-2.051,-1.82
887.0,-12.614,-3.067,10.858,2.96,-2.051,-1.82
891.0,-12.7,-2.899,11.274,3.096,-2.275,-1.76
895.0,-12.7,-2.899,11.274,3.096,-2.275,-1.76
899.0,-12.76,-3.007,11.518,3.254,-2.509,-1.658
904.0,-12.76,-3.007,11.518,3.254,-2.509,-1.658
908.0,-12.76,-3.007,11.518,3.254,-2.509,-1.658
912.0,-12.845,-3.354,11.865,3.44,-2.728,-1.512
916.0,-12.845,-3.354,11.865,3.44,-2.728,-1.512
920.0,-13.089,-3.888,12.136,3.656,-2.94,-1.34
924.0,-13.089,-3.888,12.136,3.656,-2.94,-1.34
928.0,-13.089,-4.746,12.386,3.656,-2.94,-1.34
932.0,-13.476,-4.746,12.386,3.912,-3.138,-1.155
936.0,-13.476,-4.746,12.386,3.912,-3.138,-1.155
940.0,-13.979,-5.346,12.586,4.223,-3.299,-0.967
944.0,-13.979,-5.346,12.586,4.223,-3.299,-0.967
948.0,-14.415,-5.47,12.716,4.223,-3.439,-0.771
952.0,-14.415,-5.47,12.716,4.548,-3.439,-0.771
957.0,-14.415,-5.47,12.716,4.548,-3.439,-0.771
961.0,-14.416,-5.499,12.628,4.835,-3.568,-0.565
965.0,-14.416,-5.499,12.628,4.835,-3.568,-0.565
969.0,-13.798,-5.353,12.364,4.985,-3.663,-0.371
973.0,-13.798,-5.353,12.364,4.985,-3.663,-0.371
977.0,-13.798,-5.353,12.364,4.985,-3.663,-0.371
981.0,-12.932,-4.996,12.263,4.995,-3.708,-0.21
985.0,-12.932,-4.996,12.263,4.995,-3.708,-0.21
989.0,-12.361,-4.482,12.172,4.995,-3.712,-0.102
993.0,-12.361,-4.482,12.172,4.995,-3.712,-0.102
997.0,-11.828,-4.045,12.027,4.995,-3.712,-0.102
1001.0,-11.828,-4.045,12.027,4.995,-3.711,-0.056
1006.0,-11.828,-4.045,12.027,4.995,-3.711,-0.056
1010.0,-11.128,-3.626,12.014,4.995,-3.715,-0.084
1014.0,-11.128,-3.626,12.014,4.995,-3.715,-0.084
1018.0,-10.531,-3.165,11.808,4.964,-3.714,-0.186
1022.0,-10.531,-3.165,11.808,4.964,-3.714,-0.186
1026.0,-10.531,-3.165,11.808,4.964,-3.714,-0.186
1031.0,-9.884,-2.962,11.296,4.847,-3.716,-0.337
1035.0,-9.884,-2.962,11.296,4.847,-3.716,-0.337
1039.0,-9.023,-2.913,10.895,4.749,-3.716,-0.507
1043.0,-9.023,-2.913,10.895,4.749,-3.716,-0.507
1047.0,-8.069,-2.715,10.697,4.749,-3.716,-0.615
1051.0,-8.069,-2.715,10.697,4.702,-3.697,-0.615
1055.0,-8.069,-2.715,10.697,4.702,-3.697,-0.615
1059.0,-7.333,-2.379,10.932,4.693,-3.646,-0.593
1063.0,-7.333,-2.379,10.932,4.693,-3.646,-0.593
1067.0,-6.705,-2.396,11.167,4.709,-3.59,-0.452
1071.0,-6.705,-2.396,11.167,4.709,-3.59,-0.452
1075.0,-6.705,-2.396,11.167,4.709,-3.59,-0.452
1080.0,-6.142,-2.308,11.424,4.765,-3.546,-0.288
1084.0,-6.142,-2.308,11.424,4.765,-3.546,-0.288
1088.0,-5.837,-1.731,11.252,4.86,-3.538,-0.154
1092.0,-5.837,-1.731,11.252,4.86,-3.538,-0.154
1096.0,-5.837,-0.961,10.625,4.86,-3.538,-0.154
1100.0,-5.432,-0.961,10.625,4.948,-3.562,-0.053
1104.0,-5.432,-0.961,10.625,4.948,-3.562,-0.053
1108.0,-4.781,-0.272,9.94,4.985,-3.582,0.012
1112.0,-4.781,-0.272,9.94,4.985,-3.582,0.012
1116.0,-3.956,0.601,8.975,4.985,-3.582,0.042
1120.0,-3.956,0.601,8.975,4.976,-3.556,0.042
1124.0,-3.956,0.601,8.975,4.976,-3.556,0.042
1127.0,-3.181,1.571,8.087,4.9,-3.477,0.034
1131.0,-3.181,1.571,8.087,4.9,-3.477,0.034
1135.0,-3.181,1.571,8.087,4.9,-3.477,0.034
1139.0,-2.432,2.834,7.468,4.766,-3.38,-0.017
1143.0,-2.432,2.834,7.468,4.766,-3.38,-0.017
1147.0,-1.883,4.122,7.079,4.589,-3.284,-0.065
1151.0,-1.883,4.122,7.079,4.589,-3.284,-0.065
1154.0,-1.883,4.122,7.079,4.589,-3.284,-0.065
1158.0,-1.489,5.234,6.6,4.356,-3.197,-0.051
1162.0,-1.489,5.234,6.6,4.356,-3.197,-0.051
1166.0,-0.964,5.7,6.099,4.044,-3.128,0.007
1170.0,-0.964,5.7,6.099,4.044,-3.128,0.007
1174.0,-0.964,5.7,6.099,4.044,-3.128,0.007
1178.0,-0.364,5.544,6.193,3.707,-3.03,0.054
1181.0,-0.364,5.544,6.193,3.707,-3.03,0.054
1185.0,-0.145,5.405,3.583,3.707,-2.855,0.094
1189.0,-0.145,5.405,3.583,3.376,-2.855,0.094
1193.0,-0.145,5.405,3.583,3.376,-2.855,0.094
1197.0,0.772,4.78,3.974,3.064,-2.807,0.102
1200.0,0.772,4.78,3.974,3.064,-2.807,0.102
1204.0,0.772,4.78,2.693,3.064,-2.807,0.102
1208.0,0.902,4.445,2.693,2.839,-2.66,0.089
1212.0,0.902,4.445,2.693,2.839,-2.66,0.089
1215.0,1.305,4.133,2.286,2.647,-2.586,0.064
1219.0,1.305,4.133,2.286,2.647,-2.586,0.064
1223.0,1.305,4.133,2.286,2.647,-2.586,0.064
1227.0,1.466,3.931,1.784,2.49,-2.404,0.067
1230.0,1.466,3.931,1.784,2.49,-2.404,0.067
1234.0,1.466,3.805,1.355,2.49,-2.404,0.067
1238.0,1.356,3.805,1.355,2.351,-2.196,0.104
1242.0,1.356,3.805,1.355,2.351,-2.196,0.104
1245.0,1.066,3.763,1.055,2.212,-1.992,0.159
1249.0,1.066,3.763,1.055,2.212,-1.992,0.159
1253.0,1.066,3.763,1.055,2.212,-1.992,0.159
1256.0,0.734,3.802,0.747,2.075,-1.817,0.207
1260.0,0.734,3.802,0.747,2.075,-1.817,0.207
1264.0,0.506,3.863,0.471,2.075,-1.817,0.207
1268.0,0.506,3.863,0.471,1.948,-1.658,0.257
1271.0,0.506,3.863,0.471,1.948,-1.658,0.257
1275.0,0.314,3.865,0.245,1.822,-1.502,0.322
1279.0,0.314,3.865,0.245,1.822,-1.502,0.322
1283.0,0.314,3.865,0.245,1.822,-1.502,0.322
1286.0,-0.063,4.202,0.077,1.7,-1.336,0.382
1290.0,-0.063,4.202,0.077,1.7,-1.336,0.382
1294.0,-0.707,5.101,-0.031,1.58,-1.182,0.442
1298.0,-0.707,5.101,-0.031,1.58,-1.182,0.442
1302.0,-0.707,5.101,-0.031,1.58,-1.182,0.442
1306.0,-1.302,6.214,-0.169,1.459,-1.05,0.543
1310.0,-1.302,6.214,-0.169,1.459,-1.05,0.543
1313.0,-1.879,7.286,-0.246,1.459,-1.05,0.683
1317.0,-1.879,7.286,-0.246,1.35,-0.909,0.683
1321.0,-1.879,7.286,-0.246,1.35,-0.909,0.683
1325.0,-2.374,8.016,-0.462,1.285,-0.753,0.826
1329.0,-2.374,8.016,-0.462,1.285,-0.753,0.826
1333.0,-2.599,8.599,-0.618,1.285,-0.753,0.826
1337.0,-2.599,8.599,-0.618,1.259,-0.572,0.957
1341.0,-2.599,8.599,-0.618,1.259,-0.572,0.957
1345.0,-2.553,9.268,-0.581,1.262,-0.359,1.1
1349.0,-2.553,9.268,-0.581,1.262,-0.359,1.1
1353.0,-2.553,9.913,-0.378,1.262,-0.359,1.1
1356.0,-2.422,9.913,-0.378,1.285,-0.105,1.289
1360.0,-2.422,9.913,-0.378,1.285,-0.105,1.289
1364.0,-2.35,10.836,0.083,1.316,0.212,1.53
1368.0,-2.35,10.836,0.083,1.316,0.212,1.53
1372.0,-2.35,10.836,0.083,1.316,0.212,1.53
1376.0,-2.629,11.86,0.742,1.353,0.606,1.827
1380.0,-2.629,11.86,0.742,1.353,0.606,1.827
1383.0,-3.564,13.022,1.611,1.386,1.025,2.171
1387.0,-3.564,13.022,1.611,1.386,1.025,2.171
1391.0,-3.564,13.022,1.611,1.386,1.025,2.171
1395.0,-4.65,14.237,2.227,1.383,1.347,2.555
1399.0,-4.65,14.237,2.227,1.383,1.347,2.555
1402.0,-4.774,15.307,2.658,1.383,1.571,2.967
1406.0,-4.774,15.307,2.658,1.288,1.571,2.967
1410.0,-4.774,15.307,2.658,1.288,1.571,2.967
1414.0,-4.117,15.84,3.465,1.081,1.776,3.43
1418.0,-4.117,15.84,3.465,1.081,1.776,3.43
1422.0,-4.117,15.819,4.851,1.081,1.776,3.43
1425.0,-3.272,15.819,4.851,0.762,1.992,3.983
1429.0,-3.272,15.819,4.851,0.762,1.992,3.983
1433.0,-3.117,15.538,6.997,0.326,2.219,4.602
1437.0,-3.117,15.538,6.997,0.326,2.219,4.602
1441.0,-3.117,15.538,6.997,0.326,2.219,4.602
1444.0,-4.013,14.951,8.936,-0.192,2.38,4.985
1448.0,-4.013,14.951,8.936,-0.192,2.38,4.985
1452.0,-4.792,14.116,10.19,-0.74,2.363,5.013
1456.0,-4.792,14.116,10.19,-0.74,2.363,5.013
1460.0,-4.792,14.116,10.19,-0.74,2.363,5.013
1464.0,-4.473,13.116,10.879,-1.304,2.14,5.013
1468.0,-4.473,13.116,10.879,-1.304,2.14,5.013
1472.0,-3.64,11.797,10.851,-1.881,1.795,5.013
1476.0,-3.64,11.797,10.851,-1.881,1.795,5.013
1480.0,-3.64,11.797,10.851,-1.881,1.795,5.013
1484.0,-2.546,10.22,10.454,-2.452,1.425,5.013
1488.0,-2.546,10.22,10.454,-2.452,1.425,5.013
1492.0,-1.487,8.539,9.96,-2.985,1.068,5.013
1496.0,-1.487,8.539,9.96,-2.985,1.068,5.013
1500.0,-1.487,8.539,9.96,-2.985,1.068,5.013
1504.0,-0.808,7.22,9.47,-3.444,0.72,5.013
1508.0,-0.808,7.22,9.47,-3.444,0.72,5.013
1511.0,-0.509,6.06,8.882,-3.803,0.378,5.013
1515.0,-0.509,6.06,8.882,-3.803,0.378,5.013
1519.0,-0.509,6.06,8.882,-3.803,0.378,5.013
1523.0,-0.644,4.905,8.055,-4.082,0.073,5.013
1527.0,-0.644,4.905,8.055,-4.082,0.073,5.013
1530.0,-1.019,3.68,7.036,-4.082,0.073,5.013
1534.0,-1.019,3.68,7.036,-4.307,-0.165,5.013
1538.0,-1.019,3.68,7.036,-4.307,-0.165,5.013
1542.0,-1.399,2.303,6.037,-4.468,-0.324,5.013
1546.0,-1.399,2.303,6.037,-4.468,-0.324,5.013
1550.0,-1.399,0.662,5.314,-4.468,-0.324,5.013
1554.0,-1.947,0.662,5.314,-4.559,-0.404,5.013
1558.0,-1.947,0.662,5.314,-4.559,-0.404,5.013
1562.0,-2.212,-0.994,4.385,-4.596,-0.416,5.013
1566.0,-2.212,-0.994,4.385,-4.596,-0.416,5.013
1570.0,-2.212,-0.994,3.852,-4.596,-0.416,5.013
1574.0,-2.34,-2.229,3.852,-4.584,-0.322,5.013
1578.0,-2.34,-2.229,3.852,-4.584,-0.322,5.013
1582.0,-2.448,-2.855,3.626,-4.518,-0.155,5.013
1586.0,-2.448,-2.855,3.626,-4.518,-0.155,5.013
1590.0,-2.358,-3.172,3.587,-4.518,-0.155,5.013
1594.0,-2.358,-3.172,3.587,-4.414,0.039,5.013
1597.0,-2.358,-3.172,3.587,-4.414,0.039,5.013
1601.0,-2.506,-3.827,3.953,-4.278,0.235,5.013
1605.0,-2.506,-3.827,3.953,-4.278,0.235,5.013
1609.0,-2.506,-5.291,4.302,-4.278,0.235,5.013
1613.0,-3.038,-5.291,4.302,-4.117,0.351,5.013
1617.0,-3.038,-5.291,4.302,-4.117,0.351,5.013
1621.0,-3.434,-6.776,4.005,-3.923,0.377,5.013
1625.0,-3.434,-6.776,4.005,-3.923,0.377,5.013
1629.0,-3.434,-6.776,4.058,-3.923,0.377,5.013
1633.0,-4.166,-8.13,4.058,-3.697,0.398,5.013
1636.0,-4.166,-8.13,4.058,-3.697,0.398,5.013
1640.0,-5.143,-9.237,3.65,-3.461,0.388,5.013
1644.0,-5.143,-9.237,3.65,-3.461,0.388,5.013
1648.0,-5.143,-9.237,3.65,-3.461,0.388,5.013
1652.0,-6.059,-10.013,2.821,-3.232,0.319,5.011
1656.0,-6.059,-10.013,2.821,-3.232,0.319,5.011
1660.0,-6.526,-10.598,2.258,-3.032,0.172,4.945
1664.0,-6.526,-10.598,2.258,-3.032,0.172,4.945
1668.0,-6.526,-10.598,1.934,-3.032,0.172,4.945
1672.0,-6.253,-11.164,1.934,-2.859,-0.036,4.783
1676.0,-6.253,-11.164,1.934,-2.859,-0.036,4.783
1680.0,-5.326,-12.313,2.003,-2.65,-0.255,4.603
1684.0,-5.326,-12.313,2.003,-2.65,-0.255,4.603
1688.0,-4.068,-14.049,2.121,-2.65,-0.255,4.603
1692.0,-4.068,-14.049,2.121,-2.325,-0.484,4.384
1697.0,-4.068,-14.049,2.121,-2.325,-0.484,4.384
1701.0,-2.943,-15.434,2.173,-1.783,-0.681,4.106
1705.0,-2.943,-15.434,2.173,-1.783,-0.681,4.106
1709.0,-2.11,-16.132,2.294,-1.02,-0.816,3.821
1713.0,-2.11,-16.132,2.294,-1.02,-0.816,3.821
1717.0,-2.11,-16.132,2.294,-1.02,-0.816,3.821
1721.0,-1.367,-16.28,2.384,-0.167,-0.895,3.597
1725.0,-1.367,-16.28,2.384,-0.167,-0.895,3.597
1729.0,-0.608,-15.811,2.59,0.65,-0.912,3.405
1733.0,-0.608,-15.811,2.59,0.65,-0.912,3.405
1737.0,-0.608,-15.811,2.989,0.65,-0.912,3.405
1741.0,0.162,-14.825,2.989,1.327,-0.891,3.204
1745.0,0.162,-14.825,2.989,1.327,-0.891,3.204
1749.0,0.966,-13.582,3.285,1.793,-0.849,2.99
1753.0,0.966,-13.582,3.285,1.793,-0.849,2.99
1757.0,0.966,-13.582,3.285,1.793,-0.849,2.99
1761.0,1.801,-12.309,3.584,2.043,-0.789,2.765
1765.0,1.801,-12.309,3.584,2.043,-0.789,2.765
1769.0,2.697,-10.947,3.894,2.104,-0.716,2.537
1772.0,2.697,-10.947,3.894,2.104,-0.716,2.537
1776.0,2.697,-10.947,3.894,2.104,-0.716,2.537
1780.0,3.468,-9.817,4.351,2.026,-0.631,2.329
1784.0,3.468,-9.817,4.351,2.026,-0.631,2.329
1788.0,4.07,-9.0,4.748,1.84,-0.559,2.143
1792.0,4.07,-9.0,4.748,1.84,-0.559,2.143
1796.0,4.07,-9.0,4.748,1.84,-0.559,2.143
1799.0,4.308,-8.286,4.843,1.598,-0.499,1.953
1803.0,4.308,-8.286,4.843,1.598,-0.499,1.953
1807.0,4.104,-7.588,4.906,1.598,-0.499,1.763
1811.0,4.104,-7.588,4.906,1.341,-0.456,1.763
1815.0,4.104,-7.588,4.906,1.341,-0.456,1.763
1818.0,3.572,-6.877,4.627,1.083,-0.437,1.604
1822.0,3.572,-6.877,4.627,1.083,-0.437,1.604
1826.0,3.572,-6.877,4.117,1.083,-0.437,1.604
1830.0,2.739,-6.143,4.117,0.846,-0.421,1.477
1834.0,2.739,-6.143,4.117,0.846,-0.421,1.477
1838.0,1.884,-5.319,3.6,0.649,-0.399,1.384
1841.0,1.884,-5.319,3.6,0.649,-0.399,1.384
1845.0,1.884,-5.319,3.6,0.649,-0.399,1.384
1849.0,1.313,-4.516,3.134,0.496,-0.368,1.351
1853.0,1.313,-4.516,3.134,0.496,-0.368,1.351
1857.0,1.229,-3.894,2.709,0.378,-0.332,1.397
1860.0,1.229,-3.894,2.709,0.378,-0.332,1.397
1864.0,1.229,-3.894,2.709,0.378,-0.332,1.397
1868.0,1.461,-3.382,2.573,0.291,-0.27,1.496
1872.0,1.461,-3.382,2.573,0.291,-0.27,1.496
1876.0,1.461,-2.972,2.524,0.291,-0.27,1.496
1880.0,1.765,-2.972,2.524,0.242,-0.18,1.626
1883.0,1.765,-2.972,2.524,0.242,-0.18,1.626
1887.0,1.899,-2.588,2.356,0.238,-0.061,1.773
1891.0,1.899,-2.588,2.356,0.238,-0.061,1.773
1895.0,1.899,-2.588,2.356,0.238,-0.061,1.773
1899.0,1.793,-2.257,2.083,0.28,0.088,1.932
1902.0,1.793,-2.257,2.083,0.28,0.088,1.932
1906.0,1.509,-2.128,1.893,0.354,0.262,2.103
1910.0,1.509,-2.128,1.893,0.354,0.262,2.103
1914.0,1.509,-2.128,1.893,0.354,0.262,2.103
1917.0,1.065,-2.136,1.661,0.446,0.458,2.266
1921.0,1.065,-2.136,1.661,0.446,0.458,2.266
1925.0,1.065,-2.136,1.376,0.446,0.458,2.266
1929.0,0.505,-2.209,1.376,0.548,0.673,2.402
1932.0,0.505,-2.209,1.376,0.548,0.673,2.402
1936.0,-0.159,-2.261,1.097,0.651,0.897,2.499
1940.0,-0.159,-2.261,1.097,0.651,0.897,2.499
1944.0,-0.159,-2.261,1.097,0.651,0.897,2.499
1947.0,-0.752,-2.279,0.648,0.744,1.126,2.569
1951.0,-0.752,-2.279,0.648,0.744,1.126,2.569
1955.0,-1.315,-2.215,0.141,0.744,1.126,2.621
1959.0,-1.315,-2.215,0.141,0.825,1.382,2.621
1963.0,-1.315,-2.215,0.141,0.825,1.382,2.621
1967.0,-1.884,-2.052,-0.184,0.883,1.678,2.676
1970.0,-1.884,-2.052,-0.184,0.883,1.678,2.676
1974.0,-1.884,-1.979,-0.241,0.883,1.678,2.676
1978.0,-2.415,-1.979,-0.241,0.918,1.999,2.758
1982.0,-2.415,-1.979,-0.241,0.918,1.999,2.758
1986.0,-2.715,-2.146,-0.209,0.934,2.319,2.865
1990.0,-2.715,-2.146,-0.209,0.934,2.319,2.865
1994.0,-2.715,-2.146,-0.2,0.934,2.319,2.865
1998.0,-2.893,-2.51,-0.2,0.943,2.643,2.975
2002.0,-2.893,-2.51,-0.2,0.943,2.643,2.975
2006.0,-3.134,-3.047,-0.011,0.957,2.981,3.067
2009.0,-3.134,-3.047,-0.011,0.957,2.981,3.067
2013.0,-3.134,-3.047,-0.011,0.957,2.981,3.067
2017.0,-3.628,-3.541,0.508,0.982,3.318,3.126
2021.0,-3.628,-3.541,0.508,0.982,3.318,3.126
2025.0,-4.652,-3.925,1.622,1.014,3.594,3.141
2029.0,-4.652,-3.925,1.622,1.014,3.594,3.141
2033.0,-4.652,-3.925,1.622,1.014,3.594,3.141
2036.0,-5.931,-4.071,2.712,1.032,3.725,3.114
2040.0,-5.931,-4.071,2.712,1.032,3.725,3.114
2044.0,-6.824,-3.903,2.903,1.032,3.705,3.087
2048.0,-6.824,-3.903,2.903,0.985,3.705,3.087
2052.0,-6.824,-3.903,2.903,0.985,3.705,3.087
2056.0,-6.943,-3.604,2.565,0.85,3.68,3.133
2059.0,-6.943,-3.604,2.565,0.85,3.68,3.133
2063.0,-6.943,-3.604,2.459,0.85,3.68,3.133
2067.0,-6.576,-3.376,2.459,0.671,3.781,3.304
2071.0,-6.576,-3.376,2.459,0.671,3.781,3.304
2075.0,-6.264,-4.001,3.575,0.512,4.002,3.584
2078.0,-6.264,-4.001,3.575,0.512,4.002,3.584
2082.0,-6.264,-4.001,3.575,0.512,4.002,3.584
2086.0,-7.049,-5.798,6.349,0.438,4.185,3.818
2090.0,-7.049,-5.798,6.349,0.438,4.185,3.818
2094.0,-9.0,-7.172,8.182,0.446,4.12,3.842
2098.0,-9.0,-7.172,8.182,0.446,4.12,3.842
2101.0,-9.0,-7.172,8.182,0.446,4.12,3.842
2105.0,-11.488,-7.423,7.746,0.468,3.883,3.728
2109.0,-11.488,-7.423,7.746,0.468,3.883,3.728
2113.0,-13.717,-6.964,5.554,0.468,3.883,3.636
2117.0,-13.717,-6.964,5.554,0.441,3.752,3.636
2121.0,-13.717,-6.964,5.554,0.441,3.752,3.636
2125.0,-14.327,-7.359,3.947,0.378,3.868,3.607
2129.0,-14.327,-7.359,3.947,0.378,3.868,3.607
2133.0,-13.816,-8.313,3.316,0.378,3.868,3.607
2136.0,-13.816,-8.313,3.316,0.405,4.151,3.533
2140.0,-13.816,-8.313,3.316,0.405,4.151,3.533
2144.0,-13.896,-9.236,4.276,0.675,4.527,3.357
2148.0,-13.896,-9.236,4.276,0.675,4.527,3.357
2152.0,-13.896,-9.58,6.123,0.675,4.527,3.357
2156.0,-15.574,-9.58,6.123,1.217,4.813,3.085
2160.0,-15.574,-9.58,6.123,1.217,4.813,3.085
2164.0,-18.158,-8.64,7.053,1.895,4.85,2.746
2168.0,-18.158,-8.64,7.053,1.895,4.85,2.746
2172.0,-18.158,-8.64,7.378,1.895,4.85,2.746
2175.0,-19.574,-7.119,7.378,2.506,4.677,2.437
2179.0,-19.574,-7.119,7.378,2.506,4.677,2.437
2183.0,-19.6,-5.44,7.161,2.907,4.406,2.189
2187.0,-19.6,-5.44,7.161,2.907,4.406,2.189
2191.0,-19.6,-5.44,7.161,2.907,4.406,2.189
2195.0,-19.6,-3.747,6.366,3.045,4.13,2.009
2199.0,-19.6,-3.747,6.366,3.045,4.13,2.009
2203.0,-19.6,-2.399,5.41,2.935,3.911,1.9
2207.0,-19.6,-2.399,5.41,2.935,3.911,1.9
2211.0,-19.6,-2.399,5.41,2.935,3.911,1.9
2215.0,-19.6,-1.676,4.563,2.607,3.758,1.83
2218.0,-19.6,-1.676,4.563,2.607,3.758,1.83
2222.0,-19.6,-1.543,3.879,2.117,3.657,1.749
2226.0,-19.6,-1.543,3.879,2.117,3.657,1.749
2230.0,-19.6,-1.543,3.879,2.117,3.657,1.749
2234.0,-19.6,-1.621,3.367,1.522,3.583,1.634
2238.0,-19.6,-1.621,3.367,1.522,3.583,1.634
2242.0,-19.6,-1.866,3.188,0.867,3.504,1.488
2246.0,-19.6,-1.866,3.188,0.867,3.504,1.488
2250.0,-19.6,-1.866,3.188,0.867,3.504,1.488
2254.0,-19.278,-2.168,3.249,0.196,3.394,1.314
2257.0,-19.278,-2.168,3.249,0.196,3.394,1.314
2261.0,-18.016,-2.505,3.44,-0.434,3.254,1.113
2265.0,-18.016,-2.505,3.44,-0.434,3.254,1.113
2269.0,-18.016,-2.505,3.44,-0.434,3.254,1.113
2273.0,-16.878,-2.683,3.709,-0.989,3.107,0.874
2277.0,-16.878,-2.683,3.709,-0.989,3.107,0.874
2281.0,-16.306,-2.7,3.719,-1.458,2.977,0.606
2285.0,-16.306,-2.7,3.719,-1.458,2.977,0.606
2289.0,-16.306,-2.7,3.719,-1.458,2.977,0.606
2293.0,-16.273,-2.671,3.428,-1.851,2.875,0.346
2297.0,-16.273,-2.671,3.428,-1.851,2.875,0.346
2301.0,-16.66,-2.662,3.112,-2.179,2.793,0.131
2305.0,-16.66,-2.662,3.112,-2.179,2.793,0.131
2309.0,-16.66,-2.662,3.112,-2.179,2.793,0.131
2313.0,-17.071,-2.725,2.953,-2.445,2.699,-0.013
2317.0,-17.071,-2.725,2.953,-2.445,2.699,-0.013
2321.0,-17.166,-2.907,2.885,-2.637,2.56,-0.089
2326.0,-17.166,-2.907,2.885,-2.637,2.56,-0.089
2330.0,-17.166,-2.907,2.845,-2.637,2.56,-0.089
2334.0,-16.933,-3.188,2.845,-2.74,2.37,-0.12
2338.0,-16.933,-3.188,2.845,-2.74,2.37,-0.12
2342.0,-16.467,-3.486,2.776,-2.748,2.14,-0.143
2346.0,-16.467,-3.486,2.776,-2.748,2.14,-0.143
2350.0,-15.682,-3.671,2.539,-2.748,1.889,-0.178
2354.0,-15.682,-3.671,2.539,-2.673,1.889,-0.178
2358.0,-15.682,-3.671,2.539,-2.673,1.889,-0.178
2362.0,-14.724,-3.699,2.25,-2.546,1.642,-0.23
2366.0,-14.724,-3.699,2.25,-2.546,1.642,-0.23
2370.0,-13.789,-3.572,1.991,-2.398,1.423,-0.296
2375.0,-13.789,-3.572,1.991,-2.398,1.423,-0.296
2379.0,-13.789,-3.572,1.991,-2.398,1.423,-0.296
2383.0,-12.904,-3.382,1.77,-2.255,1.241,-0.361
2387.0,-12.904,-3.382,1.77,-2.255,1.241,-0.361
2391.0,-12.173,-3.16,1.622,-2.137,1.092,-0.408
2395.0,-12.173,-3.16,1.622,-2.137,1.092,-0.408
2399.0,-11.617,-2.964,1.541,-2.137,1.092,-0.408
2403.0,-11.617,-2.964,1.541,-2.051,0.975,-0.432
2407.0,-11.617,-2.964,1.541,-2.051,0.975,-0.432
2411.0,-11.197,-2.846,1.512,-1.996,0.876,-0.434
2415.0,-11.197,-2.846,1.512,-1.996,0.876,-0.434
2419.0,-10.866,-2.771,1.62,-1.956,0.788,-0.422
2423.0,-10.866,-2.771,1.62,-1.956,0.788,-0.422
2428.0,-10.866,-2.771,1.62,-1.956,0.788,-0.422
2432.0,-10.775,-2.613,1.891,-1.936,0.696,-0.399
2436.0,-10.775,-2.613,1.891,-1.936,0.696,-0.399
2440.0,-10.713,-2.567,2.003,-1.947,0.589,-0.369
2444.0,-10.713,-2.567,2.003,-1.947,0.589,-0.369
2448.0,-10.713,-2.567,2.161,-1.947,0.589,-0.369
2452.0,-10.652,-2.505,2.161,-1.965,0.473,-0.336
2456.0,-10.652,-2.505,2.161,-1.965,0.473,-0.336
2460.0,-10.631,-2.27,2.401,-1.994,0.337,-0.291
2464.0,-10.631,-2.27,2.401,-1.994,0.337,-0.291
2468.0,-10.557,-2.115,2.418,-1.994,0.337,-0.232
2472.0,-10.557,-2.115,2.418,-2.047,0.178,-0.232
2477.0,-10.557,-2.115,2.418,-2.047,0.178,-0.232
2481.0,-10.384,-2.015,2.21,-2.1,0.027,-0.16
2485.0,-10.384,-2.015,2.21,-2.1,0.027,-0.16
2489.0,-10.144,-2.037,1.752,-2.141,-0.106,-0.08
2493.0,-10.144,-2.037,1.752,-2.141,-0.106,-0.08
2497.0,-10.144,-2.037,1.752,-2.141,-0.106,-0.08
2501.0,-9.981,-2.19,1.023,-2.167,-0.213,-0.008
2505.0,-9.981,-2.19,1.023,-2.167,-0.213,-0.008
2509.0,-9.895,-2.253,0.27,-2.173,-0.283,0.047
2513.0,-9.895,-2.253,0.27,-2.173,-0.283,0.047
2517.0,-9.629,-2.439,-0.319,-2.173,-0.283,0.047
2521.0,-9.629,-2.439,-0.319,-2.134,-0.324,0.104
2526.0,-9.629,-2.439,-0.319,-2.134,-0.324,0.104
2530.0,-9.441,-2.66,-0.58,-2.037,-0.348,0.16
2534.0,-9.441,-2.66,-0.58,-2.037,-0.348,0.16
2538.0,-9.507,-2.797,-0.83,-1.88,-0.366,0.201
2542.0,-9.507,-2.797,-0.83,-1.88,-0.366,0.201
2546.0,-9.507,-2.797,-0.83,-1.88,-0.366,0.201
2550.0,-9.644,-2.74,-0.961,-1.671,-0.374,0.225
2554.0,-9.644,-2.74,-0.961,-1.671,-0.374,0.225
2558.0,-9.656,-2.563,-0.985,-1.439,-0.377,0.244
2562.0,-9.656,-2.563,-0.985,-1.439,-0.377,0.244
2566.0,-9.656,-2.563,-0.985,-1.439,-0.377,0.244
2570.0,-9.454,-2.279,-1.025,-1.205,-0.372,0.264
2575.0,-9.454,-2.279,-1.025,-1.205,-0.372,0.264
2579.0,-9.102,-1.924,-1.051,-0.979,-0.35,0.288
2583.0,-9.102,-1.924,-1.051,-0.979,-0.35,0.288
2587.0,-8.65,-1.624,-1.021,-0.979,-0.35,0.318
2591.0,-8.65,-1.624,-1.021,-0.763,-0.312,0.318
2595.0,-8.65,-1.624,-1.021,-0.763,-0.312,0.318
2599.0,-8.159,-1.332,-0.986,-0.567,-0.263,0.349
2603.0,-8.159,-1.332,-0.986,-0.567,-0.263,0.349
2607.0,-7.643,-1.116,-0.939,-0.389,-0.197,0.376
2611.0,-7.643,-1.116,-0.939,-0.389,-0.197,0.376
2615.0,-7.643,-1.116,-0.939,-0.389,-0.197,0.376
2619.0,-7.172,-0.94,-0.88,-0.227,-0.121,0.4
2623.0,-7.172,-0.94,-0.88,-0.227,-0.121,0.4
2628.0,-6.742,-0.792,-0.727,-0.08,-0.049,0.407
2632.0,-6.742,-0.792,-0.727,-0.08,-0.049,0.407
2636.0,-6.742,-0.605,-0.746,-0.08,-0.049,0.407
2640.0,-6.299,-0.605,-0.746,0.06,0.001,0.391
2644.0,-6.299,-0.605,-0.746,0.06,0.001,0.391
2648.0,-5.879,-0.357,-0.903,0.204,0.032,0.354
2652.0,-5.879,-0.357,-0.903,0.204,0.032,0.354
2655.0,-5.879,-0.357,-1.192,0.204,0.032,0.354
2659.0,-5.416,-0.064,-1.192,0.346,0.049,0.301
2663.0,-5.416,-0.064,-1.192,0.346,0.049,0.301
2667.0,-4.893,0.191,-1.5,0.48,0.058,0.238
2671.0,-4.893,0.191,-1.5,0.48,0.058,0.238
2675.0,-4.893,0.191,-1.5,0.48,0.058,0.238
2679.0,-4.381,0.416,-1.786,0.602,0.064,0.17
2682.0,-4.381,0.416,-1.786,0.602,0.064,0.17
2686.0,-3.922,0.465,-2.104,0.714,0.068,0.098
2690.0,-3.922,0.465,-2.104,0.714,0.068,0.098
2694.0,-3.922,0.465,-2.104,0.714,0.068,0.098
2698.0,-3.826,0.505,-2.311,0.799,0.068,0.013
2702.0,-3.826,0.505,-2.311,0.799,0.068,0.013
2705.0,-4.126,0.736,-2.464,0.799,0.068,-0.067
2709.0,-4.126,0.736,-2.464,0.813,0.051,-0.067
2713.0,-4.126,0.736,-2.464,0.813,0.051,-0.067
2717.0,-4.96,0.924,-2.69,0.732,0.027,-0.116
2721.0,-4.96,0.924,-2.69,0.732,0.027,-0.116
2725.0,-6.037,0.973,-2.824,0.732,0.027,-0.116
2729.0,-6.037,0.973,-2.824,0.567,0.017,-0.151
2733.0,-6.037,0.973,-2.824,0.567,0.017,-0.151
2737.0,-6.987,0.913,-2.669,0.347,-0.006,-0.195
2741.0,-6.987,0.913,-2.669,0.347,-0.006,-0.195
2745.0,-7.723,0.942,-2.35,0.347,-0.006,-0.195
2749.0,-7.723,0.942,-2.35,0.099,-0.069,-0.258
2753.0,-7.723,0.942,-2.35,0.099,-0.069,-0.258
2757.0,-8.075,0.939,-2.128,-0.154,-0.177,-0.326
2761.0,-8.075,0.939,-2.128,-0.154,-0.177,-0.326
2765.0,-8.172,0.943,-2.01,-0.154,-0.306,-0.384
2769.0,-8.172,0.943,-2.01,-0.405,-0.306,-0.384
2773.0,-8.172,0.943,-2.01,-0.405,-0.306,-0.384
2777.0,-8.251,0.92,-2.043,-0.657,-0.421,-0.421
2781.0,-8.251,0.92,-2.043,-0.657,-0.421,-0.421
2785.0,-8.365,0.875,-2.207,-0.918,-0.489,-0.442
2789.0,-8.365,0.875,-2.207,-0.918,-0.489,-0.442
2793.0,-8.365,0.875,-2.207,-0.918,-0.489,-0.442
2797.0,-8.529,0.791,-2.241,-1.183,-0.505,-0.453
2801.0,-8.529,0.791,-2.241,-1.183,-0.505,-0.453
2805.0,-8.838,0.658,-2.102,-1.444,-0.495,-0.462
2810.0,-8.838,0.658,-2.102,-1.444,-0.495,-0.462
2814.0,-9.331,0.488,-1.959,-1.444,-0.495,-0.462
2818.0,-9.331,0.488,-1.959,-1.688,-0.478,-0.479
2822.0,-9.331,0.488,-1.959,-1.688,-0.478,-0.479
2826.0,-9.846,0.322,-1.702,-1.903,-0.463,-0.507
2830.0,-9.846,0.322,-1.702,-1.903,-0.463,-0.507
2834.0,-10.165,0.179,-1.325,-2.084,-0.467,-0.546
2838.0,-10.165,0.179,-1.325,-2.084,-0.467,-0.546
2842.0,-10.165,0.179,-1.325,-2.084,-0.467,-0.546
2847.0,-10.096,0.066,-0.901,-2.225,-0.499,-0.594
2851.0,-10.096,0.066,-0.901,-2.225,-0.499,-0.594
2855.0,-9.592,0.059,-0.574,-2.322,-0.542,-0.645
2859.0,-9.592,0.059,-0.574,-2.322,-0.542,-0.645
2863.0,-8.865,0.084,-0.409,-2.322,-0.542,-0.645
2867.0,-8.865,0.084,-0.409,-2.382,-0.574,-0.688
2871.0,-8.865,0.084,-0.409,-2.382,-0.574,-0.688
2875.0,-8.139,0.107,-0.364,-2.412,-0.567,-0.713
2879.0,-8.139,0.107,-0.364,-2.412,-0.567,-0.713
2883.0,-7.533,0.026,-0.281,-2.421,-0.517,-0.713
2888.0,-7.533,0.026,-0.281,-2.421,-0.517,-0.713
2892.0,-7.533,0.026,-0.281,-2.421,-0.517,-0.713
2896.0,-7.121,-0.165,-0.17,-2.409,-0.437,-0.693
2900.0,-7.121,-0.165,-0.17,-2.409,-0.437,-0.693
2904.0,-7.093,-0.425,-0.084,-2.369,-0.343,-0.665
2908.0,-7.093,-0.425,-0.084,-2.369,-0.343,-0.665
2912.0,-7.475,-0.715,-0.123,-2.369,-0.343,-0.665
2917.0,-7.475,-0.715,-0.123,-2.299,-0.246,-0.643
2921.0,-7.475,-0.715,-0.123,-2.299,-0.246,-0.643
2925.0,-8.149,-0.992,-0.169,-2.203,-0.15,-0.627
2929.0,-8.149,-0.992,-0.169,-2.203,-0.15,-0.627
2933.0,-8.989,-1.213,-0.098,-2.086,-0.064,-0.618
2937.0,-8.989,-1.213,-0.098,-2.086,-0.064,-0.618
2942.0,-8.989,-1.213,0.019,-2.086,-0.064,-0.618
2946.0,-9.788,-1.356,0.019,-1.963,-0.002,-0.609
2950.0,-9.788,-1.356,0.019,-1.963,-0.002,-0.609
2954.0,-10.394,-1.455,0.122,-1.837,0.037,-0.597
2958.0,-10.394,-1.455,0.122,-1.837,0.037,-0.597
2962.0,-10.774,-1.526,0.307,-1.837,0.037,-0.59
2966.0,-10.774,-1.526,0.307,-1.702,0.069,-0.59
2970.0,-10.774,-1.526,0.307,-1.702,0.069,-0.59
2974.0,-11.009,-1.587,0.482,-1.552,0.1,-0.596
2978.0,-11.009,-1.587,0.482,-1.552,0.1,-0.596
2982.0,-11.134,-1.488,0.744,-1.39,0.143,-0.62
2986.0,-11.134,-1.488,0.744,-1.39,0.143,-0.62
2990.0,-11.134,-1.488,0.744,-1.39,0.143,-0.62
2995.0,-11.121,-1.412,1.055,-1.215,0.178,-0.649
2999.0,-11.121,-1.412,1.055,-1.215,0.178,-0.649
