deltaTime,Acc_X,Acc_Y,Acc_Z,Gyro_X,Gyro_Y,Gyro_Z
0.0,-7.905,-0.696,6.314,-0.146,-0.207,0.04
3.0,-7.905,-0.696,6.314,-0.146,-0.207,0.04
6.0,-7.905,-0.696,6.314,-0.146,-0.207,0.04
9.0,-8.067,-0.744,6.181,-0.146,-0.207,0.04
12.0,-8.067,-0.744,6.181,-0.213,-0.193,0.008
15.0,-8.067,-0.744,6.181,-0.213,-0.193,0.008
18.0,-8.067,-0.744,6.181,-0.213,-0.193,0.008
21.0,-8.25,-0.861,6.205,-0.264,-0.175,-0.02
24.0,-8.25,-0.861,6.205,-0.264,-0.175,-0.02
27.0,-8.25,-0.861,6.205,-0.264,-0.175,-0.02
30.0,-8.053,-1.01,6.335,-0.276,-0.201,-0.034
34.0,-8.053,-1.01,6.335,-0.276,-0.201,-0.034
38.0,-8.053,-1.01,6.335,-0.276,-0.201,-0.034
42.0,-7.828,-1.219,6.476,-0.251,-0.207,-0.04
46.0,-7.828,-1.219,6.476,-0.251,-0.207,-0.04
50.0,-7.632,-1.288,6.422,-0.175,-0.219,-0.048
54.0,-7.632,-1.288,6.422,-0.175,-0.219,-0.048
57.0,-7.632,-1.288,6.422,-0.175,-0.219,-0.048
61.0,-7.691,-1.274,6.243,-0.082,-0.235,-0.049
65.0,-7.691,-1.274,6.243,-0.082,-0.235,-0.049
69.0,-7.732,-1.147,6.114,0.005,-0.257,-0.038
73.0,-7.732,-1.147,6.114,0.005,-0.257,-0.038
77.0,-7.732,-1.147,6.114,0.005,-0.257,-0.038
81.0,-7.86,-0.985,5.961,0.056,-0.25,-0.033
84.0,-7.86,-0.985,5.961,0.056,-0.25,-0.033
88.0,-7.713,-0.797,5.752,0.056,-0.25,-0.033
92.0,-7.713,-0.797,5.752,0.073,-0.265,-0.048
96.0,-7.713,-0.797,5.752,0.073,-0.265,-0.048
100.0,-7.47,-0.59,5.581,0.052,-0.273,-0.077
104.0,-7.47,-0.59,5.581,0.052,-0.273,-0.077
108.0,-7.47,-0.59,5.581,0.052,-0.273,-0.077
111.0,-7.25,-0.434,5.623,0.008,-0.249,-0.108
115.0,-7.25,-0.434,5.623,0.008,-0.249,-0.108
119.0,-7.224,0.222,6.145,-0.054,-0.181,-0.13
123.0,-7.224,0.222,6.145,-0.054,-0.181,-0.13
127.0,-7.224,0.222,6.145,-0.054,-0.181,-0.13
131.0,-7.521,-0.617,6.491,-0.147,-0.127,-0.114
135.0,-7.521,-0.617,6.491,-0.147,-0.127,-0.114
139.0,-7.393,-0.887,6.36,-0.092,-0.139,-0.041
143.0,-7.393,-0.887,6.36,-0.092,-0.139,-0.041
147.0,-7.393,-0.887,6.36,-0.092,-0.139,-0.041
151.0,-7.356,-0.531,5.987,-0.006,-0.145,0.017
155.0,-7.356,-0.531,5.987,-0.006,-0.145,0.017
159.0,-7.385,-0.147,5.681,-0.018,-0.129,0.042
163.0,-7.385,-0.147,5.681,-0.018,-0.129,0.042
167.0,-7.385,-0.147,5.681,-0.018,-0.129,0.042
170.0,-7.358,0.027,5.614,-0.121,-0.092,0.057
174.0,-7.358,0.027,5.614,-0.121,-0.092,0.057
178.0,-7.367,-0.052,5.722,-0.262,-0.044,0.079
182.0,-7.367,-0.052,5.722,-0.262,-0.044,0.079
186.0,-7.367,-0.052,5.722,-0.262,-0.044,0.079
190.0,-7.589,-0.178,5.971,-0.389,-0.001,0.106
194.0,-7.589,-0.178,5.971,-0.389,-0.001,0.106
198.0,-7.866,-0.389,6.268,-0.489,0.028,0.128
201.0,-7.866,-0.389,6.268,-0.489,0.028,0.128
205.0,-7.866,-0.389,6.268,-0.489,0.028,0.128
209.0,-8.12,-0.589,6.686,-0.547,0.046,0.143
213.0,-8.12,-0.589,6.686,-0.547,0.046,0.143
217.0,-8.332,-0.681,7.332,-0.547,0.046,0.143
221.0,-8.332,-0.681,7.332,-0.561,0.057,0.151
224.0,-8.332,-0.681,7.332,-0.561,0.057,0.151
228.0,-8.692,-1.111,8.157,-0.519,0.058,0.172
232.0,-8.692,-1.111,8.157,-0.519,0.058,0.172
236.0,-8.692,-1.111,8.157,-0.519,0.058,0.172
240.0,-8.908,-1.366,8.859,-0.389,0.047,0.21
243.0,-8.908,-1.366,8.859,-0.389,0.047,0.21
247.0,-8.859,-1.387,9.036,-0.203,0.003,0.24
251.0,-8.859,-1.387,9.036,-0.203,0.003,0.24
255.0,-8.859,-1.387,9.036,-0.203,0.003,0.24
259.0,-8.958,-1.396,8.871,-0.008,-0.084,0.227
263.0,-8.958,-1.396,8.871,-0.008,-0.084,0.227
267.0,-8.328,-0.38,8.149,0.182,-0.211,0.165
270.0,-8.328,-0.38,8.149,0.182,-0.211,0.165
274.0,-8.328,-0.38,8.149,0.182,-0.211,0.165
278.0,-8.338,0.22,7.285,0.213,-0.341,0.023
282.0,-8.338,0.22,7.285,0.213,-0.341,0.023
285.0,-8.338,0.22,6.544,0.213,-0.341,0.023
289.0,-8.526,0.329,6.544,0.174,-0.457,-0.072
293.0,-8.526,0.329,6.544,0.174,-0.457,-0.072
297.0,-8.579,0.358,6.126,0.148,-0.513,-0.096
301.0,-8.579,0.358,6.126,0.148,-0.513,-0.096
305.0,-8.579,0.358,6.126,0.148,-0.513,-0.096
308.0,-8.473,0.224,6.071,0.133,-0.52,-0.06
312.0,-8.473,0.224,6.071,0.133,-0.52,-0.06
316.0,-8.321,0.086,6.158,0.117,-0.515,0.005
320.0,-8.321,0.086,6.158,0.117,-0.515,0.005
323.0,-8.321,0.086,6.158,0.117,-0.515,0.005
327.0,-8.11,-0.04,6.313,0.087,-0.518,0.067
331.0,-8.11,-0.04,6.313,0.087,-0.518,0.067
335.0,-8.11,-0.04,6.441,0.087,-0.518,0.067
339.0,-7.845,-0.172,6.441,0.044,-0.534,0.106
342.0,-7.845,-0.172,6.441,0.044,-0.534,0.106
346.0,-7.604,-0.243,6.473,-0.017,-0.552,0.121
350.0,-7.604,-0.243,6.473,-0.017,-0.552,0.121
354.0,-7.604,-0.243,6.473,-0.017,-0.552,0.121
358.0,-7.524,-0.301,6.601,-0.088,-0.554,0.126
362.0,-7.524,-0.301,6.601,-0.088,-0.554,0.126
366.0,-7.564,-0.394,6.779,-0.16,-0.55,0.134
370.0,-7.564,-0.394,6.779,-0.16,-0.55,0.134
374.0,-7.564,-0.394,6.779,-0.16,-0.55,0.134
378.0,-7.524,-0.495,6.857,-0.222,-0.555,0.144
381.0,-7.524,-0.495,6.857,-0.222,-0.555,0.144
385.0,-7.382,-0.578,6.822,-0.267,-0.565,0.152
389.0,-7.382,-0.578,6.822,-0.267,-0.565,0.152
393.0,-7.382,-0.578,6.822,-0.267,-0.565,0.152
397.0,-7.335,-0.692,6.695,-0.297,-0.562,0.167
401.0,-7.335,-0.692,6.695,-0.297,-0.562,0.167
405.0,-7.463,-0.903,6.629,-0.324,-0.533,0.201
409.0,-7.463,-0.903,6.629,-0.324,-0.533,0.201
413.0,-7.463,-0.903,6.629,-0.324,-0.533,0.201
417.0,-7.6,-1.116,6.72,-0.344,-0.492,0.246
420.0,-7.6,-1.116,6.72,-0.344,-0.492,0.246
424.0,-7.588,-1.432,6.904,-0.344,-0.477,0.279
428.0,-7.588,-1.432,6.904,-0.334,-0.477,0.279
432.0,-7.588,-1.432,6.904,-0.334,-0.477,0.279
436.0,-7.381,-1.739,6.982,-0.286,-0.507,0.271
440.0,-7.381,-1.739,6.982,-0.286,-0.507,0.271
444.0,-7.123,-1.947,6.991,-0.286,-0.507,0.223
448.0,-7.123,-1.947,6.991,-0.209,-0.556,0.223
452.0,-7.123,-1.947,6.991,-0.209,-0.556,0.223
456.0,-6.934,-2.064,7.035,-0.116,-0.588,0.159
460.0,-6.934,-2.064,7.035,-0.116,-0.588,0.159
463.0,-6.923,-2.105,7.166,-0.116,-0.588,0.159
467.0,-6.923,-2.105,7.166,-0.019,-0.603,0.101
471.0,-6.923,-2.105,7.166,-0.019,-0.603,0.101
475.0,-6.995,-2.084,7.299,0.077,-0.617,0.055
479.0,-6.995,-2.084,7.299,0.077,-0.617,0.055
483.0,-6.995,-2.084,7.483,0.077,-0.617,0.055
487.0,-7.136,-1.976,7.483,0.164,-0.646,0.017
490.0,-7.136,-1.976,7.483,0.164,-0.646,0.017
494.0,-7.289,-1.839,7.69,0.231,-0.69,-0.011
498.0,-7.289,-1.839,7.69,0.231,-0.69,-0.011
502.0,-7.289,-1.839,7.69,0.231,-0.69,-0.011
506.0,-7.335,-1.73,7.795,0.269,-0.746,-0.04
510.0,-7.335,-1.73,7.795,0.269,-0.746,-0.04
514.0,-7.247,-1.624,7.867,0.273,-0.805,-0.083
518.0,-7.247,-1.624,7.867,0.273,-0.805,-0.083
522.0,-7.247,-1.624,7.867,0.273,-0.805,-0.083
526.0,-7.228,-1.658,8.125,0.246,-0.857,-0.141
529.0,-7.228,-1.658,8.125,0.246,-0.857,-0.141
533.0,-7.315,-1.653,8.576,0.202,-0.92,-0.216
537.0,-7.315,-1.653,8.576,0.202,-0.92,-0.216
541.0,-7.315,-1.653,8.576,0.202,-0.92,-0.216
545.0,-7.414,-1.49,9.159,0.154,-1.002,-0.304
549.0,-7.414,-1.49,9.159,0.154,-1.002,-0.304
553.0,-7.498,-1.178,9.789,0.098,-1.105,-0.384
557.0,-7.498,-1.178,9.789,0.098,-1.105,-0.384
561.0,-7.498,-1.178,9.789,0.098,-1.105,-0.384
565.0,-7.527,-0.791,10.408,0.027,-1.224,-0.434
569.0,-7.527,-0.791,10.408,0.027,-1.224,-0.434
573.0,-7.509,-0.519,10.92,-0.069,-1.356,-0.451
577.0,-7.509,-0.519,10.92,-0.069,-1.356,-0.451
581.0,-7.509,-0.519,10.92,-0.069,-1.356,-0.451
585.0,-7.44,-0.395,11.371,-0.196,-1.496,-0.445
589.0,-7.44,-0.395,11.371,-0.196,-1.496,-0.445
593.0,-7.25,-0.407,11.737,-0.344,-1.641,-0.445
597.0,-7.25,-0.407,11.737,-0.344,-1.641,-0.445
601.0,-7.25,-0.407,11.737,-0.344,-1.641,-0.445
605.0,-7.05,-0.468,12.053,-0.497,-1.788,-0.465
609.0,-7.05,-0.468,12.053,-0.497,-1.788,-0.465
613.0,-6.849,-0.587,12.282,-0.646,-1.95,-0.498
617.0,-6.849,-0.587,12.282,-0.646,-1.95,-0.498
622.0,-6.606,-1.001,12.459,-0.646,-1.95,-0.543
626.0,-6.606,-1.001,12.459,-0.777,-2.122,-0.543
630.0,-6.606,-1.001,12.459,-0.777,-2.122,-0.543
634.0,-6.352,-1.72,12.544,-0.86,-2.287,-0.615
638.0,-6.352,-1.72,12.544,-0.86,-2.287,-0.615
642.0,-6.176,-2.429,12.665,-0.875,-2.42,-0.707
646.0,-6.176,-2.429,12.665,-0.875,-2.42,-0.707
650.0,-6.176,-2.429,12.665,-0.875,-2.42,-0.707
654.0,-6.236,-2.965,12.982,-0.817,-2.527,-0.782
658.0,-6.236,-2.965,12.982,-0.817,-2.527,-0.782
662.0,-6.439,-3.208,13.368,-0.693,-2.64,-0.835
666.0,-6.439,-3.208,13.368,-0.693,-2.64,-0.835
670.0,-6.439,-3.337,13.667,-0.693,-2.64,-0.835
675.0,-6.461,-3.337,13.667,-0.524,-2.788,-0.878
679.0,-6.461,-3.337,13.667,-0.524,-2.788,-0.878
683.0,-6.242,-3.355,13.758,-0.347,-2.971,-0.937
687.0,-6.242,-3.355,13.758,-0.347,-2.971,-0.937
691.0,-5.947,-3.251,13.555,-0.347,-3.158,-1.011
695.0,-5.947,-3.251,13.555,-0.201,-3.158,-1.011
699.0,-5.947,-3.251,13.555,-0.201,-3.158,-1.011
703.0,-5.646,-3.281,13.209,-0.118,-3.325,-1.087
707.0,-5.646,-3.281,13.209,-0.118,-3.325,-1.087
711.0,-5.392,-3.546,12.976,-0.093,-3.456,-1.167
715.0,-5.392,-3.546,12.976,-0.093,-3.456,-1.167
719.0,-5.392,-3.546,12.976,-0.093,-3.456,-1.167
724.0,-5.334,-3.713,12.961,-0.092,-3.566,-1.259
728.0,-5.334,-3.713,12.961,-0.092,-3.566,-1.259
732.0,-5.364,-3.824,12.928,-0.097,-3.686,-1.353
736.0,-5.364,-3.824,12.928,-0.097,-3.686,-1.353
740.0,-5.374,-4.094,12.77,-0.097,-3.686,-1.353
744.0,-5.374,-4.094,12.77,-0.108,-3.832,-1.442
748.0,-5.374,-4.094,12.77,-0.108,-3.832,-1.442
752.0,-5.275,-4.631,12.535,-0.112,-3.988,-1.541
756.0,-5.275,-4.631,12.535,-0.112,-3.988,-1.541
760.0,-4.981,-5.155,12.25,-0.079,-4.126,-1.665
764.0,-4.981,-5.155,12.25,-0.079,-4.126,-1.665
768.0,-4.981,-5.155,12.25,-0.079,-4.126,-1.665
772.0,-4.619,-5.657,11.911,0.007,-4.232,-1.806
776.0,-4.619,-5.657,11.911,0.007,-4.232,-1.806
780.0,-4.228,-6.139,11.558,0.152,-4.308,-1.944
784.0,-4.228,-6.139,11.558,0.152,-4.308,-1.944
788.0,-4.228,-6.139,11.558,0.152,-4.308,-1.944
792.0,-3.762,-6.573,11.155,0.356,-4.343,-2.064
796.0,-3.762,-6.573,11.155,0.356,-4.343,-2.064
800.0,-3.389,-6.677,10.936,0.611,-4.343,-2.157
804.0,-3.389,-6.677,10.936,0.611,-4.343,-2.157
808.0,-3.389,-6.677,10.858,0.611,-4.343,-2.157
812.0,-3.096,-6.599,10.858,0.896,-4.342,-2.226
816.0,-3.096,-6.599,10.858,0.896,-4.342,-2.226
820.0,-2.744,-6.337,10.292,1.191,-4.356,-2.287
824.0,-2.744,-6.337,10.292,1.191,-4.356,-2.287
828.0,-2.744,-5.827,9.486,1.191,-4.356,-2.287
832.0,-2.256,-5.827,9.486,1.476,-4.358,-2.333
836.0,-2.256,-5.827,9.486,1.476,-4.358,-2.333
840.0,-1.576,-5.247,8.731,1.739,-4.335,-2.357
844.0,-1.576,-5.247,8.731,1.739,-4.335,-2.357
848.0,-1.576,-5.247,8.008,1.739,-4.335,-2.357
852.0,-0.912,-4.648,8.008,1.983,-4.292,-2.375
856.0,-0.912,-4.648,8.008,1.983,-4.292,-2.375
860.0,-0.424,-4.113,7.403,2.198,-4.227,-2.395
864.0,-0.424,-4.113,7.403,2.198,-4.227,-2.395
867.0,-0.424,-4.113,7.403,2.198,-4.227,-2.395
871.0,0.045,-3.657,6.632,2.376,-4.15,-2.419
875.0,0.045,-3.657,6.632,2.376,-4.15,-2.419
879.0,0.468,-3.378,5.986,2.518,-4.047,-2.436
883.0,0.468,-3.378,5.986,2.518,-4.047,-2.436
887.0,0.468,-3.378,5.986,2.518,-4.047,-2.436
890.0,0.846,-3.309,5.428,2.619,-3.927,-2.455
894.0,0.846,-3.309,5.428,2.619,-3.927,-2.455
898.0,1.138,-3.065,4.692,2.619,-3.779,-2.495
902.0,1.138,-3.065,4.692,2.689,-3.779,-2.495
906.0,1.138,-3.065,4.692,2.689,-3.779,-2.495
910.0,1.351,-2.716,4.07,2.734,-3.597,-2.548
913.0,1.351,-2.716,4.07,2.734,-3.597,-2.548
917.0,1.351,-2.716,3.446,2.734,-3.597,-2.548
921.0,1.557,-2.319,3.446,2.762,-3.408,-2.605
925.0,1.557,-2.319,3.446,2.762,-3.408,-2.605
929.0,1.784,-1.732,2.749,2.781,-3.216,-2.652
932.0,1.784,-1.732,2.749,2.781,-3.216,-2.652
936.0,1.784,-1.732,2.749,2.781,-3.216,-2.652
940.0,2.136,-1.216,2.168,2.781,-3.015,-2.657
944.0,2.136,-1.216,2.168,2.781,-3.015,-2.657
948.0,2.6,-0.891,1.93,2.763,-2.791,-2.619
952.0,2.6,-0.891,1.93,2.763,-2.791,-2.619
955.0,2.6,-0.891,1.93,2.763,-2.791,-2.619
959.0,2.876,-0.598,1.899,2.725,-2.525,-2.578
963.0,2.876,-0.598,1.899,2.725,-2.525,-2.578
967.0,2.444,-0.331,1.801,2.725,-2.525,-2.578
971.0,2.444,-0.331,1.801,2.69,-2.312,-2.564
974.0,2.444,-0.331,1.801,2.69,-2.312,-2.564
978.0,2.802,0.119,1.896,2.674,-2.227,-2.558
982.0,2.802,0.119,1.896,2.674,-2.227,-2.558
986.0,2.802,0.119,1.896,2.674,-2.227,-2.558
989.0,2.871,0.537,1.993,2.615,-2.095,-2.552
993.0,2.871,0.537,1.993,2.615,-2.095,-2.552
997.0,2.848,0.917,2.21,2.517,-1.957,-2.526
1001.0,2.848,0.917,2.21,2.517,-1.957,-2.526
1004.0,2.848,0.917,2.21,2.517,-1.957,-2.526
1008.0,2.744,1.344,2.363,2.377,-1.812,-2.489
1012.0,2.744,1.344,2.363,2.377,-1.812,-2.489
1016.0,2.744,1.763,2.512,2.377,-1.812,-2.489
1020.0,2.565,1.763,2.512,2.233,-1.671,-2.48
1024.0,2.565,1.763,2.512,2.233,-1.671,-2.48
1027.0,2.434,2.241,2.469,2.11,-1.557,-2.512
1031.0,2.434,2.241,2.469,2.11,-1.557,-2.512
1035.0,2.434,2.241,2.469,2.11,-1.557,-2.512
1039.0,2.455,2.873,2.292,2.0,-1.464,-2.544
1043.0,2.455,2.873,2.292,2.0,-1.464,-2.544
1047.0,2.59,3.388,2.073,1.897,-1.369,-2.523
1050.0,2.59,3.388,2.073,1.897,-1.369,-2.523
1054.0,2.59,3.388,2.073,1.897,-1.369,-2.523
1058.0,2.969,3.811,1.885,1.812,-1.263,-2.456
1062.0,2.969,3.811,1.885,1.812,-1.263,-2.456
1066.0,3.313,4.536,1.89,1.812,-1.263,-2.456
1069.0,3.313,4.536,1.89,1.745,-1.144,-2.376
1073.0,3.313,4.536,1.89,1.745,-1.144,-2.376
1077.0,3.382,5.455,1.89,1.691,-1.024,-2.268
1081.0,3.382,5.455,1.89,1.691,-1.024,-2.268
1085.0,3.382,5.455,1.89,1.691,-1.024,-2.268
1089.0,3.402,6.379,1.829,1.649,-0.905,-2.122
1092.0,3.402,6.379,1.829,1.649,-0.905,-2.122
1096.0,3.506,7.237,1.701,1.609,-0.784,-1.966
1100.0,3.506,7.237,1.701,1.609,-0.784,-1.966
1104.0,3.506,7.237,1.701,1.609,-0.784,-1.966
1108.0,3.843,8.057,1.582,1.556,-0.662,-1.819
1111.0,3.843,8.057,1.582,1.556,-0.662,-1.819
1115.0,4.175,8.827,1.608,1.556,-0.522,-1.68
1119.0,4.175,8.827,1.608,1.478,-0.522,-1.68
1123.0,4.175,8.827,1.608,1.478,-0.522,-1.68
1127.0,4.217,9.601,1.814,1.382,-0.368,-1.544
1131.0,4.217,9.601,1.814,1.382,-0.368,-1.544
1134.0,4.217,10.405,2.167,1.382,-0.368,-1.544
1138.0,3.972,10.405,2.167,1.283,-0.233,-1.386
1142.0,3.972,10.405,2.167,1.283,-0.233,-1.386
1146.0,3.641,11.094,2.394,1.185,-0.134,-1.19
1150.0,3.641,11.094,2.394,1.185,-0.134,-1.19
1154.0,3.641,11.094,2.578,1.185,-0.134,-1.19
1158.0,3.389,11.611,2.578,1.077,-0.056,-0.964
1162.0,3.389,11.611,2.578,1.077,-0.056,-0.964
1166.0,3.313,11.907,2.719,0.946,0.01,-0.723
1169.0,3.313,11.907,2.719,0.946,0.01,-0.723
1173.0,3.313,11.907,2.719,0.946,0.01,-0.723
1177.0,3.552,11.939,2.779,0.784,0.078,-0.483
1181.0,3.552,11.939,2.779,0.784,0.078,-0.483
1185.0,3.756,11.907,2.87,0.592,0.172,-0.26
1189.0,3.756,11.907,2.87,0.592,0.172,-0.26
1192.0,3.756,11.907,2.87,0.592,0.172,-0.26
1196.0,3.666,11.916,3.158,0.389,0.284,-0.05
1200.0,3.666,11.916,3.158,0.389,0.284,-0.05
1204.0,3.371,11.939,3.567,0.389,0.284,0.167
1208.0,3.371,11.939,3.567,0.21,0.388,0.167
1211.0,3.371,11.939,3.567,0.21,0.388,0.167
1215.0,3.098,11.793,3.946,0.083,0.469,0.415
1219.0,3.098,11.793,3.946,0.083,0.469,0.415
1222.0,3.098,11.793,3.946,0.083,0.469,0.415
1226.0,3.011,11.486,4.272,0.016,0.537,0.685
1230.0,3.011,11.486,4.272,0.016,0.537,0.685
1234.0,3.114,11.086,4.72,0.016,0.609,0.955
1237.0,3.114,11.086,4.72,0.012,0.609,0.955
1241.0,3.114,11.086,4.72,0.012,0.609,0.955
1245.0,3.12,10.915,5.142,0.078,0.689,1.192
1249.0,3.12,10.915,5.142,0.078,0.689,1.192
1252.0,3.12,10.915,5.142,0.078,0.689,1.192
1256.0,2.961,10.928,5.517,0.211,0.768,1.413
1260.0,2.961,10.928,5.517,0.211,0.768,1.413
1264.0,2.781,11.021,5.928,0.398,0.84,1.627
1267.0,2.781,11.021,5.928,0.398,0.84,1.627
1271.0,2.781,11.021,5.928,0.398,0.84,1.627
1275.0,2.731,11.112,6.31,0.619,0.9,1.824
1278.0,2.731,11.112,6.31,0.619,0.9,1.824
1282.0,2.731,11.112,6.884,0.619,0.9,1.824
1286.0,2.763,11.284,6.884,0.848,0.956,1.977
1290.0,2.763,11.284,6.884,0.848,0.956,1.977
1293.0,2.871,11.48,7.324,1.064,0.995,2.093
1297.0,2.871,11.48,7.324,1.064,0.995,2.093
1301.0,2.871,11.48,7.324,1.064,0.995,2.093
1305.0,2.937,11.751,7.646,1.246,1.023,2.176
1308.0,2.937,11.751,7.646,1.246,1.023,2.176
1312.0,2.937,11.947,7.882,1.246,1.023,2.176
1316.0,2.945,11.947,7.882,1.403,1.032,2.231
1320.0,2.945,11.947,7.882,1.403,1.032,2.231
1323.0,3.081,12.255,7.851,1.549,1.013,2.283
1327.0,3.081,12.255,7.851,1.549,1.013,2.283
1331.0,3.081,12.255,7.851,1.549,1.013,2.283
1334.0,3.47,12.584,7.598,1.662,0.996,2.368
1338.0,3.47,12.584,7.598,1.662,0.996,2.368
1342.0,3.865,12.857,7.321,1.662,0.996,2.368
1346.0,3.865,12.857,7.321,1.746,0.995,2.479
1349.0,3.865,12.857,7.321,1.746,0.995,2.479
1353.0,4.18,13.166,6.951,1.808,1.001,2.61
1357.0,4.18,13.166,6.951,1.808,1.001,2.61
1361.0,4.18,13.166,6.951,1.808,1.001,2.61
1364.0,4.445,13.429,6.574,1.843,1.015,2.774
1368.0,4.445,13.429,6.574,1.843,1.015,2.774
1372.0,4.863,13.394,6.166,1.843,1.031,2.975
1375.0,4.863,13.394,6.166,1.845,1.031,2.975
1379.0,4.863,13.394,6.166,1.845,1.031,2.975
1383.0,5.258,13.14,5.814,1.815,1.058,3.171
1387.0,5.258,13.14,5.814,1.815,1.058,3.171
1390.0,5.258,13.14,5.814,1.815,1.058,3.171
1394.0,5.551,13.019,5.466,1.741,1.094,3.356
1398.0,5.551,13.019,5.466,1.741,1.094,3.356
1402.0,5.712,13.03,4.956,1.622,1.151,3.56
1405.0,5.712,13.03,4.956,1.622,1.151,3.56
1409.0,5.712,13.03,4.956,1.622,1.151,3.56
1413.0,5.716,12.936,4.415,1.458,1.238,3.787
1417.0,5.716,12.936,4.415,1.458,1.238,3.787
1420.0,5.716,12.936,4.415,1.458,1.238,3.787
1424.0,5.523,12.654,3.973,1.24,1.336,4.018
1428.0,5.523,12.654,3.973,1.24,1.336,4.018
1431.0,5.139,12.134,3.576,0.957,1.424,4.262
1435.0,5.139,12.134,3.576,0.957,1.424,4.262
1439.0,5.139,12.134,3.576,0.957,1.424,4.262
1443.0,4.552,11.281,3.506,0.631,1.481,4.54
1446.0,4.552,11.281,3.506,0.631,1.481,4.54
1450.0,4.552,10.059,3.553,0.631,1.481,4.54
1454.0,3.972,10.059,3.553,0.3,1.486,4.847
1458.0,3.972,10.059,3.553,0.3,1.486,4.847
1461.0,3.392,8.624,3.485,0.002,1.457,5.007
1465.0,3.392,8.624,3.485,0.002,1.457,5.007
1469.0,3.392,8.624,3.485,0.002,1.457,5.007
1472.0,2.779,7.284,3.294,-0.242,1.417,5.013
1476.0,2.779,7.284,3.294,-0.242,1.417,5.013
1480.0,2.779,6.089,3.032,-0.242,1.417,5.013
1483.0,2.029,6.089,3.032,-0.431,1.37,5.013
1487.0,2.029,6.089,3.032,-0.431,1.37,5.013
1491.0,1.303,5.125,2.401,-0.59,1.312,5.013
1495.0,1.303,5.125,2.401,-0.59,1.312,5.013
1498.0,1.303,5.125,2.401,-0.59,1.312,5.013
1502.0,0.839,4.364,1.612,-0.728,1.292,5.013
1506.0,0.839,4.364,1.612,-0.728,1.292,5.013
1510.0,0.447,3.598,1.195,-0.728,1.292,5.013
1513.0,0.447,3.598,1.195,-0.859,1.329,5.013
1517.0,0.447,3.598,1.195,-0.859,1.329,5.013
1521.0,0.24,2.905,1.149,-1.018,1.383,5.013
1525.0,0.24,2.905,1.149,-1.018,1.383,5.013
1528.0,0.24,2.905,1.149,-1.018,1.383,5.013
1532.0,0.065,2.367,0.873,-1.243,1.451,5.013
1536.0,0.065,2.367,0.873,-1.243,1.451,5.013
1539.0,-0.19,2.096,0.278,-1.243,1.451,5.013
1543.0,-0.19,2.096,0.278,-1.564,1.564,5.013
1547.0,-0.19,2.096,0.278,-1.564,1.564,5.013
1551.0,-0.594,1.848,-0.091,-1.967,1.741,5.013
1555.0,-0.594,1.848,-0.091,-1.967,1.741,5.013
1559.0,-0.594,1.459,-0.12,-1.967,1.741,5.013
1563.0,-1.299,1.459,-0.12,-2.429,1.927,5.013
1567.0,-1.299,1.459,-0.12,-2.429,1.927,5.013
1570.0,-2.295,0.737,-0.321,-2.928,2.081,5.013
1574.0,-2.295,0.737,-0.321,-2.928,2.081,5.013
1578.0,-2.295,0.737,-0.529,-2.928,2.081,5.013
1582.0,-3.692,-0.122,-0.529,-3.424,2.205,5.013
1586.0,-3.692,-0.122,-0.529,-3.424,2.205,5.013
1590.0,-5.385,-0.914,-0.485,-3.858,2.282,5.013
1594.0,-5.385,-0.914,-0.485,-3.858,2.282,5.013
1598.0,-5.385,-0.914,-0.307,-3.858,2.282,5.013
1602.0,-7.272,-1.901,-0.307,-4.184,2.278,5.013
1606.0,-7.272,-1.901,-0.307,-4.184,2.278,5.013
1610.0,-9.203,-3.754,-0.076,-4.361,2.151,5.013
1614.0,-9.203,-3.754,-0.076,-4.361,2.151,5.013
1618.0,-10.7,-6.765,0.506,-4.361,2.151,5.013
1622.0,-10.7,-6.765,0.506,-4.318,1.894,5.013
1626.0,-10.7,-6.765,0.506,-4.318,1.894,5.013
1630.0,-12.253,-10.152,1.903,-4.02,1.521,5.013
1634.0,-12.253,-10.152,1.903,-4.02,1.521,5.013
1638.0,-13.262,-13.4,2.751,-4.02,0.978,5.013
1642.0,-13.262,-13.4,2.751,-3.494,0.978,5.013
1646.0,-13.262,-13.4,2.751,-3.494,0.978,5.013
1650.0,-11.993,-15.326,2.255,-2.781,0.337,4.955
1655.0,-11.993,-15.326,2.255,-2.781,0.337,4.955
1659.0,-8.281,-15.229,1.514,-1.999,-0.212,4.382
1663.0,-8.281,-15.229,1.514,-1.999,-0.212,4.382
1667.0,-8.281,-15.229,1.514,-1.999,-0.212,4.382
1671.0,-3.851,-14.495,0.726,-1.302,-0.57,3.615
1675.0,-3.851,-14.495,0.726,-1.302,-0.57,3.615
1679.0,0.395,-13.907,0.354,-0.752,-0.712,2.949
1683.0,0.395,-13.907,0.354,-0.752,-0.712,2.949
1687.0,0.395,-13.542,1.126,-0.752,-0.712,2.949
1691.0,3.724,-13.542,1.126,-0.332,-0.627,2.36
1695.0,3.724,-13.542,1.126,-0.332,-0.627,2.36
1699.0,5.58,-13.388,2.22,0.049,-0.439,1.922
1703.0,5.58,-13.388,2.22,0.049,-0.439,1.922
1707.0,5.58,-13.421,3.383,0.049,-0.439,1.922
1711.0,6.945,-13.421,3.383,0.414,-0.301,1.658
1715.0,6.945,-13.421,3.383,0.414,-0.301,1.658
1719.0,6.764,-14.113,4.059,0.731,-0.085,1.49
1722.0,6.764,-14.113,4.059,0.731,-0.085,1.49
1726.0,6.764,-14.113,4.72,0.731,-0.085,1.49
1730.0,5.84,-14.91,4.72,1.038,0.086,1.362
1734.0,5.84,-14.91,4.72,1.038,0.086,1.362
1738.0,4.722,-15.325,5.435,1.289,0.19,1.226
1742.0,4.722,-15.325,5.435,1.289,0.19,1.226
1746.0,4.722,-15.325,5.435,1.289,0.19,1.226
1749.0,4.07,-15.149,5.801,1.435,0.191,1.078
1753.0,4.07,-15.149,5.801,1.435,0.191,1.078
1757.0,4.061,-14.344,5.609,1.426,0.113,0.911
1761.0,4.061,-14.344,5.609,1.426,0.113,0.911
1765.0,4.061,-14.344,5.609,1.426,0.113,0.911
1768.0,4.747,-13.074,5.218,1.244,0.03,0.734
1772.0,4.747,-13.074,5.218,1.244,0.03,0.734
1776.0,5.563,-11.728,5.163,1.244,0.03,0.734
1780.0,5.563,-11.728,5.163,0.896,-0.004,0.588
1784.0,5.563,-11.728,5.163,0.896,-0.004,0.588
1788.0,5.983,-10.653,5.396,0.428,-0.003,0.499
1792.0,5.983,-10.653,5.396,0.428,-0.003,0.499
1796.0,5.983,-10.653,5.618,0.428,-0.003,0.499
1799.0,5.978,-10.146,5.618,-0.081,0.001,0.471
1803.0,5.978,-10.146,5.618,-0.081,0.001,0.471
1807.0,5.734,-10.387,5.768,-0.535,0.014,0.478
1811.0,5.734,-10.387,5.768,-0.535,0.014,0.478
1815.0,5.734,-10.387,5.768,-0.535,0.014,0.478
1819.0,5.325,-11.085,6.126,-0.838,0.047,0.489
1823.0,5.325,-11.085,6.126,-0.838,0.047,0.489
1827.0,4.735,-11.941,6.517,-0.922,0.078,0.491
1831.0,4.735,-11.941,6.517,-0.922,0.078,0.491
1835.0,4.735,-11.941,6.517,-0.922,0.078,0.491
1839.0,4.101,-12.733,6.66,-0.784,0.099,0.476
1842.0,4.101,-12.733,6.66,-0.784,0.099,0.476
1846.0,3.616,-13.089,6.582,-0.475,0.113,0.435
1850.0,3.616,-13.089,6.582,-0.475,0.113,0.435
1854.0,3.616,-13.089,6.582,-0.475,0.113,0.435
1858.0,3.367,-12.881,6.346,-0.081,0.119,0.372
1862.0,3.367,-12.881,6.346,-0.081,0.119,0.372
1866.0,3.296,-12.272,6.018,0.311,0.131,0.307
1870.0,3.296,-12.272,6.018,0.311,0.131,0.307
1873.0,3.296,-12.272,6.018,0.311,0.131,0.307
1877.0,3.281,-11.39,5.632,0.632,0.147,0.255
1881.0,3.281,-11.39,5.632,0.632,0.147,0.255
1885.0,3.302,-10.432,5.327,0.632,0.147,0.224
1889.0,3.302,-10.432,5.327,0.846,0.167,0.224
1893.0,3.302,-10.432,5.327,0.846,0.167,0.224
1896.0,3.197,-9.576,5.064,0.952,0.197,0.219
1900.0,3.197,-9.576,5.064,0.952,0.197,0.219
1904.0,3.197,-9.576,5.064,0.952,0.197,0.219
1908.0,2.911,-8.886,4.91,0.971,0.22,0.235
1911.0,2.911,-8.886,4.91,0.971,0.22,0.235
1915.0,2.496,-8.355,4.813,0.928,0.227,0.253
1919.0,2.496,-8.355,4.813,0.928,0.227,0.253
1923.0,2.496,-8.355,4.813,0.928,0.227,0.253
1926.0,2.131,-7.938,4.662,0.844,0.225,0.271
1930.0,2.131,-7.938,4.662,0.844,0.225,0.271
1934.0,2.131,-7.938,4.537,0.844,0.225,0.271
1937.0,1.825,-7.61,4.537,0.734,0.226,0.28
1941.0,1.825,-7.61,4.537,0.734,0.226,0.28
1945.0,1.55,-7.347,4.4,0.609,0.222,0.278
1949.0,1.55,-7.347,4.4,0.609,0.222,0.278
1952.0,1.55,-7.347,4.4,0.609,0.222,0.278
1956.0,1.167,-7.071,4.159,0.475,0.217,0.256
1960.0,1.167,-7.071,4.159,0.475,0.217,0.256
1964.0,0.722,-6.818,3.76,0.475,0.217,0.256
1967.0,0.722,-6.818,3.76,0.348,0.224,0.213
1971.0,0.722,-6.818,3.76,0.348,0.224,0.213
1975.0,0.347,-6.564,3.193,0.241,0.253,0.165
1979.0,0.347,-6.564,3.193,0.241,0.253,0.165
1982.0,0.347,-6.564,3.193,0.241,0.253,0.165
1986.0,0.133,-6.312,2.746,0.169,0.319,0.118
1990.0,0.133,-6.312,2.746,0.169,0.319,0.118
1993.0,0.053,-6.06,2.545,0.169,0.319,0.085
1997.0,0.053,-6.06,2.545,0.146,0.423,0.085
2001.0,0.053,-6.06,2.545,0.146,0.423,0.085
2005.0,0.072,-5.877,2.516,0.174,0.55,0.099
2008.0,0.072,-5.877,2.516,0.174,0.55,0.099
2012.0,0.072,-5.877,2.516,0.174,0.55,0.099
2016.0,0.096,-5.833,2.515,0.261,0.68,0.157
2020.0,0.096,-5.833,2.515,0.261,0.68,0.157
2023.0,-0.047,-5.827,2.502,0.261,0.81,0.237
2027.0,-0.047,-5.827,2.502,0.411,0.81,0.237
2031.0,-0.047,-5.827,2.502,0.411,0.81,0.237
2035.0,-0.327,-5.733,2.499,0.616,0.945,0.329
2039.0,-0.327,-5.733,2.499,0.616,0.945,0.329
2042.0,-0.327,-5.474,2.569,0.616,0.945,0.329
2046.0,-0.665,-5.474,2.569,0.853,1.085,0.438
2050.0,-0.665,-5.474,2.569,0.853,1.085,0.438
2054.0,-0.885,-5.054,2.777,1.097,1.219,0.574
2058.0,-0.885,-5.054,2.777,1.097,1.219,0.574
2062.0,-0.885,-5.054,2.777,1.097,1.219,0.574
2065.0,-0.752,-4.671,2.746,1.317,1.344,0.742
2069.0,-0.752,-4.671,2.746,1.317,1.344,0.742
2073.0,-0.599,-4.437,2.53,1.491,1.462,0.929
2077.0,-0.599,-4.437,2.53,1.491,1.462,0.929
2081.0,-0.599,-4.437,2.53,1.491,1.462,0.929
2084.0,-0.545,-4.363,2.252,1.624,1.568,1.088
2088.0,-0.545,-4.363,2.252,1.624,1.568,1.088
2092.0,-0.693,-4.213,1.993,1.624,1.568,1.189
2096.0,-0.693,-4.213,1.993,1.722,1.687,1.189
2100.0,-0.693,-4.213,1.993,1.722,1.687,1.189
2104.0,-1.058,-4.003,1.676,1.781,1.834,1.267
2107.0,-1.058,-4.003,1.676,1.781,1.834,1.267
2111.0,-1.058,-4.003,1.676,1.781,1.834,1.267
2115.0,-1.36,-3.88,1.448,1.815,2.027,1.343
2119.0,-1.36,-3.88,1.448,1.815,2.027,1.343
2123.0,-1.603,-3.945,1.792,1.856,2.269,1.426
2126.0,-1.603,-3.945,1.792,1.856,2.269,1.426
2130.0,-1.603,-3.945,1.792,1.856,2.269,1.426
2134.0,-2.143,-3.905,2.858,1.943,2.477,1.508
2138.0,-2.143,-3.905,2.858,1.943,2.477,1.508
2142.0,-2.856,-3.525,3.812,1.943,2.536,1.586
2146.0,-2.856,-3.525,3.812,2.058,2.536,1.586
2149.0,-2.856,-3.525,3.812,2.058,2.536,1.586
2153.0,-3.444,-3.247,4.075,2.157,2.464,1.693
2157.0,-3.444,-3.247,4.075,2.157,2.464,1.693
2161.0,-3.444,-3.252,3.624,2.157,2.464,1.693
2165.0,-3.854,-3.252,3.624,2.219,2.372,1.819
2168.0,-3.854,-3.252,3.624,2.219,2.372,1.819
2172.0,-4.164,-3.422,2.764,2.242,2.352,1.919
2176.0,-4.164,-3.422,2.764,2.242,2.352,1.919
2180.0,-4.164,-3.422,2.764,2.242,2.352,1.919
2184.0,-4.504,-3.613,1.897,2.233,2.444,1.97
2188.0,-4.504,-3.613,1.897,2.233,2.444,1.97
2191.0,-4.909,-3.741,1.143,2.193,2.636,1.972
2195.0,-4.909,-3.741,1.143,2.193,2.636,1.972
2199.0,-4.909,-3.741,1.143,2.193,2.636,1.972
2203.0,-5.3,-3.648,1.233,2.136,2.887,1.938
2207.0,-5.3,-3.648,1.233,2.136,2.887,1.938
2210.0,-5.389,-3.58,2.114,2.136,2.887,1.938
2214.0,-5.389,-3.58,2.114,2.083,3.106,1.915
2218.0,-5.389,-3.58,2.114,2.083,3.106,1.915
2222.0,-5.238,-3.791,2.736,2.045,3.236,1.934
2226.0,-5.238,-3.791,2.736,2.045,3.236,1.934
2230.0,-5.238,-3.791,2.736,2.045,3.236,1.934
2233.0,-5.259,-4.114,2.905,2.034,3.319,1.961
2237.0,-5.259,-4.114,2.905,2.034,3.319,1.961
2241.0,-5.655,-4.432,2.761,2.058,3.404,1.962
2245.0,-5.655,-4.432,2.761,2.058,3.404,1.962
2249.0,-5.655,-4.432,2.761,2.058,3.404,1.962
2252.0,-6.375,-4.744,2.314,2.118,3.508,1.926
2256.0,-6.375,-4.744,2.314,2.118,3.508,1.926
2260.0,-7.414,-4.827,2.235,2.118,3.635,1.856
2264.0,-7.414,-4.827,2.235,2.213,3.635,1.856
2268.0,-7.414,-4.827,2.235,2.213,3.635,1.856
2272.0,-8.584,-4.574,2.81,2.337,3.728,1.783
2275.0,-8.584,-4.574,2.81,2.337,3.728,1.783
2279.0,-8.584,-4.326,2.972,2.337,3.728,1.783
2283.0,-9.394,-4.326,2.972,2.461,3.729,1.741
2287.0,-9.394,-4.326,2.972,2.461,3.729,1.741
2291.0,-9.951,-4.108,2.611,2.564,3.708,1.721
2294.0,-9.951,-4.108,2.611,2.564,3.708,1.721
2298.0,-9.951,-4.108,2.611,2.564,3.708,1.721
2302.0,-10.482,-4.012,2.13,2.649,3.745,1.696
2306.0,-10.482,-4.012,2.13,2.649,3.745,1.696
2310.0,-11.131,-4.12,1.866,2.727,3.866,1.65
2314.0,-11.131,-4.12,1.866,2.727,3.866,1.65
2318.0,-11.131,-4.12,1.866,2.727,3.866,1.65
2322.0,-11.8,-4.32,2.142,2.83,4.032,1.573
2326.0,-11.8,-4.32,2.142,2.83,4.032,1.573
2329.0,-12.257,-4.62,3.357,2.99,4.179,1.463
2333.0,-12.257,-4.62,3.357,2.99,4.179,1.463
2337.0,-12.257,-4.62,3.357,2.99,4.179,1.463
2341.0,-12.705,-4.937,4.999,3.237,4.212,1.329
2345.0,-12.705,-4.937,4.999,3.237,4.212,1.329
2349.0,-13.323,-5.104,5.719,3.237,4.09,1.179
2353.0,-13.323,-5.104,5.719,3.567,4.09,1.179
2357.0,-13.323,-5.104,5.719,3.567,4.09,1.179
2361.0,-13.72,-5.11,5.468,3.931,3.91,0.995
2365.0,-13.72,-5.11,5.468,3.931,3.91,0.995
2369.0,-13.709,-5.001,4.821,3.931,3.91,0.758
2372.0,-13.709,-5.001,4.821,4.277,3.78,0.758
2376.0,-13.709,-5.001,4.821,4.277,3.78,0.758
2380.0,-13.407,-4.826,4.602,4.581,3.733,0.468
2384.0,-13.407,-4.826,4.602,4.581,3.733,0.468
2388.0,-12.996,-4.778,4.912,4.581,3.733,0.468
2392.0,-12.996,-4.778,4.912,4.854,3.733,0.142
2396.0,-12.996,-4.778,4.912,4.854,3.733,0.142
2400.0,-12.944,-4.885,5.115,4.99,3.735,-0.2
2404.0,-12.944,-4.885,5.115,4.99,3.735,-0.2
2408.0,-13.442,-5.008,4.962,4.99,3.735,-0.2
2412.0,-13.442,-5.008,4.962,4.995,3.72,-0.552
2416.0,-13.442,-5.008,4.962,4.995,3.72,-0.552
2420.0,-14.118,-5.109,4.706,4.995,3.667,-0.911
2424.0,-14.118,-5.109,4.706,4.995,3.667,-0.911
2428.0,-14.719,-4.978,4.004,4.995,3.667,-1.266
2432.0,-14.719,-4.978,4.004,4.995,3.566,-1.266
2436.0,-14.719,-4.978,4.004,4.995,3.566,-1.266
2440.0,-15.315,-4.637,3.351,4.995,3.451,-1.614
2444.0,-15.315,-4.637,3.351,4.995,3.451,-1.614
2448.0,-16.157,-4.093,3.019,4.995,3.317,-1.953
2452.0,-16.157,-4.093,3.019,4.995,3.317,-1.953
2456.0,-16.157,-4.093,3.019,4.995,3.317,-1.953
2460.0,-17.389,-3.272,2.544,4.995,3.12,-2.258
2464.0,-17.389,-3.272,2.544,4.995,3.12,-2.258
2468.0,-18.976,-2.258,2.411,4.995,2.859,-2.503
2472.0,-18.976,-2.258,2.411,4.995,2.859,-2.503
2476.0,-18.976,-2.258,2.411,4.995,2.859,-2.503
2480.0,-19.6,-1.232,2.209,4.995,2.509,-2.685
2484.0,-19.6,-1.232,2.209,4.995,2.509,-2.685
2488.0,-19.6,-0.312,2.019,4.995,2.114,-2.815
2492.0,-19.6,-0.312,2.019,4.995,2.114,-2.815
2496.0,-19.6,-0.312,2.019,4.995,2.114,-2.815
2500.0,-19.599,0.465,1.759,4.995,1.758,-2.913
2504.0,-19.599,0.465,1.759,4.995,1.758,-2.913
2507.0,-18.896,0.977,1.575,4.995,1.485,-3.002
2511.0,-18.896,0.977,1.575,4.995,1.485,-3.002
2515.0,-18.896,0.977,1.575,4.995,1.485,-3.002
2519.0,-17.673,1.296,1.528,4.995,1.292,-3.109
2523.0,-17.673,1.296,1.528,4.995,1.292,-3.109
2527.0,-16.799,1.489,1.556,4.995,1.145,-3.24
2531.0,-16.799,1.489,1.556,4.995,1.145,-3.24
2535.0,-16.799,1.489,1.556,4.995,1.145,-3.24
2539.0,-16.28,1.518,1.671,4.995,1.017,-3.375
2543.0,-16.28,1.518,1.671,4.995,1.017,-3.375
2546.0,-15.977,1.457,1.972,4.993,0.903,-3.499
2550.0,-15.977,1.457,1.972,4.993,0.903,-3.499
2554.0,-15.977,1.457,1.972,4.993,0.903,-3.499
2558.0,-15.974,1.354,2.402,4.847,0.798,-3.601
2562.0,-15.974,1.354,2.402,4.847,0.798,-3.601
2566.0,-16.295,1.306,2.776,4.847,0.697,-3.659
2570.0,-16.295,1.306,2.776,4.515,0.697,-3.659
2574.0,-16.295,1.306,2.776,4.515,0.697,-3.659
2578.0,-16.75,1.259,2.931,4.227,0.592,-3.645
2582.0,-16.75,1.259,2.931,4.227,0.592,-3.645
2586.0,-17.041,1.12,2.967,4.227,0.592,-3.563
2589.0,-17.041,1.12,2.967,3.984,0.489,-3.563
2593.0,-17.041,1.12,2.967,3.984,0.489,-3.563
2597.0,-17.016,0.967,2.955,3.759,0.396,-3.435
2601.0,-17.016,0.967,2.955,3.759,0.396,-3.435
2605.0,-16.495,0.868,2.964,3.759,0.396,-3.435
2609.0,-16.495,0.868,2.964,3.533,0.316,-3.272
2613.0,-16.495,0.868,2.964,3.533,0.316,-3.272
2617.0,-15.735,0.778,2.994,3.295,0.25,-3.082
2621.0,-15.735,0.778,2.994,3.295,0.25,-3.082
2625.0,-15.735,0.778,3.004,3.295,0.25,-3.082
2629.0,-14.907,0.664,3.004,3.041,0.192,-2.871
2632.0,-14.907,0.664,3.004,3.041,0.192,-2.871
2636.0,-14.102,0.551,2.981,2.768,0.138,-2.646
2640.0,-14.102,0.551,2.981,2.768,0.138,-2.646
2644.0,-14.102,0.551,2.981,2.768,0.138,-2.646
2648.0,-13.339,0.471,2.983,2.482,0.077,-2.42
2652.0,-13.339,0.471,2.983,2.482,0.077,-2.42
2656.0,-12.565,0.467,2.901,2.193,-0.005,-2.208
2660.0,-12.565,0.467,2.901,2.193,-0.005,-2.208
2664.0,-12.565,0.467,2.901,2.193,-0.005,-2.208
2668.0,-11.77,0.517,2.819,1.912,-0.11,-2.024
2672.0,-11.77,0.517,2.819,1.912,-0.11,-2.024
2676.0,-10.945,0.583,2.703,1.651,-0.235,-1.874
2680.0,-10.945,0.583,2.703,1.651,-0.235,-1.874
2684.0,-10.945,0.583,2.597,1.651,-0.235,-1.874
2688.0,-10.193,0.613,2.597,1.421,-0.373,-1.751
2692.0,-10.193,0.613,2.597,1.421,-0.373,-1.751
2696.0,-9.686,0.61,2.419,1.226,-0.51,-1.636
2700.0,-9.686,0.61,2.419,1.226,-0.51,-1.636
2704.0,-9.686,0.526,2.063,1.226,-0.51,-1.636
2708.0,-9.521,0.526,2.063,1.06,-0.622,-1.502
2711.0,-9.521,0.526,2.063,1.06,-0.622,-1.502
2715.0,-9.72,0.397,1.612,0.914,-0.685,-1.329
2719.0,-9.72,0.397,1.612,0.914,-0.685,-1.329
2723.0,-9.72,0.397,1.214,0.914,-0.685,-1.329
2727.0,-10.138,0.16,1.214,0.788,-0.686,-1.12
2731.0,-10.138,0.16,1.214,0.788,-0.686,-1.12
2735.0,-10.537,-0.156,0.983,0.681,-0.637,-0.887
2739.0,-10.537,-0.156,0.983,0.681,-0.637,-0.887
2743.0,-10.537,-0.498,0.971,0.681,-0.637,-0.887
2747.0,-10.819,-0.498,0.971,0.596,-0.566,-0.655
2751.0,-10.819,-0.498,0.971,0.596,-0.566,-0.655
2755.0,-11.043,-0.796,1.096,0.53,-0.499,-0.438
2760.0,-11.043,-0.796,1.096,0.53,-0.499,-0.438
2764.0,-11.206,-1.01,1.271,0.478,-0.447,-0.249
2768.0,-11.206,-1.01,1.271,0.478,-0.447,-0.249
2772.0,-11.206,-1.01,1.271,0.478,-0.447,-0.249
2776.0,-11.259,-1.122,1.439,0.438,-0.417,-0.093
2780.0,-11.259,-1.122,1.439,0.438,-0.417,-0.093
2784.0,-11.186,-1.142,1.58,0.404,-0.405,0.026
2788.0,-11.186,-1.142,1.58,0.404,-0.405,0.026
2792.0,-11.186,-1.142,1.58,0.404,-0.405,0.026
2796.0,-10.925,-1.153,1.674,0.376,-0.409,0.11
2800.0,-10.925,-1.153,1.674,0.376,-0.409,0.11
2804.0,-10.533,-1.12,1.784,0.351,-0.425,0.158
2808.0,-10.533,-1.12,1.784,0.351,-0.425,0.158
2812.0,-10.533,-1.12,1.821,0.351,-0.425,0.158
2816.0,-10.123,-1.047,1.821,0.331,-0.448,0.176
2820.0,-10.123,-1.047,1.821,0.331,-0.448,0.176
2824.0,-9.736,-0.928,1.817,0.316,-0.473,0.172
2828.0,-9.736,-0.928,1.817,0.316,-0.473,0.172
2832.0,-9.736,-0.928,1.772,0.316,-0.473,0.172
2836.0,-9.4,-0.779,1.772,0.303,-0.495,0.157
2840.0,-9.4,-0.779,1.772,0.303,-0.495,0.157
2843.0,-9.102,-0.658,1.669,0.289,-0.515,0.141
2847.0,-9.102,-0.658,1.669,0.289,-0.515,0.141
2851.0,-9.102,-0.658,1.669,0.289,-0.515,0.141
2855.0,-8.822,-0.547,1.588,0.274,-0.532,0.128
2859.0,-8.822,-0.547,1.588,0.274,-0.532,0.128
2863.0,-8.559,-0.475,1.506,0.258,-0.544,0.123
2867.0,-8.559,-0.475,1.506,0.258,-0.544,0.123
2871.0,-8.559,-0.475,1.506,0.258,-0.544,0.123
2875.0,-8.361,-0.41,1.441,0.241,-0.552,0.129
2879.0,-8.361,-0.41,1.441,0.241,-0.552,0.129
2883.0,-8.226,-0.397,1.351,0.222,-0.557,0.148
2886.0,-8.226,-0.397,1.351,0.222,-0.557,0.148
2890.0,-8.226,-0.397,1.351,0.222,-0.557,0.148
2894.0,-8.135,-0.405,1.219,0.196,-0.559,0.18
2898.0,-8.135,-0.405,1.219,0.196,-0.559,0.18
2902.0,-8.066,-0.449,1.116,0.161,-0.558,0.218
2906.0,-8.066,-0.449,1.116,0.161,-0.558,0.218
2910.0,-8.066,-0.449,1.116,0.161,-0.558,0.218
2914.0,-7.988,-0.485,1.025,0.111,-0.555,0.261
2918.0,-7.988,-0.485,1.025,0.111,-0.555,0.261
2922.0,-7.865,-0.485,0.961,0.047,-0.552,0.308
2925.0,-7.865,-0.485,0.961,0.047,-0.552,0.308
2929.0,-7.865,-0.485,0.961,0.047,-0.552,0.308
2933.0,-7.759,-0.476,0.908,-0.036,-0.547,0.362
2937.0,-7.759,-0.476,0.908,-0.036,-0.547,0.362
2941.0,-7.613,-0.468,0.846,-0.135,-0.535,0.424
2945.0,-7.613,-0.468,0.846,-0.135,-0.535,0.424
2949.0,-7.613,-0.468,0.846,-0.135,-0.535,0.424
2953.0,-7.466,-0.454,0.812,-0.251,-0.51,0.493
2957.0,-7.466,-0.454,0.812,-0.251,-0.51,0.493
2961.0,-7.324,-0.461,0.8,-0.382,-0.473,0.568
2965.0,-7.324,-0.461,0.8,-0.382,-0.473,0.568
2969.0,-7.324,-0.461,0.8,-0.382,-0.473,0.568
2973.0,-7.243,-0.473,0.827,-0.526,-0.426,0.649
2977.0,-7.243,-0.473,0.827,-0.526,-0.426,0.649
2981.0,-7.239,-0.476,0.849,-0.678,-0.373,0.729
2985.0,-7.239,-0.476,0.849,-0.678,-0.373,0.729
2989.0,-7.239,-0.476,0.849,-0.678,-0.373,0.729
2993.0,-7.269,-0.462,0.885,-0.834,-0.319,0.81
2997.0,-7.269,-0.462,0.885,-0.834,-0.319,0.81
