deltaTime,Acc_X,Acc_Y,Acc_Z,Gyro_X,Gyro_Y,Gyro_Z
0.0,-7.433,-0.541,3.858,0.212,-0.331,0.019
3.0,-7.433,-0.541,3.858,0.212,-0.331,0.019
6.0,-7.21,-0.737,3.57,0.114,-0.463,-0.01
9.0,-7.21,-0.737,3.57,0.114,-0.463,-0.01
12.0,-7.21,-0.737,3.57,0.114,-0.463,-0.01
15.0,-6.23,-1.083,3.445,0.085,-0.577,-0.045
18.0,-6.23,-1.083,3.445,0.085,-0.577,-0.045
21.0,-6.23,-1.083,3.445,0.085,-0.577,-0.045
24.0,-6.353,-1.679,3.145,0.085,-0.493,-0.058
27.0,-6.353,-1.679,3.145,0.161,-0.493,-0.058
30.0,-6.353,-1.679,3.145,0.161,-0.493,-0.058
33.0,-6.353,-1.679,3.129,0.161,-0.493,-0.058
37.0,-6.472,-1.198,3.129,0.356,-0.497,-0.084
41.0,-6.472,-1.198,3.129,0.356,-0.497,-0.084
45.0,-7.208,-0.45,3.398,0.422,-0.481,-0.128
49.0,-7.208,-0.45,3.398,0.422,-0.481,-0.128
53.0,-7.208,-0.45,3.398,0.422,-0.481,-0.128
56.0,-7.682,-0.047,3.968,0.326,-0.508,-0.17
60.0,-7.682,-0.047,3.968,0.326,-0.508,-0.17
64.0,-7.88,-0.162,4.542,0.15,-0.592,-0.193
68.0,-7.88,-0.162,4.542,0.15,-0.592,-0.193
72.0,-7.88,-0.162,4.542,0.15,-0.592,-0.193
76.0,-7.697,-0.458,4.883,-0.003,-0.707,-0.21
79.0,-7.697,-0.458,4.883,-0.003,-0.707,-0.21
83.0,-7.254,-0.611,5.09,-0.003,-0.707,-0.21
87.0,-7.254,-0.611,5.09,-0.079,-0.817,-0.242
91.0,-7.254,-0.611,5.09,-0.079,-0.817,-0.242
95.0,-6.765,-0.617,5.154,-0.085,-0.9,-0.293
99.0,-6.765,-0.617,5.154,-0.085,-0.9,-0.293
103.0,-6.601,-0.565,5.148,-0.085,-0.9,-0.293
107.0,-6.601,-0.565,5.148,-0.015,-0.947,-0.337
111.0,-6.601,-0.565,5.148,-0.015,-0.947,-0.337
115.0,-6.33,0.12,5.021,0.085,-0.968,-0.37
119.0,-6.33,0.12,5.021,0.085,-0.968,-0.37
122.0,-6.33,0.565,5.005,0.085,-0.968,-0.37
126.0,-6.294,0.565,5.005,0.135,-0.958,-0.381
130.0,-6.294,0.565,5.005,0.135,-0.958,-0.381
134.0,-6.357,0.771,5.142,0.152,-0.935,-0.358
138.0,-6.357,0.771,5.142,0.152,-0.935,-0.358
142.0,-6.357,0.771,5.142,0.152,-0.935,-0.358
145.0,-6.601,0.903,5.54,0.15,-0.908,-0.317
149.0,-6.601,0.903,5.54,0.15,-0.908,-0.317
153.0,-7.016,1.067,6.157,0.126,-0.882,-0.27
157.0,-7.016,1.067,6.157,0.126,-0.882,-0.27
161.0,-7.016,1.067,6.157,0.126,-0.882,-0.27
164.0,-7.479,1.217,6.994,0.073,-0.863,-0.227
168.0,-7.479,1.217,6.994,0.073,-0.863,-0.227
172.0,-7.922,1.281,7.874,0.073,-0.863,-0.227
176.0,-7.922,1.281,7.874,-0.003,-0.862,-0.189
180.0,-7.922,1.281,7.874,-0.003,-0.862,-0.189
184.0,-8.432,1.071,8.768,-0.068,-0.873,-0.155
188.0,-8.432,1.071,8.768,-0.068,-0.873,-0.155
192.0,-8.432,0.868,9.684,-0.068,-0.873,-0.155
195.0,-9.196,0.868,9.684,-0.066,-0.891,-0.126
199.0,-9.196,0.868,9.684,-0.066,-0.891,-0.126
203.0,-9.961,0.721,10.587,0.017,-0.93,-0.102
207.0,-9.961,0.721,10.587,0.017,-0.93,-0.102
211.0,-9.961,0.721,11.262,0.017,-0.93,-0.102
215.0,-10.446,0.829,11.262,0.177,-0.984,-0.074
219.0,-10.446,0.829,11.262,0.177,-0.984,-0.074
223.0,-10.451,1.035,11.824,0.383,-1.02,-0.014
227.0,-10.451,1.035,11.824,0.383,-1.02,-0.014
231.0,-10.451,1.035,12.672,0.383,-1.02,-0.014
235.0,-10.155,1.195,12.672,0.587,-1.041,0.054
239.0,-10.155,1.195,12.672,0.587,-1.041,0.054
243.0,-10.409,1.232,13.334,0.772,-1.086,0.107
247.0,-10.409,1.232,13.334,0.772,-1.086,0.107
251.0,-10.409,1.232,13.485,0.772,-1.086,0.107
254.0,-10.832,1.371,13.485,0.928,-1.194,0.11
258.0,-10.832,1.371,13.485,0.928,-1.194,0.11
262.0,-11.513,2.127,13.393,0.999,-1.389,0.035
266.0,-11.513,2.127,13.393,0.999,-1.389,0.035
270.0,-11.513,2.127,13.393,0.999,-1.389,0.035
274.0,-11.713,2.64,13.435,0.93,-1.599,-0.068
278.0,-11.713,2.64,13.435,0.93,-1.599,-0.068
282.0,-11.524,2.944,13.381,0.75,-1.78,-0.149
286.0,-11.524,2.944,13.381,0.75,-1.78,-0.149
290.0,-11.524,2.944,13.381,0.75,-1.78,-0.149
294.0,-11.175,2.767,13.271,0.533,-1.932,-0.206
298.0,-11.175,2.767,13.271,0.533,-1.932,-0.206
302.0,-10.953,2.347,13.28,0.361,-2.064,-0.252
306.0,-10.953,2.347,13.28,0.361,-2.064,-0.252
310.0,-10.953,1.732,13.498,0.361,-2.064,-0.252
314.0,-10.799,1.732,13.498,0.238,-2.181,-0.299
318.0,-10.799,1.732,13.498,0.238,-2.181,-0.299
322.0,-10.774,0.974,13.804,0.169,-2.269,-0.348
326.0,-10.774,0.974,13.804,0.169,-2.269,-0.348
330.0,-11.008,0.175,14.095,0.169,-2.269,-0.348
334.0,-11.008,0.175,14.095,0.16,-2.337,-0.388
338.0,-11.008,0.175,14.095,0.16,-2.337,-0.388
342.0,-11.551,-0.684,14.387,0.217,-2.398,-0.406
346.0,-11.551,-0.684,14.387,0.217,-2.398,-0.406
350.0,-12.215,-1.678,14.551,0.217,-2.493,-0.379
354.0,-12.215,-1.678,14.551,0.327,-2.493,-0.379
358.0,-12.215,-1.678,14.551,0.327,-2.493,-0.379
362.0,-12.56,-2.721,14.731,0.474,-2.631,-0.322
366.0,-12.56,-2.721,14.731,0.474,-2.631,-0.322
370.0,-12.52,-3.784,14.866,0.643,-2.789,-0.279
375.0,-12.52,-3.784,14.866,0.643,-2.789,-0.279
379.0,-12.52,-3.784,14.866,0.643,-2.789,-0.279
383.0,-12.2,-4.452,14.624,0.819,-2.944,-0.28
387.0,-12.2,-4.452,14.624,0.819,-2.944,-0.28
391.0,-11.628,-4.673,14.213,0.969,-3.084,-0.33
395.0,-11.628,-4.673,14.213,0.969,-3.084,-0.33
399.0,-11.024,-4.605,14.118,0.969,-3.084,-0.33
403.0,-11.024,-4.605,14.118,1.063,-3.211,-0.43
407.0,-11.024,-4.605,14.118,1.063,-3.211,-0.43
411.0,-10.531,-4.39,14.297,1.112,-3.351,-0.565
415.0,-10.531,-4.39,14.297,1.112,-3.351,-0.565
419.0,-10.073,-4.247,14.432,1.168,-3.51,-0.717
424.0,-10.073,-4.247,14.432,1.168,-3.51,-0.717
428.0,-10.073,-4.247,14.432,1.168,-3.51,-0.717
432.0,-9.677,-4.618,14.042,1.247,-3.703,-0.85
436.0,-9.677,-4.618,14.042,1.247,-3.703,-0.85
440.0,-9.006,-5.198,13.111,1.295,-3.897,-0.931
444.0,-9.006,-5.198,13.111,1.295,-3.897,-0.931
448.0,-9.006,-5.198,13.111,1.295,-3.897,-0.931
452.0,-7.965,-5.942,12.324,1.257,-4.01,-0.951
456.0,-7.965,-5.942,12.324,1.257,-4.01,-0.951
460.0,-7.149,-6.919,12.124,1.145,-4.02,-0.948
464.0,-7.149,-6.919,12.124,1.145,-4.02,-0.948
468.0,-7.149,-6.919,12.124,1.145,-4.02,-0.948
472.0,-6.94,-7.81,12.214,1.006,-3.997,-0.975
476.0,-6.94,-7.81,12.214,1.006,-3.997,-0.975
480.0,-6.915,-8.727,12.206,0.896,-4.002,-1.062
484.0,-6.915,-8.727,12.206,0.896,-4.002,-1.062
488.0,-6.915,-8.727,12.058,0.896,-4.002,-1.062
492.0,-6.666,-9.591,12.058,0.883,-4.029,-1.205
496.0,-6.666,-9.591,12.058,0.883,-4.029,-1.205
500.0,-6.168,-10.097,11.694,1.019,-4.052,-1.386
504.0,-6.168,-10.097,11.694,1.019,-4.052,-1.386
508.0,-5.389,-10.251,10.948,1.019,-4.052,-1.386
512.0,-5.389,-10.251,10.948,1.314,-4.049,-1.569
516.0,-5.389,-10.251,10.948,1.314,-4.049,-1.569
520.0,-4.553,-10.312,10.1,1.732,-4.005,-1.737
524.0,-4.553,-10.312,10.1,1.732,-4.005,-1.737
528.0,-3.567,-10.051,9.035,2.208,-3.925,-1.887
532.0,-3.567,-10.051,9.035,2.208,-3.925,-1.887
536.0,-3.567,-10.051,9.035,2.208,-3.925,-1.887
540.0,-2.521,-9.638,8.061,2.671,-3.808,-2.019
544.0,-2.521,-9.638,8.061,2.671,-3.808,-2.019
548.0,-1.735,-8.916,7.334,3.061,-3.675,-2.142
552.0,-1.735,-8.916,7.334,3.061,-3.675,-2.142
556.0,-1.735,-8.916,7.334,3.061,-3.675,-2.142
560.0,-1.004,-7.985,6.816,3.353,-3.548,-2.26
564.0,-1.004,-7.985,6.816,3.353,-3.548,-2.26
567.0,-0.596,-6.904,6.443,3.549,-3.431,-2.373
571.0,-0.596,-6.904,6.443,3.549,-3.431,-2.373
575.0,-0.596,-6.904,6.443,3.549,-3.431,-2.373
579.0,-0.36,-5.608,5.777,3.663,-3.354,-2.46
583.0,-0.36,-5.608,5.777,3.663,-3.354,-2.46
587.0,-0.237,-4.155,5.003,3.663,-3.284,-2.502
591.0,-0.237,-4.155,5.003,3.7,-3.284,-2.502
595.0,-0.237,-4.155,5.003,3.7,-3.284,-2.502
599.0,-0.119,-2.885,4.335,3.665,-3.21,-2.499
603.0,-0.119,-2.885,4.335,3.665,-3.21,-2.499
606.0,-0.032,-1.813,3.577,3.665,-3.21,-2.468
610.0,-0.032,-1.813,3.577,3.577,-3.143,-2.468
614.0,-0.032,-1.813,3.577,3.577,-3.143,-2.468
618.0,0.153,-1.04,2.831,3.446,-3.07,-2.419
622.0,0.153,-1.04,2.831,3.446,-3.07,-2.419
626.0,0.153,-0.351,2.138,3.446,-3.07,-2.419
630.0,0.509,-0.351,2.138,3.265,-2.91,-2.364
633.0,0.509,-0.351,2.138,3.265,-2.91,-2.364
637.0,0.545,0.231,1.688,3.095,-2.782,-2.316
641.0,0.545,0.231,1.688,3.095,-2.782,-2.316
645.0,0.545,0.231,1.688,3.095,-2.782,-2.316
649.0,1.168,0.948,1.45,2.945,-2.728,-2.249
652.0,1.168,0.948,1.45,2.945,-2.728,-2.249
656.0,1.216,1.461,1.216,2.945,-2.595,-2.172
660.0,1.216,1.461,1.216,2.782,-2.595,-2.172
663.0,1.216,1.461,1.216,2.782,-2.595,-2.172
667.0,0.863,2.163,1.031,2.65,-2.464,-2.076
671.0,0.863,2.163,1.031,2.65,-2.464,-2.076
675.0,0.863,2.163,1.031,2.65,-2.464,-2.076
678.0,0.719,3.038,1.0,2.558,-2.358,-1.942
682.0,0.719,3.038,1.0,2.558,-2.358,-1.942
686.0,0.865,3.998,0.901,2.499,-2.284,-1.762
690.0,0.865,3.998,0.901,2.499,-2.284,-1.762
693.0,0.865,3.998,0.901,2.499,-2.284,-1.762
697.0,1.262,4.922,0.571,2.454,-2.227,-1.527
701.0,1.262,4.922,0.571,2.454,-2.227,-1.527
704.0,1.262,4.922,0.571,2.454,-2.227,-1.527
708.0,1.57,6.017,0.248,2.396,-2.159,-1.235
712.0,1.57,6.017,0.248,2.396,-2.159,-1.235
716.0,1.805,7.144,-0.138,2.324,-2.081,-0.872
720.0,1.805,7.144,-0.138,2.324,-2.081,-0.872
723.0,1.805,7.144,-0.138,2.324,-2.081,-0.872
727.0,2.113,8.073,-0.683,2.236,-1.979,-0.45
731.0,2.113,8.073,-0.683,2.236,-1.979,-0.45
735.0,2.47,8.831,-1.112,2.236,-1.979,-0.009
739.0,2.47,8.831,-1.112,2.131,-1.824,-0.009
742.0,2.47,8.831,-1.112,2.131,-1.824,-0.009
746.0,2.64,9.494,-1.252,2.023,-1.617,0.395
750.0,2.64,9.494,-1.252,2.023,-1.617,0.395
754.0,2.64,9.494,-1.252,2.023,-1.617,0.395
757.0,2.65,10.108,-1.119,1.939,-1.375,0.741
761.0,2.65,10.108,-1.119,1.939,-1.375,0.741
765.0,2.603,10.753,-0.579,1.895,-1.132,1.041
769.0,2.603,10.753,-0.579,1.895,-1.132,1.041
773.0,2.603,10.753,-0.579,1.895,-1.132,1.041
777.0,2.525,11.432,0.111,1.89,-0.914,1.33
780.0,2.525,11.432,0.111,1.89,-0.914,1.33
784.0,2.488,12.059,0.727,1.89,-0.914,1.33
788.0,2.488,12.059,0.727,1.914,-0.707,1.62
791.0,2.488,12.059,0.727,1.914,-0.707,1.62
795.0,2.478,12.564,1.194,1.958,-0.49,1.892
799.0,2.478,12.564,1.194,1.958,-0.49,1.892
803.0,2.478,12.564,1.194,1.958,-0.49,1.892
806.0,2.555,13.068,1.507,2.002,-0.258,2.138
810.0,2.555,13.068,1.507,2.002,-0.258,2.138
814.0,2.809,13.469,1.677,2.002,-0.258,2.369
818.0,2.809,13.469,1.677,2.041,-0.006,2.369
821.0,2.809,13.469,1.677,2.041,-0.006,2.369
825.0,3.269,13.844,2.145,2.078,0.269,2.589
829.0,3.269,13.844,2.145,2.078,0.269,2.589
832.0,3.269,13.844,2.145,2.078,0.269,2.589
836.0,3.815,14.13,2.73,2.135,0.56,2.794
840.0,3.815,14.13,2.73,2.135,0.56,2.794
843.0,4.35,14.204,3.299,2.135,0.56,2.794
847.0,4.35,14.204,3.299,2.206,0.855,3.002
851.0,4.35,14.204,3.299,2.206,0.855,3.002
854.0,4.752,14.041,4.089,2.253,1.146,3.245
858.0,4.752,14.041,4.089,2.253,1.146,3.245
862.0,4.752,14.041,4.089,2.253,1.146,3.245
865.0,4.775,13.716,5.064,2.243,1.402,3.526
869.0,4.775,13.716,5.064,2.243,1.402,3.526
872.0,4.775,13.716,6.029,2.243,1.402,3.526
876.0,4.402,13.253,6.029,2.162,1.599,3.815
880.0,4.402,13.253,6.029,2.162,1.599,3.815
883.0,3.56,12.715,6.864,1.998,1.736,4.09
887.0,3.56,12.715,6.864,1.998,1.736,4.09
891.0,3.56,12.715,6.864,1.998,1.736,4.09
894.0,2.705,11.976,7.262,1.741,1.811,4.325
898.0,2.705,11.976,7.262,1.741,1.811,4.325
902.0,2.705,11.976,7.262,1.741,1.811,4.325
905.0,2.051,11.101,7.195,1.396,1.851,4.488
909.0,2.051,11.101,7.195,1.396,1.851,4.488
913.0,1.867,10.138,7.235,1.396,1.851,4.584
916.0,1.867,10.138,7.235,0.983,1.869,4.584
920.0,1.867,10.138,7.235,0.983,1.869,4.584
924.0,2.003,9.278,7.148,0.536,1.856,4.63
927.0,2.003,9.278,7.148,0.536,1.856,4.63
931.0,2.003,9.278,7.148,0.536,1.856,4.63
934.0,2.034,8.68,6.857,0.084,1.843,4.65
938.0,2.034,8.68,6.857,0.084,1.843,4.65
941.0,2.034,8.68,6.857,0.084,1.843,4.65
945.0,1.969,8.032,6.75,-0.358,1.839,4.702
949.0,1.969,8.032,6.75,-0.358,1.839,4.702
952.0,1.435,6.925,7.581,-0.358,1.809,4.837
956.0,1.435,6.925,7.581,-0.795,1.809,4.837
959.0,1.435,6.925,7.581,-0.795,1.809,4.837
963.0,1.072,5.53,8.533,-1.246,1.659,4.992
967.0,1.072,5.53,8.533,-1.246,1.659,4.992
970.0,1.072,5.53,8.533,-1.246,1.659,4.992
974.0,0.793,3.992,8.673,-1.676,1.435,5.013
978.0,0.793,3.992,8.673,-1.676,1.435,5.013
981.0,0.641,2.168,8.323,-1.676,1.435,5.013
985.0,0.641,2.168,8.323,-2.069,1.196,5.013
989.0,0.641,2.168,8.323,-2.069,1.196,5.013
992.0,0.709,0.595,7.56,-2.435,0.961,5.013
996.0,0.709,0.595,7.56,-2.435,0.961,5.013
1000.0,0.709,0.595,7.56,-2.435,0.961,5.013
1003.0,0.533,-0.678,6.996,-2.755,0.756,5.013
1007.0,0.533,-0.678,6.996,-2.755,0.756,5.013
1011.0,-0.274,-2.078,6.511,-2.755,0.756,5.013
1015.0,-0.274,-2.078,6.511,-3.036,0.544,5.013
1019.0,-0.274,-2.078,6.511,-3.036,0.544,5.013
1023.0,-1.402,-3.431,5.703,-3.33,0.304,5.013
1027.0,-1.402,-3.431,5.703,-3.33,0.304,5.013
1030.0,-1.402,-4.867,4.775,-3.33,0.304,5.013
1034.0,-2.733,-4.867,4.775,-3.653,0.056,5.013
1038.0,-2.733,-4.867,4.775,-3.653,0.056,5.013
1042.0,-3.861,-6.626,3.846,-4.011,-0.244,5.013
1046.0,-3.861,-6.626,3.846,-4.011,-0.244,5.013
1050.0,-3.861,-6.626,2.948,-4.011,-0.244,5.013
1054.0,-4.824,-8.716,2.948,-4.38,-0.585,5.013
1058.0,-4.824,-8.716,2.948,-4.38,-0.585,5.013
1062.0,-6.376,-11.31,2.313,-4.64,-0.924,5.013
1066.0,-6.376,-11.31,2.313,-4.64,-0.924,5.013
1070.0,-7.375,-14.321,1.977,-4.64,-0.924,5.013
1074.0,-7.375,-14.321,1.977,-4.552,-1.35,5.013
1078.0,-7.375,-14.321,1.977,-4.552,-1.35,5.013
1083.0,-8.271,-17.179,1.911,-4.017,-1.696,5.013
1087.0,-8.271,-17.179,1.911,-4.017,-1.696,5.013
1091.0,-8.185,-19.158,2.027,-2.985,-1.948,5.013
1095.0,-8.185,-19.158,2.027,-2.985,-1.948,5.013
1099.0,-8.185,-19.158,2.027,-2.985,-1.948,5.013
1103.0,-6.782,-19.6,1.927,-1.611,-2.119,5.013
1107.0,-6.782,-19.6,1.927,-1.611,-2.119,5.013
1111.0,-4.358,-19.554,1.166,-0.178,-2.235,4.96
1115.0,-4.358,-19.554,1.166,-0.178,-2.235,4.96
1119.0,-4.358,-19.554,0.063,-0.178,-2.235,4.96
1123.0,-2.383,-18.852,0.063,1.014,-2.175,4.693
1127.0,-2.383,-18.852,0.063,1.014,-2.175,4.693
1131.0,-1.103,-16.727,-0.667,1.811,-1.988,4.286
1135.0,-1.103,-16.727,-0.667,1.811,-1.988,4.286
1139.0,-0.074,-14.582,-0.862,1.811,-1.988,3.796
1144.0,-0.074,-14.582,-0.862,2.173,-1.747,3.796
1148.0,-0.074,-14.582,-0.862,2.173,-1.747,3.796
1152.0,0.943,-13.125,-0.328,2.206,-1.475,3.279
1156.0,0.943,-13.125,-0.328,2.206,-1.475,3.279
1160.0,2.163,-12.637,0.648,2.055,-1.212,2.776
1164.0,2.163,-12.637,0.648,2.055,-1.212,2.776
1168.0,2.163,-12.637,0.648,2.055,-1.212,2.776
1171.0,3.541,-12.667,1.488,1.815,-0.996,2.295
1175.0,3.541,-12.667,1.488,1.815,-0.996,2.295
1179.0,4.759,-12.744,2.234,1.815,-0.832,1.82
1183.0,4.759,-12.744,2.234,1.535,-0.832,1.82
1187.0,4.759,-12.744,2.234,1.535,-0.832,1.82
1191.0,5.602,-12.691,2.822,1.25,-0.713,1.397
1195.0,5.602,-12.691,2.822,1.25,-0.713,1.397
1199.0,5.865,-12.43,2.834,1.25,-0.713,1.045
1203.0,5.865,-12.43,2.834,0.951,-0.619,1.045
1207.0,5.865,-12.43,2.834,0.951,-0.619,1.045
1210.0,6.446,-12.123,2.71,0.675,-0.601,0.756
1214.0,6.446,-12.123,2.71,0.675,-0.601,0.756
1218.0,7.191,-11.786,2.689,0.675,-0.601,0.756
1222.0,7.191,-11.786,2.689,0.442,-0.556,0.534
1226.0,7.191,-11.786,2.689,0.442,-0.556,0.534
1230.0,7.783,-11.465,2.829,0.292,-0.48,0.36
1234.0,7.783,-11.465,2.829,0.292,-0.48,0.36
1238.0,7.783,-11.128,3.084,0.292,-0.48,0.36
1242.0,8.286,-11.128,3.084,0.262,-0.398,0.225
1246.0,8.286,-11.128,3.084,0.262,-0.398,0.225
1250.0,8.441,-10.779,3.267,0.352,-0.278,0.11
1253.0,8.441,-10.779,3.267,0.352,-0.278,0.11
1257.0,8.441,-10.779,3.578,0.352,-0.278,0.11
1261.0,8.177,-10.292,3.578,0.539,-0.116,0.023
1265.0,8.177,-10.292,3.578,0.539,-0.116,0.023
1269.0,7.592,-9.688,4.016,0.772,0.055,-0.017
1273.0,7.592,-9.688,4.016,0.772,0.055,-0.017
1277.0,7.592,-9.688,4.016,0.772,0.055,-0.017
1281.0,7.02,-8.914,4.484,0.987,0.188,-0.024
1284.0,7.02,-8.914,4.484,0.987,0.188,-0.024
1288.0,6.762,-8.131,4.805,1.14,0.271,-0.007
1292.0,6.762,-8.131,4.805,1.14,0.271,-0.007
1296.0,6.762,-8.131,4.805,1.14,0.271,-0.007
1300.0,6.735,-7.313,5.073,1.209,0.311,0.03
1303.0,6.735,-7.313,5.073,1.209,0.311,0.03
1307.0,6.754,-6.416,5.21,1.209,0.311,0.03
1311.0,6.754,-6.416,5.21,1.184,0.317,0.075
1315.0,6.754,-6.416,5.21,1.184,0.317,0.075
1318.0,6.705,-5.657,5.297,1.052,0.299,0.13
1322.0,6.705,-5.657,5.297,1.052,0.299,0.13
1326.0,6.705,-5.657,5.297,1.052,0.299,0.13
1329.0,6.614,-5.163,5.359,0.835,0.272,0.196
1333.0,6.614,-5.163,5.359,0.835,0.272,0.196
1337.0,6.368,-4.84,5.557,0.835,0.272,0.254
1341.0,6.368,-4.84,5.557,0.575,0.251,0.254
1344.0,6.368,-4.84,5.557,0.575,0.251,0.254
1348.0,5.974,-4.644,5.745,0.314,0.224,0.298
1352.0,5.974,-4.644,5.745,0.314,0.224,0.298
1356.0,5.974,-4.644,5.745,0.314,0.224,0.298
1359.0,5.365,-4.509,5.852,0.082,0.188,0.326
1363.0,5.365,-4.509,5.852,0.082,0.188,0.326
1367.0,4.689,-4.441,5.858,-0.105,0.153,0.337
1371.0,4.689,-4.441,5.858,-0.105,0.153,0.337
1374.0,4.689,-4.441,5.858,-0.105,0.153,0.337
1378.0,4.083,-4.474,5.854,-0.235,0.121,0.334
1382.0,4.083,-4.474,5.854,-0.235,0.121,0.334
1386.0,3.68,-4.518,5.813,-0.235,0.121,0.334
1390.0,3.68,-4.518,5.813,-0.312,0.086,0.31
1394.0,3.68,-4.518,5.813,-0.312,0.086,0.31
1397.0,3.625,-4.638,5.615,-0.352,0.046,0.276
1401.0,3.625,-4.638,5.615,-0.352,0.046,0.276
1405.0,3.625,-4.638,5.615,-0.352,0.046,0.276
1409.0,3.766,-4.834,5.486,-0.36,0.01,0.242
1413.0,3.766,-4.834,5.486,-0.36,0.01,0.242
1416.0,3.878,-5.02,5.326,-0.334,-0.025,0.201
1420.0,3.878,-5.02,5.326,-0.334,-0.025,0.201
1424.0,3.878,-5.02,5.326,-0.334,-0.025,0.201
1428.0,3.884,-5.207,5.039,-0.279,-0.056,0.147
1432.0,3.884,-5.207,5.039,-0.279,-0.056,0.147
1436.0,3.891,-5.236,4.845,-0.197,-0.077,0.086
1440.0,3.891,-5.236,4.845,-0.197,-0.077,0.086
1444.0,3.891,-5.236,4.845,-0.197,-0.077,0.086
1448.0,3.982,-5.23,4.732,-0.099,-0.095,0.041
1452.0,3.982,-5.23,4.732,-0.099,-0.095,0.041
1456.0,4.082,-5.177,4.668,-0.099,-0.106,0.015
1459.0,4.082,-5.177,4.668,0.012,-0.106,0.015
1463.0,4.082,-5.177,4.668,0.012,-0.106,0.015
1467.0,4.208,-5.026,4.644,0.137,-0.106,0.004
1471.0,4.208,-5.026,4.644,0.137,-0.106,0.004
1475.0,4.438,-4.873,4.613,0.137,-0.106,0.004
1479.0,4.438,-4.873,4.613,0.264,-0.097,0.015
1482.0,4.438,-4.873,4.613,0.264,-0.097,0.015
1486.0,4.688,-4.69,4.561,0.363,-0.076,0.031
1490.0,4.688,-4.69,4.561,0.363,-0.076,0.031
1494.0,4.688,-4.69,4.561,0.363,-0.076,0.031
1498.0,4.904,-4.524,4.546,0.404,-0.051,0.033
1501.0,4.904,-4.524,4.546,0.404,-0.051,0.033
1505.0,5.081,-4.408,4.482,0.386,-0.025,0.022
1509.0,5.081,-4.408,4.482,0.386,-0.025,0.022
1513.0,5.081,-4.408,4.482,0.386,-0.025,0.022
1517.0,5.2,-4.295,4.411,0.324,0.014,0.018
1520.0,5.2,-4.295,4.411,0.324,0.014,0.018
1524.0,5.253,-4.339,4.286,0.324,0.014,0.018
1528.0,5.253,-4.339,4.286,0.242,0.061,0.037
1532.0,5.253,-4.339,4.286,0.242,0.061,0.037
1535.0,5.302,-4.53,4.214,0.168,0.113,0.082
1539.0,5.302,-4.53,4.214,0.168,0.113,0.082
1543.0,5.302,-4.53,4.214,0.168,0.113,0.082
1547.0,5.436,-4.807,4.411,0.125,0.16,0.15
1550.0,5.436,-4.807,4.411,0.125,0.16,0.15
1554.0,5.631,-5.072,4.759,0.125,0.16,0.244
1558.0,5.631,-5.072,4.759,0.124,0.181,0.244
1562.0,5.631,-5.072,4.759,0.124,0.181,0.244
1565.0,5.804,-5.301,4.967,0.158,0.165,0.353
1569.0,5.804,-5.301,4.967,0.158,0.165,0.353
1573.0,5.804,-5.301,4.967,0.158,0.165,0.353
1576.0,5.791,-5.515,4.945,0.21,0.139,0.455
1580.0,5.791,-5.515,4.945,0.21,0.139,0.455
1584.0,5.596,-5.656,4.896,0.263,0.116,0.525
1588.0,5.596,-5.656,4.896,0.263,0.116,0.525
1591.0,5.596,-5.656,4.896,0.263,0.116,0.525
1595.0,5.356,-5.629,4.825,0.299,0.096,0.561
1599.0,5.356,-5.629,4.825,0.299,0.096,0.561
1603.0,5.356,-5.629,4.825,0.299,0.096,0.561
1606.0,5.118,-5.632,4.743,0.301,0.081,0.577
1610.0,5.118,-5.632,4.743,0.301,0.081,0.577
1614.0,4.883,-5.693,4.525,0.279,0.072,0.566
1618.0,4.883,-5.693,4.525,0.279,0.072,0.566
1621.0,4.883,-5.693,4.525,0.279,0.072,0.566
1625.0,4.622,-5.762,4.331,0.257,0.083,0.521
1629.0,4.622,-5.762,4.331,0.257,0.083,0.521
1632.0,4.622,-5.762,4.193,0.257,0.083,0.521
1636.0,4.445,-5.968,4.193,0.249,0.109,0.469
1640.0,4.445,-5.968,4.193,0.249,0.109,0.469
1644.0,4.346,-6.29,4.086,0.276,0.146,0.404
1647.0,4.346,-6.29,4.086,0.276,0.146,0.404
1651.0,4.346,-6.29,4.086,0.276,0.146,0.404
1655.0,4.302,-6.575,4.098,0.349,0.175,0.316
1659.0,4.302,-6.575,4.098,0.349,0.175,0.316
1662.0,4.207,-6.686,4.139,0.349,0.175,0.316
1666.0,4.207,-6.686,4.139,0.458,0.192,0.216
1670.0,4.207,-6.686,4.139,0.458,0.192,0.216
1673.0,4.001,-6.583,4.086,0.586,0.202,0.111
1677.0,4.001,-6.583,4.086,0.586,0.202,0.111
1681.0,4.001,-6.583,4.086,0.586,0.202,0.111
1685.0,3.961,-6.275,4.154,0.713,0.2,-0.0
1689.0,3.961,-6.275,4.154,0.713,0.2,-0.0
1692.0,4.158,-5.917,4.298,0.713,0.181,-0.097
1696.0,4.158,-5.917,4.298,0.813,0.181,-0.097
1700.0,4.158,-5.917,4.298,0.813,0.181,-0.097
1704.0,4.283,-5.623,4.343,0.866,0.16,-0.169
1708.0,4.283,-5.623,4.343,0.866,0.16,-0.169
1711.0,4.283,-5.623,4.278,0.866,0.16,-0.169
1715.0,4.277,-5.405,4.278,0.878,0.149,-0.235
1719.0,4.277,-5.405,4.278,0.878,0.149,-0.235
1723.0,4.284,-5.217,4.27,0.863,0.152,-0.309
1727.0,4.284,-5.217,4.27,0.863,0.152,-0.309
1731.0,4.284,-5.217,4.27,0.863,0.152,-0.309
1734.0,4.518,-5.05,4.44,0.836,0.165,-0.368
1738.0,4.518,-5.05,4.44,0.836,0.165,-0.368
1742.0,4.979,-4.979,4.743,0.81,0.173,-0.399
1746.0,4.979,-4.979,4.743,0.81,0.173,-0.399
1750.0,4.979,-4.979,4.743,0.81,0.173,-0.399
1753.0,5.521,-5.019,4.947,0.792,0.172,-0.416
1757.0,5.521,-5.019,4.947,0.792,0.172,-0.416
1761.0,5.961,-5.031,5.005,0.792,0.172,-0.416
1765.0,5.961,-5.031,5.005,0.777,0.184,-0.437
1769.0,5.961,-5.031,5.005,0.777,0.184,-0.437
1773.0,6.384,-4.995,5.127,0.751,0.219,-0.448
1776.0,6.384,-4.995,5.127,0.751,0.219,-0.448
1780.0,6.384,-4.995,5.127,0.751,0.219,-0.448
1784.0,6.962,-5.013,5.4,0.714,0.273,-0.433
1788.0,6.962,-5.013,5.4,0.714,0.273,-0.433
1792.0,7.628,-5.067,5.901,0.673,0.33,-0.408
1795.0,7.628,-5.067,5.901,0.673,0.33,-0.408
1799.0,7.628,-5.067,5.901,0.673,0.33,-0.408
1803.0,8.186,-5.104,6.632,0.645,0.372,-0.381
1807.0,8.186,-5.104,6.632,0.645,0.372,-0.381
1811.0,8.605,-5.204,7.314,0.645,0.387,-0.326
1815.0,8.605,-5.204,7.314,0.633,0.387,-0.326
1818.0,8.605,-5.204,7.314,0.633,0.387,-0.326
1822.0,8.822,-5.413,7.79,0.643,0.364,-0.251
1826.0,8.822,-5.413,7.79,0.643,0.364,-0.251
1830.0,8.822,-5.413,7.941,0.643,0.364,-0.251
1834.0,9.058,-5.632,7.941,0.672,0.303,-0.187
1837.0,9.058,-5.632,7.941,0.672,0.303,-0.187
1841.0,9.44,-5.821,7.898,0.702,0.235,-0.149
1845.0,9.44,-5.821,7.898,0.702,0.235,-0.149
1849.0,9.44,-5.821,7.898,0.702,0.235,-0.149
1853.0,10.003,-5.897,7.912,0.713,0.195,-0.117
1857.0,10.003,-5.897,7.912,0.713,0.195,-0.117
1861.0,10.623,-5.926,8.161,0.689,0.199,-0.087
1864.0,10.623,-5.926,8.161,0.689,0.199,-0.087
1868.0,10.623,-5.926,8.161,0.689,0.199,-0.087
1872.0,10.909,-5.962,8.741,0.631,0.248,-0.079
1876.0,10.909,-5.962,8.741,0.631,0.248,-0.079
1880.0,11.173,-5.885,9.433,0.573,0.258,-0.101
1884.0,11.173,-5.885,9.433,0.573,0.258,-0.101
1888.0,11.173,-5.885,9.433,0.573,0.258,-0.101
1892.0,11.051,-5.825,10.016,0.517,0.262,-0.127
1896.0,11.051,-5.825,10.016,0.517,0.262,-0.127
1900.0,10.644,-5.774,10.48,0.478,0.231,-0.14
1904.0,10.644,-5.774,10.48,0.478,0.231,-0.14
1908.0,10.644,-5.774,10.48,0.478,0.231,-0.14
1912.0,10.073,-5.791,10.788,0.45,0.16,-0.121
1916.0,10.073,-5.791,10.788,0.45,0.16,-0.121
1920.0,9.289,-6.06,10.766,0.43,0.063,-0.08
1924.0,9.289,-6.06,10.766,0.43,0.063,-0.08
1928.0,9.289,-6.06,10.766,0.43,0.063,-0.08
1931.0,8.489,-6.311,10.516,0.407,-0.03,-0.044
1935.0,8.489,-6.311,10.516,0.407,-0.03,-0.044
1939.0,7.956,-6.568,10.07,0.366,-0.1,-0.01
1943.0,7.956,-6.568,10.07,0.366,-0.1,-0.01
1947.0,7.956,-6.568,10.07,0.366,-0.1,-0.01
1951.0,7.455,-6.759,9.57,0.305,-0.128,-0.004
1955.0,7.455,-6.759,9.57,0.305,-0.128,-0.004
1959.0,6.869,-6.774,9.284,0.229,-0.128,-0.031
1963.0,6.869,-6.774,9.284,0.229,-0.128,-0.031
1967.0,6.869,-6.774,9.284,0.229,-0.128,-0.031
1971.0,6.42,-6.633,9.227,0.138,-0.125,-0.081
1975.0,6.42,-6.633,9.227,0.138,-0.125,-0.081
1979.0,6.354,-6.422,9.213,0.041,-0.143,-0.135
1983.0,6.354,-6.422,9.213,0.041,-0.143,-0.135
1987.0,6.354,-6.422,9.213,0.041,-0.143,-0.135
1991.0,6.531,-6.248,9.092,-0.052,-0.175,-0.188
1994.0,6.531,-6.248,9.092,-0.052,-0.175,-0.188
1998.0,6.608,-6.191,8.855,-0.124,-0.189,-0.233
2002.0,6.608,-6.191,8.855,-0.124,-0.189,-0.233
2006.0,6.608,-6.191,8.855,-0.124,-0.189,-0.233
2010.0,6.371,-6.258,8.677,-0.17,-0.173,-0.271
2014.0,6.371,-6.258,8.677,-0.17,-0.173,-0.271
2018.0,5.692,-6.402,8.291,-0.188,-0.143,-0.312
2022.0,5.692,-6.402,8.291,-0.188,-0.143,-0.312
2026.0,5.692,-6.402,8.291,-0.188,-0.143,-0.312
2030.0,4.72,-6.517,7.482,-0.181,-0.098,-0.372
2034.0,4.72,-6.517,7.482,-0.181,-0.098,-0.372
2038.0,3.726,-6.48,6.684,-0.152,-0.02,-0.459
2042.0,3.726,-6.48,6.684,-0.152,-0.02,-0.459
2046.0,3.726,-6.48,6.684,-0.152,-0.02,-0.459
2050.0,2.955,-6.31,6.266,-0.11,0.095,-0.537
2054.0,2.955,-6.31,6.266,-0.11,0.095,-0.537
2058.0,2.413,-6.099,6.322,-0.058,0.23,-0.578
2062.0,2.413,-6.099,6.322,-0.058,0.23,-0.578
2066.0,2.413,-6.099,6.322,-0.058,0.23,-0.578
2070.0,2.094,-5.838,6.591,0.006,0.361,-0.591
2074.0,2.094,-5.838,6.591,0.006,0.361,-0.591
2078.0,2.092,-5.608,6.904,0.084,0.468,-0.587
2081.0,2.092,-5.608,6.904,0.084,0.468,-0.587
2085.0,2.092,-5.608,6.904,0.084,0.468,-0.587
2089.0,2.358,-5.408,7.271,0.181,0.554,-0.575
2093.0,2.358,-5.408,7.271,0.181,0.554,-0.575
2097.0,2.745,-5.209,7.598,0.181,0.554,-0.575
2100.0,2.745,-5.209,7.598,0.294,0.613,-0.547
2104.0,2.745,-5.209,7.598,0.294,0.613,-0.547
2108.0,3.104,-4.997,7.837,0.419,0.645,-0.51
2112.0,3.104,-4.997,7.837,0.419,0.645,-0.51
2116.0,3.104,-4.997,7.837,0.419,0.645,-0.51
2120.0,3.37,-4.737,7.875,0.541,0.648,-0.471
2123.0,3.37,-4.737,7.875,0.541,0.648,-0.471
2127.0,3.477,-4.469,7.743,0.64,0.63,-0.421
2131.0,3.477,-4.469,7.743,0.64,0.63,-0.421
2135.0,3.477,-4.469,7.743,0.64,0.63,-0.421
2139.0,3.504,-4.173,7.509,0.699,0.601,-0.359
2142.0,3.504,-4.173,7.509,0.699,0.601,-0.359
2146.0,3.596,-3.896,7.299,0.699,0.576,-0.297
2150.0,3.596,-3.896,7.299,0.707,0.576,-0.297
2154.0,3.596,-3.896,7.299,0.707,0.576,-0.297
2158.0,3.669,-3.629,7.187,0.667,0.559,-0.244
2162.0,3.669,-3.629,7.187,0.667,0.559,-0.244
2165.0,3.669,-3.629,7.133,0.667,0.559,-0.244
2169.0,3.786,-3.347,7.133,0.586,0.549,-0.202
2173.0,3.786,-3.347,7.133,0.586,0.549,-0.202
2177.0,3.846,-3.085,7.102,0.472,0.547,-0.165
2181.0,3.846,-3.085,7.102,0.472,0.547,-0.165
2185.0,3.846,-3.085,7.102,0.472,0.547,-0.165
2188.0,3.817,-2.893,7.094,0.339,0.541,-0.127
2192.0,3.817,-2.893,7.094,0.339,0.541,-0.127
2196.0,3.717,-2.8,7.072,0.193,0.531,-0.085
2200.0,3.717,-2.8,7.072,0.193,0.531,-0.085
2204.0,3.717,-2.8,7.072,0.193,0.531,-0.085
2207.0,3.533,-2.867,6.934,0.045,0.519,-0.036
2211.0,3.533,-2.867,6.934,0.045,0.519,-0.036
2215.0,3.272,-3.083,6.663,0.045,0.519,-0.036
2219.0,3.272,-3.083,6.663,-0.1,0.509,0.01
2223.0,3.272,-3.083,6.663,-0.1,0.509,0.01
2227.0,3.015,-3.305,6.363,-0.234,0.504,0.038
2230.0,3.015,-3.305,6.363,-0.234,0.504,0.038
2234.0,3.015,-3.305,6.363,-0.234,0.504,0.038
2238.0,2.832,-3.513,6.135,-0.356,0.519,0.049
2242.0,2.832,-3.513,6.135,-0.356,0.519,0.049
2246.0,2.608,-3.638,6.094,-0.459,0.547,0.05
2249.0,2.608,-3.638,6.094,-0.459,0.547,0.05
2253.0,2.608,-3.638,6.094,-0.459,0.547,0.05
2257.0,2.392,-3.699,6.207,-0.534,0.559,0.046
2261.0,2.392,-3.699,6.207,-0.534,0.559,0.046
2265.0,2.178,-3.767,6.296,-0.534,0.545,0.05
2269.0,2.178,-3.767,6.296,-0.585,0.545,0.05
2272.0,2.178,-3.767,6.296,-0.585,0.545,0.05
2276.0,2.028,-3.937,6.215,-0.611,0.513,0.063
2280.0,2.028,-3.937,6.215,-0.611,0.513,0.063
2284.0,2.028,-3.937,6.05,-0.611,0.513,0.063
2288.0,1.932,-4.17,6.05,-0.617,0.491,0.078
2291.0,1.932,-4.17,6.05,-0.617,0.491,0.078
2295.0,1.902,-4.426,5.967,-0.599,0.493,0.087
2299.0,1.902,-4.426,5.967,-0.599,0.493,0.087
2303.0,1.902,-4.426,5.967,-0.599,0.493,0.087
2307.0,1.947,-4.694,5.918,-0.554,0.516,0.09
2311.0,1.947,-4.694,5.918,-0.554,0.516,0.09
2314.0,2.015,-4.954,5.931,-0.482,0.546,0.091
2318.0,2.015,-4.954,5.931,-0.482,0.546,0.091
2322.0,2.015,-4.954,5.931,-0.482,0.546,0.091
2326.0,2.077,-5.175,5.887,-0.39,0.563,0.083
2330.0,2.077,-5.175,5.887,-0.39,0.563,0.083
2333.0,2.063,-5.32,5.771,-0.39,0.563,0.083
2337.0,2.063,-5.32,5.771,-0.29,0.567,0.062
2341.0,2.063,-5.32,5.771,-0.29,0.567,0.062
2345.0,2.018,-5.425,5.648,-0.191,0.571,0.037
2349.0,2.018,-5.425,5.648,-0.191,0.571,0.037
2353.0,2.018,-5.425,5.648,-0.191,0.571,0.037
2356.0,1.884,-5.475,5.602,-0.102,0.586,0.018
2360.0,1.884,-5.475,5.602,-0.102,0.586,0.018
2364.0,1.762,-5.492,5.687,-0.022,0.603,0.003
2368.0,1.762,-5.492,5.687,-0.022,0.603,0.003
2372.0,1.762,-5.492,5.687,-0.022,0.603,0.003
2375.0,1.682,-5.512,5.813,0.054,0.61,-0.012
2379.0,1.682,-5.512,5.813,0.054,0.61,-0.012
2383.0,1.645,-5.532,5.877,0.054,0.61,-0.03
2387.0,1.645,-5.532,5.877,0.123,0.615,-0.03
2391.0,1.645,-5.532,5.877,0.123,0.615,-0.03
2395.0,1.612,-5.559,5.984,0.189,0.631,-0.058
2398.0,1.612,-5.559,5.984,0.189,0.631,-0.058
2402.0,1.612,-5.559,6.161,0.189,0.631,-0.058
2406.0,1.6,-5.571,6.161,0.257,0.663,-0.1
2410.0,1.6,-5.571,6.161,0.257,0.663,-0.1
2414.0,1.615,-5.562,6.516,0.342,0.715,-0.15
2417.0,1.615,-5.562,6.516,0.342,0.715,-0.15
2421.0,1.615,-5.562,6.516,0.342,0.715,-0.15
2425.0,1.49,-5.46,6.977,0.455,0.78,-0.193
2429.0,1.49,-5.46,6.977,0.455,0.78,-0.193
2433.0,1.119,-5.367,7.333,0.606,0.836,-0.218
2437.0,1.119,-5.367,7.333,0.606,0.836,-0.218
2440.0,1.119,-5.367,7.333,0.606,0.836,-0.218
2444.0,0.576,-5.165,7.601,0.795,0.881,-0.235
2448.0,0.576,-5.165,7.601,0.795,0.881,-0.235
2452.0,0.082,-4.865,7.863,0.795,0.881,-0.235
2456.0,0.082,-4.865,7.863,1.006,0.914,-0.228
2460.0,0.082,-4.865,7.863,1.006,0.914,-0.228
2463.0,-0.082,-4.654,8.198,1.22,0.914,-0.179
2467.0,-0.082,-4.654,8.198,1.22,0.914,-0.179
2471.0,-0.082,-4.654,8.198,1.22,0.914,-0.179
2475.0,0.275,-4.558,8.495,1.417,0.87,-0.106
2479.0,0.275,-4.558,8.495,1.417,0.87,-0.106
2483.0,0.934,-4.487,8.748,1.575,0.815,-0.034
2487.0,0.934,-4.487,8.748,1.575,0.815,-0.034
2490.0,0.934,-4.487,8.748,1.575,0.815,-0.034
2494.0,1.444,-4.385,8.967,1.681,0.775,0.037
2498.0,1.444,-4.385,8.967,1.681,0.775,0.037
2502.0,1.806,-4.229,9.126,1.681,0.74,0.098
2505.0,1.806,-4.229,9.126,1.718,0.74,0.098
2509.0,1.806,-4.229,9.126,1.718,0.74,0.098
2513.0,1.817,-4.044,9.39,1.678,0.711,0.13
2517.0,1.817,-4.044,9.39,1.678,0.711,0.13
2520.0,1.817,-4.044,9.39,1.678,0.711,0.13
2524.0,1.489,-3.91,9.736,1.563,0.674,0.147
2528.0,1.489,-3.91,9.736,1.563,0.674,0.147
2531.0,1.067,-3.808,9.973,1.377,0.596,0.152
2535.0,1.067,-3.808,9.973,1.377,0.596,0.152
2539.0,1.067,-3.808,9.973,1.377,0.596,0.152
2543.0,1.013,-3.887,9.977,1.134,0.457,0.133
2546.0,1.013,-3.887,9.977,1.134,0.457,0.133
2550.0,1.013,-3.887,9.977,1.134,0.457,0.133
2554.0,1.073,-4.102,9.783,0.841,0.315,0.072
2558.0,1.073,-4.102,9.783,0.841,0.315,0.072
2561.0,1.027,-4.371,9.544,0.52,0.217,-0.014
2565.0,1.027,-4.371,9.544,0.52,0.217,-0.014
2569.0,1.027,-4.371,9.544,0.52,0.217,-0.014
2573.0,0.922,-4.656,9.495,0.198,0.163,-0.111
2577.0,0.922,-4.656,9.495,0.198,0.163,-0.111
2580.0,0.821,-4.946,9.567,0.198,0.163,-0.218
2584.0,0.821,-4.946,9.567,-0.092,0.134,-0.218
2588.0,0.821,-4.946,9.567,-0.092,0.134,-0.218
2592.0,0.988,-5.255,9.767,-0.325,0.104,-0.318
2596.0,0.988,-5.255,9.767,-0.325,0.104,-0.318
2600.0,1.258,-5.654,10.11,-0.325,0.104,-0.318
2604.0,1.258,-5.654,10.11,-0.488,0.079,-0.383
2608.0,1.258,-5.654,10.11,-0.488,0.079,-0.383
2612.0,1.402,-6.154,10.346,-0.574,0.055,-0.399
2616.0,1.402,-6.154,10.346,-0.574,0.055,-0.399
2620.0,1.458,-6.635,10.35,-0.574,0.055,-0.399
2624.0,1.458,-6.635,10.35,-0.582,0.034,-0.4
2628.0,1.458,-6.635,10.35,-0.582,0.034,-0.4
2632.0,1.403,-6.887,10.548,-0.519,0.051,-0.419
2636.0,1.403,-6.887,10.548,-0.519,0.051,-0.419
2640.0,1.326,-6.888,11.011,-0.519,0.091,-0.428
2644.0,1.326,-6.888,11.011,-0.402,0.091,-0.428
2648.0,1.326,-6.888,11.011,-0.402,0.091,-0.428
2652.0,1.219,-6.541,11.553,-0.232,0.121,-0.418
2656.0,1.219,-6.541,11.553,-0.232,0.121,-0.418
2660.0,1.221,-6.107,11.927,-0.004,0.124,-0.38
2664.0,1.221,-6.107,11.927,-0.004,0.124,-0.38
2668.0,1.221,-6.107,11.927,-0.004,0.124,-0.38
2672.0,1.34,-5.652,12.197,0.271,0.114,-0.297
2676.0,1.34,-5.652,12.197,0.271,0.114,-0.297
2680.0,1.519,-5.371,12.249,0.582,0.098,-0.162
2683.0,1.519,-5.371,12.249,0.582,0.098,-0.162
2687.0,1.519,-5.371,12.249,0.582,0.098,-0.162
2691.0,1.673,-5.176,11.917,0.904,0.076,-0.001
2695.0,1.673,-5.176,11.917,0.904,0.076,-0.001
2699.0,1.93,-5.041,11.414,0.904,0.084,0.156
2703.0,1.93,-5.041,11.414,1.221,0.084,0.156
2707.0,1.93,-5.041,11.414,1.221,0.084,0.156
2711.0,2.373,-4.872,11.093,1.509,0.153,0.3
2714.0,2.373,-4.872,11.093,1.509,0.153,0.3
2718.0,2.373,-4.466,11.113,1.509,0.153,0.3
2722.0,2.613,-4.466,11.113,1.751,0.257,0.393
2726.0,2.613,-4.466,11.113,1.751,0.257,0.393
2730.0,2.481,-3.73,11.192,1.928,0.341,0.423
2733.0,2.481,-3.73,11.192,1.928,0.341,0.423
2737.0,2.481,-3.73,11.192,1.928,0.341,0.423
2741.0,2.086,-2.877,11.043,2.015,0.384,0.428
2745.0,2.086,-2.877,11.043,2.015,0.384,0.428
2749.0,1.679,-2.02,10.731,2.002,0.415,0.421
2753.0,1.679,-2.02,10.731,2.002,0.415,0.421
2756.0,1.679,-2.02,10.731,2.002,0.415,0.421
2760.0,1.182,-1.168,10.594,1.903,0.475,0.395
2764.0,1.182,-1.168,10.594,1.903,0.475,0.395
2768.0,0.465,-0.302,10.698,1.903,0.475,0.395
2772.0,0.465,-0.302,10.698,1.739,0.55,0.35
2775.0,0.465,-0.302,10.698,1.739,0.55,0.35
2779.0,-0.147,0.561,11.042,1.535,0.585,0.301
2783.0,-0.147,0.561,11.042,1.535,0.585,0.301
2787.0,-0.147,0.561,11.042,1.535,0.585,0.301
2791.0,-0.167,1.168,11.496,1.318,0.554,0.276
2795.0,-0.167,1.168,11.496,1.318,0.554,0.276
2798.0,0.442,1.33,11.773,1.108,0.482,0.295
2802.0,0.442,1.33,11.773,1.108,0.482,0.295
2806.0,0.442,1.33,11.773,1.108,0.482,0.295
2810.0,1.393,1.009,11.703,0.936,0.399,0.34
2813.0,1.393,1.009,11.703,0.936,0.399,0.34
2817.0,2.185,0.48,11.307,0.936,0.399,0.34
2821.0,2.185,0.48,11.307,0.817,0.325,0.354
2825.0,2.185,0.48,11.307,0.817,0.325,0.354
2828.0,2.267,0.106,10.861,0.737,0.289,0.305
2832.0,2.267,0.106,10.861,0.737,0.289,0.305
2836.0,2.267,0.106,10.861,0.737,0.289,0.305
2839.0,1.624,-0.05,10.561,0.668,0.299,0.237
2843.0,1.624,-0.05,10.561,0.668,0.299,0.237
2847.0,0.774,-0.034,10.549,0.668,0.317,0.176
2851.0,0.774,-0.034,10.549,0.594,0.317,0.176
2855.0,0.774,-0.034,10.549,0.594,0.317,0.176
2859.0,0.147,0.152,10.555,0.512,0.309,0.116
2862.0,0.147,0.152,10.555,0.512,0.309,0.116
2866.0,0.147,0.152,10.403,0.512,0.309,0.116
2870.0,-0.092,0.369,10.403,0.421,0.265,0.055
2874.0,-0.092,0.369,10.403,0.421,0.265,0.055
2877.0,0.055,0.562,10.083,0.322,0.202,-0.003
2881.0,0.055,0.562,10.083,0.322,0.202,-0.003
2885.0,0.055,0.562,10.083,0.322,0.202,-0.003
2889.0,0.595,0.642,9.587,0.219,0.148,-0.047
2893.0,0.595,0.642,9.587,0.219,0.148,-0.047
2896.0,1.101,0.567,9.162,0.219,0.148,-0.091
2900.0,1.101,0.567,9.162,0.119,0.137,-0.091
2904.0,1.101,0.567,9.162,0.119,0.137,-0.091
2908.0,1.236,0.333,8.657,0.034,0.159,-0.139
2911.0,1.236,0.333,8.657,0.034,0.159,-0.139
2915.0,1.236,0.333,8.657,0.034,0.159,-0.139
2919.0,0.948,0.028,7.908,-0.029,0.2,-0.203
2923.0,0.948,0.028,7.908,-0.029,0.2,-0.203
2926.0,0.413,-0.127,7.34,-0.068,0.26,-0.286
2930.0,0.413,-0.127,7.34,-0.068,0.26,-0.286
2934.0,0.413,-0.127,7.34,-0.068,0.26,-0.286
2938.0,-0.114,0.203,7.63,-0.065,0.275,-0.358
2942.0,-0.114,0.203,7.63,-0.065,0.275,-0.358
2946.0,0.246,0.143,7.748,-0.065,0.185,-0.349
2950.0,0.246,0.143,7.748,-0.017,0.185,-0.349
2954.0,0.246,0.143,7.748,-0.017,0.185,-0.349
2957.0,0.924,-0.163,7.411,0.066,0.084,-0.318
2961.0,0.924,-0.163,7.411,0.066,0.084,-0.318
2965.0,0.924,-0.68,6.787,0.066,0.084,-0.318
2969.0,1.37,-0.68,6.787,0.179,0.031,-0.31
2973.0,1.37,-0.68,6.787,0.179,0.031,-0.31
2976.0,1.509,-1.141,6.027,0.316,0.038,-0.34
2980.0,1.509,-1.141,6.027,0.316,0.038,-0.34
2984.0,1.509,-1.141,6.027,0.316,0.038,-0.34
2988.0,1.485,-1.426,5.293,0.453,0.105,-0.418
2992.0,1.485,-1.426,5.293,0.453,0.105,-0.418
2996.0,1.371,-1.616,4.521,0.569,0.229,-0.521
2999.0,1.371,-1.616,4.521,0.569,0.229,-0.521
