deltaTime,Acc_X,Acc_Y,Acc_Z,Gyro_X,Gyro_Y,Gyro_Z
0.0,-9.029,-8.721,-0.383,0.534,-0.94,0.254
3.0,-9.029,-8.721,-0.383,0.534,-0.94,0.254
6.0,-9.029,-8.721,-0.383,0.534,-0.94,0.254
9.0,-8.88,-8.877,-0.434,0.534,-0.94,0.254
12.0,-8.88,-8.877,-0.434,0.544,-0.973,0.292
15.0,-8.88,-8.877,-0.434,0.544,-0.973,0.292
18.0,-8.88,-8.877,-0.434,0.544,-0.973,0.292
21.0,-8.504,-8.913,-0.44,0.611,-0.973,0.31
24.0,-8.504,-8.913,-0.44,0.611,-0.973,0.31
27.0,-8.504,-8.913,-0.44,0.611,-0.973,0.31
30.0,-8.429,-8.773,-0.384,0.71,-0.923,0.32
33.0,-8.429,-8.773,-0.384,0.71,-0.923,0.32
37.0,-8.429,-8.773,-0.384,0.71,-0.923,0.32
41.0,-8.298,-8.568,-0.319,0.805,-0.876,0.333
44.0,-8.298,-8.568,-0.319,0.805,-0.876,0.333
48.0,-8.107,-8.279,-0.275,0.805,-0.876,0.333
52.0,-8.107,-8.279,-0.275,0.873,-0.823,0.331
56.0,-8.107,-8.279,-0.275,0.873,-0.823,0.331
60.0,-7.936,-7.841,-0.193,0.883,-0.771,0.328
64.0,-7.936,-7.841,-0.193,0.883,-0.771,0.328
67.0,-7.936,-7.841,-0.193,0.883,-0.771,0.328
71.0,-7.948,-7.351,-0.135,0.82,-0.748,0.323
75.0,-7.948,-7.351,-0.135,0.82,-0.748,0.323
79.0,-7.772,-6.769,-0.301,0.675,-0.746,0.336
83.0,-7.772,-6.769,-0.301,0.675,-0.746,0.336
86.0,-7.772,-6.769,-0.301,0.675,-0.746,0.336
90.0,-7.247,-6.518,-0.459,0.45,-0.735,0.334
94.0,-7.247,-6.518,-0.459,0.45,-0.735,0.334
98.0,-6.942,-6.549,-0.306,0.45,-0.735,0.302
102.0,-6.942,-6.549,-0.306,0.207,-0.694,0.302
106.0,-6.942,-6.549,-0.306,0.207,-0.694,0.302
110.0,-7.141,-7.371,-0.325,-0.002,-0.657,0.268
114.0,-7.141,-7.371,-0.325,-0.002,-0.657,0.268
118.0,-6.758,-7.384,0.028,-0.002,-0.657,0.268
121.0,-6.758,-7.384,0.028,-0.052,-0.702,0.222
125.0,-6.758,-7.384,0.028,-0.052,-0.702,0.222
129.0,-6.741,-6.823,0.397,-0.107,-0.546,0.189
133.0,-6.741,-6.823,0.397,-0.107,-0.546,0.189
137.0,-6.613,-6.577,0.568,-0.107,-0.546,0.189
141.0,-6.613,-6.577,0.568,-0.194,-0.446,0.148
145.0,-6.613,-6.577,0.568,-0.194,-0.446,0.148
149.0,-6.407,-6.58,0.693,-0.26,-0.405,0.119
153.0,-6.407,-6.58,0.693,-0.26,-0.405,0.119
157.0,-6.407,-6.58,0.885,-0.26,-0.405,0.119
160.0,-6.084,-6.376,0.885,-0.247,-0.351,0.113
164.0,-6.084,-6.376,0.885,-0.247,-0.351,0.113
168.0,-5.862,-6.074,1.186,-0.2,-0.289,0.124
172.0,-5.862,-6.074,1.186,-0.2,-0.289,0.124
176.0,-5.862,-6.074,1.186,-0.2,-0.289,0.124
180.0,-5.795,-5.829,1.603,-0.153,-0.23,0.154
184.0,-5.795,-5.829,1.603,-0.153,-0.23,0.154
188.0,-5.656,-5.666,1.982,-0.108,-0.178,0.2
192.0,-5.656,-5.666,1.982,-0.108,-0.178,0.2
196.0,-5.656,-5.666,1.982,-0.108,-0.178,0.2
200.0,-5.664,-5.66,2.309,-0.063,-0.141,0.247
203.0,-5.664,-5.66,2.309,-0.063,-0.141,0.247
207.0,-5.761,-5.727,2.464,-0.015,-0.135,0.278
211.0,-5.761,-5.727,2.464,-0.015,-0.135,0.278
215.0,-5.761,-5.727,2.464,-0.015,-0.135,0.278
219.0,-5.798,-5.896,2.397,0.049,-0.153,0.296
223.0,-5.798,-5.896,2.397,0.049,-0.153,0.296
227.0,-5.701,-5.99,2.043,0.153,-0.18,0.317
231.0,-5.701,-5.99,2.043,0.153,-0.18,0.317
234.0,-5.701,-5.99,2.043,0.153,-0.18,0.317
238.0,-5.218,-5.896,1.558,0.268,-0.185,0.34
242.0,-5.218,-5.896,1.558,0.268,-0.185,0.34
246.0,-4.719,-5.806,1.01,0.268,-0.185,0.34
250.0,-4.719,-5.806,1.01,0.36,-0.17,0.333
253.0,-4.719,-5.806,1.01,0.36,-0.17,0.333
257.0,-4.222,-5.539,0.714,0.44,-0.102,0.343
261.0,-4.222,-5.539,0.714,0.44,-0.102,0.343
265.0,-4.222,-5.539,0.714,0.44,-0.102,0.343
269.0,-3.766,-5.163,0.629,0.473,0.0,0.354
272.0,-3.766,-5.163,0.629,0.473,0.0,0.354
276.0,-3.439,-5.09,0.768,0.457,0.112,0.369
280.0,-3.439,-5.09,0.768,0.457,0.112,0.369
284.0,-3.439,-5.09,0.768,0.457,0.112,0.369
287.0,-3.349,-5.233,1.101,0.43,0.215,0.384
291.0,-3.349,-5.233,1.101,0.43,0.215,0.384
295.0,-3.349,-5.266,1.459,0.43,0.215,0.384
299.0,-3.367,-5.266,1.459,0.42,0.283,0.383
302.0,-3.367,-5.266,1.459,0.42,0.283,0.383
306.0,-3.43,-5.369,1.778,0.412,0.315,0.377
310.0,-3.43,-5.369,1.778,0.412,0.315,0.377
314.0,-3.43,-5.369,1.778,0.412,0.315,0.377
317.0,-3.544,-5.49,2.033,0.413,0.321,0.363
321.0,-3.544,-5.49,2.033,0.413,0.321,0.363
325.0,-3.829,-5.579,2.143,0.413,0.321,0.363
328.0,-3.829,-5.579,2.143,0.411,0.313,0.328
332.0,-3.829,-5.579,2.143,0.411,0.313,0.328
336.0,-3.986,-5.727,2.118,0.399,0.294,0.266
340.0,-3.986,-5.727,2.118,0.399,0.294,0.266
343.0,-3.986,-5.727,2.118,0.399,0.294,0.266
347.0,-3.966,-5.891,1.993,0.384,0.271,0.215
351.0,-3.966,-5.891,1.993,0.384,0.271,0.215
355.0,-3.93,-6.033,1.859,0.384,0.271,0.166
358.0,-3.93,-6.033,1.859,0.377,0.258,0.166
362.0,-3.93,-6.033,1.859,0.377,0.258,0.166
366.0,-3.973,-6.046,1.729,0.371,0.258,0.103
370.0,-3.973,-6.046,1.729,0.371,0.258,0.103
373.0,-3.973,-6.046,1.729,0.371,0.258,0.103
377.0,-4.039,-5.955,1.624,0.361,0.264,0.024
381.0,-4.039,-5.955,1.624,0.361,0.264,0.024
384.0,-4.271,-5.702,1.78,0.33,0.267,-0.067
388.0,-4.271,-5.702,1.78,0.33,0.267,-0.067
392.0,-4.271,-5.702,1.78,0.33,0.267,-0.067
396.0,-4.689,-5.707,2.224,0.258,0.242,-0.162
400.0,-4.689,-5.707,2.224,0.258,0.242,-0.162
404.0,-5.105,-5.91,2.74,0.258,0.242,-0.162
407.0,-5.105,-5.91,2.74,0.162,0.185,-0.26
411.0,-5.105,-5.91,2.74,0.162,0.185,-0.26
415.0,-5.395,-6.196,3.069,0.067,0.117,-0.352
419.0,-5.395,-6.196,3.069,0.067,0.117,-0.352
423.0,-5.395,-6.196,3.069,0.067,0.117,-0.352
426.0,-5.585,-6.584,3.327,-0.006,0.063,-0.407
430.0,-5.585,-6.584,3.327,-0.006,0.063,-0.407
434.0,-5.84,-7.169,3.737,-0.061,0.024,-0.416
438.0,-5.84,-7.169,3.737,-0.061,0.024,-0.416
442.0,-5.84,-7.169,3.737,-0.061,0.024,-0.416
446.0,-6.282,-7.703,4.232,-0.113,-0.024,-0.411
450.0,-6.282,-7.703,4.232,-0.113,-0.024,-0.411
454.0,-6.859,-8.218,4.714,-0.162,-0.103,-0.415
458.0,-6.859,-8.218,4.714,-0.162,-0.103,-0.415
462.0,-6.859,-8.218,4.714,-0.162,-0.103,-0.415
466.0,-7.358,-8.722,5.18,-0.201,-0.214,-0.45
470.0,-7.358,-8.722,5.18,-0.201,-0.214,-0.45
474.0,-7.587,-9.049,5.463,-0.221,-0.355,-0.517
478.0,-7.587,-9.049,5.463,-0.221,-0.355,-0.517
482.0,-7.587,-9.049,5.463,-0.221,-0.355,-0.517
486.0,-7.515,-9.206,5.551,-0.223,-0.495,-0.584
490.0,-7.515,-9.206,5.551,-0.223,-0.495,-0.584
494.0,-7.388,-9.38,5.582,-0.211,-0.602,-0.631
498.0,-7.388,-9.38,5.582,-0.211,-0.602,-0.631
502.0,-7.388,-9.38,5.582,-0.211,-0.602,-0.631
506.0,-7.394,-9.669,5.658,-0.195,-0.668,-0.661
510.0,-7.394,-9.669,5.658,-0.195,-0.668,-0.661
514.0,-7.594,-10.186,5.97,-0.179,-0.7,-0.673
518.0,-7.594,-10.186,5.97,-0.179,-0.7,-0.673
522.0,-7.913,-10.882,6.593,-0.179,-0.7,-0.673
526.0,-7.913,-10.882,6.593,-0.161,-0.727,-0.681
530.0,-7.913,-10.882,6.593,-0.161,-0.727,-0.681
534.0,-8.264,-11.529,7.231,-0.128,-0.774,-0.707
538.0,-8.264,-11.529,7.231,-0.128,-0.774,-0.707
542.0,-8.528,-11.967,7.823,-0.068,-0.85,-0.752
547.0,-8.528,-11.967,7.823,-0.068,-0.85,-0.752
551.0,-8.528,-11.967,7.823,-0.068,-0.85,-0.752
555.0,-8.603,-12.354,8.116,0.015,-0.951,-0.795
559.0,-8.603,-12.354,8.116,0.015,-0.951,-0.795
563.0,-8.564,-12.6,8.386,0.128,-1.063,-0.829
567.0,-8.564,-12.6,8.386,0.128,-1.063,-0.829
571.0,-8.564,-12.6,8.386,0.128,-1.063,-0.829
575.0,-8.358,-13.056,8.23,0.295,-1.16,-0.853
579.0,-8.358,-13.056,8.23,0.295,-1.16,-0.853
583.0,-8.114,-13.893,8.305,0.572,-1.218,-0.874
587.0,-8.114,-13.893,8.305,0.572,-1.218,-0.874
591.0,-8.114,-13.893,8.305,0.572,-1.218,-0.874
595.0,-8.043,-14.594,8.656,1.005,-1.291,-0.908
599.0,-8.043,-14.594,8.656,1.005,-1.291,-0.908
603.0,-8.243,-14.693,9.326,1.57,-1.443,-0.935
607.0,-8.243,-14.693,9.326,1.57,-1.443,-0.935
611.0,-8.243,-14.693,9.907,1.57,-1.443,-0.935
615.0,-8.606,-14.198,9.907,2.161,-1.701,-0.903
619.0,-8.606,-14.198,9.907,2.161,-1.701,-0.903
623.0,-8.839,-13.294,10.193,2.657,-2.022,-0.774
627.0,-8.839,-13.294,10.193,2.657,-2.022,-0.774
631.0,-8.249,-12.38,10.319,2.657,-2.022,-0.774
635.0,-8.249,-12.38,10.319,2.983,-2.338,-0.581
639.0,-8.249,-12.38,10.319,2.983,-2.338,-0.581
643.0,-6.963,-11.697,10.324,3.145,-2.57,-0.414
647.0,-6.963,-11.697,10.324,3.145,-2.57,-0.414
651.0,-5.517,-10.93,10.148,3.165,-2.658,-0.349
655.0,-5.517,-10.93,10.148,3.165,-2.658,-0.349
659.0,-5.517,-10.93,10.148,3.165,-2.658,-0.349
663.0,-4.379,-10.33,9.863,3.038,-2.614,-0.403
667.0,-4.379,-10.33,9.863,3.038,-2.614,-0.403
671.0,-3.634,-10.134,9.382,2.783,-2.503,-0.527
675.0,-3.634,-10.134,9.382,2.783,-2.503,-0.527
679.0,-3.634,-10.134,9.382,2.783,-2.503,-0.527
683.0,-3.297,-10.336,8.986,2.458,-2.404,-0.653
687.0,-3.297,-10.336,8.986,2.458,-2.404,-0.653
691.0,-3.17,-10.955,8.813,2.134,-2.358,-0.764
695.0,-3.17,-10.955,8.813,2.134,-2.358,-0.764
699.0,-3.17,-10.955,8.813,2.134,-2.358,-0.764
703.0,-3.254,-11.781,8.901,1.902,-2.35,-0.883
707.0,-3.254,-11.781,8.901,1.902,-2.35,-0.883
711.0,-3.481,-12.737,8.826,1.824,-2.353,-1.029
715.0,-3.481,-12.737,8.826,1.824,-2.353,-1.029
719.0,-3.481,-12.737,8.482,1.824,-2.353,-1.029
723.0,-3.695,-13.649,8.482,1.909,-2.341,-1.201
727.0,-3.695,-13.649,8.482,1.909,-2.341,-1.201
731.0,-3.892,-14.584,7.956,2.142,-2.318,-1.382
735.0,-3.892,-14.584,7.956,2.142,-2.318,-1.382
739.0,-4.138,-15.051,7.242,2.142,-2.318,-1.382
743.0,-4.138,-15.051,7.242,2.494,-2.315,-1.558
747.0,-4.138,-15.051,7.242,2.494,-2.315,-1.558
751.0,-4.197,-15.232,6.4,2.92,-2.335,-1.71
755.0,-4.197,-15.232,6.4,2.92,-2.335,-1.71
759.0,-3.942,-15.219,5.516,2.92,-2.335,-1.841
763.0,-3.942,-15.219,5.516,3.379,-2.325,-1.841
767.0,-3.942,-15.219,5.516,3.379,-2.325,-1.841
771.0,-3.682,-15.081,4.73,3.828,-2.25,-1.981
775.0,-3.682,-15.081,4.73,3.828,-2.25,-1.981
779.0,-3.479,-14.522,3.76,3.828,-2.127,-2.161
783.0,-3.479,-14.522,3.76,4.21,-2.127,-2.161
787.0,-3.479,-14.522,3.76,4.21,-2.127,-2.161
791.0,-3.215,-13.688,2.591,4.487,-1.946,-2.366
795.0,-3.215,-13.688,2.591,4.487,-1.946,-2.366
799.0,-2.788,-12.784,1.557,4.648,-1.678,-2.576
803.0,-2.788,-12.784,1.557,4.648,-1.678,-2.576
807.0,-2.788,-12.784,1.557,4.648,-1.678,-2.576
811.0,-2.413,-12.179,0.824,4.707,-1.324,-2.784
815.0,-2.413,-12.179,0.824,4.707,-1.324,-2.784
819.0,-2.233,-11.947,0.578,4.683,-0.907,-3.012
823.0,-2.233,-11.947,0.578,4.683,-0.907,-3.012
827.0,-2.233,-11.947,0.578,4.683,-0.907,-3.012
831.0,-2.372,-12.026,0.609,4.638,-0.474,-3.272
835.0,-2.372,-12.026,0.609,4.638,-0.474,-3.272
839.0,-2.728,-11.995,0.411,4.654,-0.059,-3.548
843.0,-2.728,-11.995,0.411,4.654,-0.059,-3.548
847.0,-2.728,-11.995,0.411,4.654,-0.059,-3.548
851.0,-3.178,-11.889,0.103,4.781,0.324,-3.797
855.0,-3.178,-11.889,0.103,4.781,0.324,-3.797
859.0,-3.504,-11.834,-0.239,4.957,0.658,-4.012
863.0,-3.504,-11.834,-0.239,4.957,0.658,-4.012
867.0,-3.504,-11.834,-0.239,4.957,0.658,-4.012
871.0,-3.528,-11.543,-0.797,4.995,0.94,-4.201
875.0,-3.528,-11.543,-0.797,4.995,0.94,-4.201
879.0,-3.825,-10.844,-1.223,4.995,1.177,-4.348
883.0,-3.825,-10.844,-1.223,4.995,1.177,-4.348
887.0,-3.825,-10.844,-1.223,4.995,1.177,-4.348
891.0,-4.549,-9.654,-1.286,4.995,1.334,-4.453
895.0,-4.549,-9.654,-1.286,4.995,1.334,-4.453
899.0,-5.415,-8.301,-1.091,4.995,1.374,-4.511
902.0,-5.415,-8.301,-1.091,4.995,1.374,-4.511
906.0,-5.415,-8.301,-1.091,4.995,1.374,-4.511
910.0,-6.064,-7.038,-0.934,4.995,1.301,-4.535
914.0,-6.064,-7.038,-0.934,4.995,1.301,-4.535
918.0,-6.334,-5.511,-1.01,4.995,1.154,-4.53
922.0,-6.334,-5.511,-1.01,4.995,1.154,-4.53
926.0,-6.334,-5.511,-1.01,4.995,1.154,-4.53
930.0,-6.523,-3.875,-0.964,4.995,0.97,-4.499
934.0,-6.523,-3.875,-0.964,4.995,0.97,-4.499
938.0,-6.75,-2.177,-0.738,4.995,0.762,-4.46
942.0,-6.75,-2.177,-0.738,4.995,0.762,-4.46
945.0,-6.75,-2.177,-0.738,4.995,0.762,-4.46
949.0,-7.046,-0.489,-0.479,4.995,0.526,-4.411
953.0,-7.046,-0.489,-0.479,4.995,0.526,-4.411
957.0,-7.419,1.189,-0.21,4.995,0.266,-4.331
961.0,-7.419,1.189,-0.21,4.995,0.266,-4.331
965.0,-7.419,1.189,-0.21,4.995,0.266,-4.331
969.0,-7.782,2.886,0.059,4.995,-0.011,-4.185
972.0,-7.782,2.886,0.059,4.995,-0.011,-4.185
976.0,-8.004,4.448,0.296,4.995,-0.011,-4.185
980.0,-8.004,4.448,0.296,4.955,-0.295,-3.951
984.0,-8.004,4.448,0.296,4.955,-0.295,-3.951
988.0,-8.169,6.053,0.638,4.533,-0.571,-3.633
992.0,-8.169,6.053,0.638,4.533,-0.571,-3.633
995.0,-8.169,6.053,0.638,4.533,-0.571,-3.633
999.0,-8.255,7.482,0.861,3.892,-0.829,-3.241
1003.0,-8.255,7.482,0.861,3.892,-0.829,-3.241
1007.0,-8.15,8.859,1.085,3.246,-1.054,-2.799
1011.0,-8.15,8.859,1.085,3.246,-1.054,-2.799
1015.0,-8.15,8.859,1.085,3.246,-1.054,-2.799
1019.0,-7.86,10.074,1.168,2.599,-1.233,-2.307
1023.0,-7.86,10.074,1.168,2.599,-1.233,-2.307
1027.0,-7.528,10.961,1.329,1.955,-1.351,-1.781
1031.0,-7.528,10.961,1.329,1.955,-1.351,-1.781
1035.0,-7.528,10.961,1.329,1.955,-1.351,-1.781
1039.0,-7.201,11.383,1.584,1.336,-1.417,-1.246
1043.0,-7.201,11.383,1.584,1.336,-1.417,-1.246
1047.0,-6.751,11.579,2.049,0.759,-1.431,-0.73
1051.0,-6.751,11.579,2.049,0.759,-1.431,-0.73
1055.0,-6.751,11.579,2.049,0.759,-1.431,-0.73
1059.0,-6.369,11.519,2.598,0.247,-1.385,-0.239
1063.0,-6.369,11.519,2.598,0.247,-1.385,-0.239
1067.0,-6.118,11.021,3.221,-0.19,-1.298,0.24
1071.0,-6.118,11.021,3.221,-0.19,-1.298,0.24
1075.0,-6.118,11.021,3.907,-0.19,-1.298,0.24
1079.0,-5.915,10.224,3.907,-0.539,-1.195,0.699
1083.0,-5.915,10.224,3.907,-0.539,-1.195,0.699
1087.0,-6.054,9.513,4.461,-0.775,-1.081,1.121
1090.0,-6.054,9.513,4.461,-0.775,-1.081,1.121
1094.0,-6.054,9.513,4.869,-0.775,-1.081,1.121
1098.0,-6.335,8.752,4.869,-0.882,-0.977,1.527
1102.0,-6.335,8.752,4.869,-0.882,-0.977,1.527
1106.0,-6.483,7.939,5.186,-0.859,-0.897,1.91
1110.0,-6.483,7.939,5.186,-0.859,-0.897,1.91
1114.0,-6.483,7.939,5.186,-0.859,-0.897,1.91
1118.0,-6.535,7.458,5.534,-0.719,-0.816,2.257
1122.0,-6.535,7.458,5.534,-0.719,-0.816,2.257
1126.0,-6.574,7.181,5.853,-0.487,-0.719,2.584
1129.0,-6.574,7.181,5.853,-0.487,-0.719,2.584
1133.0,-6.574,7.181,5.853,-0.487,-0.719,2.584
1137.0,-6.56,7.14,6.216,-0.197,-0.603,2.884
1141.0,-6.56,7.14,6.216,-0.197,-0.603,2.884
1145.0,-6.769,7.503,6.658,0.135,-0.466,3.118
1149.0,-6.769,7.503,6.658,0.135,-0.466,3.118
1153.0,-6.769,7.503,6.658,0.135,-0.466,3.118
1157.0,-7.186,8.361,7.017,0.509,-0.313,3.292
1160.0,-7.186,8.361,7.017,0.509,-0.313,3.292
1164.0,-7.32,9.45,7.385,0.509,-0.143,3.477
1168.0,-7.32,9.45,7.385,0.9,-0.143,3.477
1172.0,-7.32,9.45,7.385,0.9,-0.143,3.477
1176.0,-7.019,10.489,7.962,1.269,0.043,3.701
1179.0,-7.019,10.489,7.962,1.269,0.043,3.701
1183.0,-7.019,11.506,8.631,1.269,0.043,3.701
1187.0,-6.811,11.506,8.631,1.592,0.229,3.942
1191.0,-6.811,11.506,8.631,1.592,0.229,3.942
1195.0,-6.802,12.425,9.3,1.841,0.399,4.203
1199.0,-6.802,12.425,9.3,1.841,0.399,4.203
1202.0,-6.802,12.425,9.3,1.841,0.399,4.203
1206.0,-6.808,13.295,9.892,1.984,0.565,4.506
1210.0,-6.808,13.295,9.892,1.984,0.565,4.506
1214.0,-7.21,13.924,10.584,2.02,0.717,4.853
1218.0,-7.21,13.924,10.584,2.02,0.717,4.853
1222.0,-7.21,13.924,10.584,2.02,0.717,4.853
1226.0,-8.148,14.386,11.274,1.97,0.826,5.01
1229.0,-8.148,14.386,11.274,1.97,0.826,5.01
1233.0,-9.51,14.438,12.52,1.856,0.888,5.013
1237.0,-9.51,14.438,12.52,1.856,0.888,5.013
1241.0,-9.51,14.438,12.52,1.856,0.888,5.013
1245.0,-11.218,14.307,13.82,1.694,0.908,5.013
1249.0,-11.218,14.307,13.82,1.694,0.908,5.013
1253.0,-12.513,14.372,14.783,1.463,0.889,5.013
1257.0,-12.513,14.372,14.783,1.463,0.889,5.013
1261.0,-12.513,14.372,14.783,1.463,0.889,5.013
1265.0,-13.226,14.67,15.134,1.124,0.83,5.013
1269.0,-13.226,14.67,15.134,1.124,0.83,5.013
1273.0,-13.122,14.777,15.025,0.664,0.761,5.013
1277.0,-13.122,14.777,15.025,0.664,0.761,5.013
1281.0,-13.122,14.777,15.025,0.664,0.761,5.013
1285.0,-12.086,14.309,14.757,0.115,0.665,5.013
1289.0,-12.086,14.309,14.757,0.115,0.665,5.013
1293.0,-10.229,13.472,14.416,-0.467,0.486,5.013
1297.0,-10.229,13.472,14.416,-0.467,0.486,5.013
1301.0,-10.229,13.472,14.416,-0.467,0.486,5.013
1305.0,-7.938,12.624,14.234,-1.022,0.247,5.013
1309.0,-7.938,12.624,14.234,-1.022,0.247,5.013
1313.0,-5.512,11.685,13.701,-1.507,0.005,5.013
1317.0,-5.512,11.685,13.701,-1.507,0.005,5.013
1321.0,-5.512,11.685,13.268,-1.507,0.005,5.013
1325.0,-2.952,10.448,13.268,-1.907,-0.175,5.013
1329.0,-2.952,10.448,13.268,-1.907,-0.175,5.013
1333.0,-1.02,8.877,13.411,-2.205,-0.288,5.013
1337.0,-1.02,8.877,13.411,-2.205,-0.288,5.013
1341.0,-0.267,6.701,14.14,-2.205,-0.288,5.013
1345.0,-0.267,6.701,14.14,-2.432,-0.431,5.013
1349.0,-0.267,6.701,14.14,-2.432,-0.431,5.013
1353.0,0.446,4.345,14.221,-2.599,-0.678,5.013
1357.0,0.446,4.345,14.221,-2.599,-0.678,5.013
1361.0,0.849,1.796,14.104,-2.599,-0.678,5.013
1365.0,0.849,1.796,14.104,-2.667,-0.963,5.013
1369.0,0.849,1.796,14.104,-2.667,-0.963,5.013
1373.0,0.997,-1.011,14.02,-2.621,-1.284,5.013
1377.0,0.997,-1.011,14.02,-2.621,-1.284,5.013
1381.0,1.275,-2.692,13.547,-2.621,-1.284,5.013
1385.0,1.275,-2.692,13.547,-2.436,-1.604,5.013
1389.0,1.275,-2.692,13.547,-2.436,-1.604,5.013
1393.0,1.322,-3.679,12.517,-2.124,-1.863,5.013
1397.0,1.322,-3.679,12.517,-2.124,-1.863,5.013
1401.0,1.38,-4.365,11.116,-2.124,-1.863,5.013
1405.0,1.38,-4.365,11.116,-1.764,-2.087,5.013
1409.0,1.38,-4.365,11.116,-1.764,-2.087,5.013
1413.0,1.681,-4.724,9.683,-1.414,-2.294,5.013
1417.0,1.681,-4.724,9.683,-1.414,-2.294,5.013
1421.0,2.112,-5.367,8.863,-1.414,-2.294,5.013
1425.0,2.112,-5.367,8.863,-1.097,-2.496,5.013
1428.0,2.112,-5.367,8.863,-1.097,-2.496,5.013
1432.0,2.574,-6.201,8.343,-0.795,-2.707,5.013
1436.0,2.574,-6.201,8.343,-0.795,-2.707,5.013
1440.0,2.633,-7.104,7.756,-0.795,-2.707,5.013
1444.0,2.633,-7.104,7.756,-0.473,-2.883,5.013
1448.0,2.633,-7.104,7.756,-0.473,-2.883,5.013
1452.0,2.123,-8.417,7.287,-0.156,-2.996,5.013
1456.0,2.123,-8.417,7.287,-0.156,-2.996,5.013
1460.0,2.123,-9.295,6.369,-0.156,-2.996,5.013
1464.0,1.612,-9.295,6.369,0.131,-3.057,5.01
1467.0,1.612,-9.295,6.369,0.131,-3.057,5.01
1471.0,1.268,-10.098,5.419,0.409,-3.029,4.949
1475.0,1.268,-10.098,5.419,0.409,-3.029,4.949
1479.0,1.268,-10.098,5.419,0.409,-3.029,4.949
1483.0,0.702,-11.086,4.135,0.677,-2.909,4.798
1487.0,0.702,-11.086,4.135,0.677,-2.909,4.798
1491.0,-0.237,-11.693,2.481,0.884,-2.697,4.581
1495.0,-0.237,-11.693,2.481,0.884,-2.697,4.581
1499.0,-0.237,-11.693,2.481,0.884,-2.697,4.581
1503.0,-1.173,-12.455,1.376,0.992,-2.403,4.288
1507.0,-1.173,-12.455,1.376,0.992,-2.403,4.288
1511.0,-1.988,-13.125,1.015,0.995,-2.082,3.901
1515.0,-1.988,-13.125,1.015,0.995,-2.082,3.901
1519.0,-1.988,-13.125,0.709,0.995,-2.082,3.901
1523.0,-2.394,-13.37,0.709,0.933,-1.765,3.443
1527.0,-2.394,-13.37,0.709,0.933,-1.765,3.443
1531.0,-2.03,-13.332,0.465,0.852,-1.443,2.972
1535.0,-2.03,-13.332,0.465,0.852,-1.443,2.972
1539.0,-2.03,-12.949,0.147,0.852,-1.443,2.972
1543.0,-0.954,-12.949,0.147,0.785,-1.141,2.511
1547.0,-0.954,-12.949,0.147,0.785,-1.141,2.511
1551.0,0.577,-12.289,-0.026,0.756,-0.877,2.088
1555.0,0.577,-12.289,-0.026,0.756,-0.877,2.088
1559.0,2.258,-11.538,-0.042,0.756,-0.877,2.088
1563.0,2.258,-11.538,-0.042,0.768,-0.642,1.722
1567.0,2.258,-11.538,-0.042,0.768,-0.642,1.722
1571.0,3.738,-10.746,0.267,0.811,-0.437,1.422
1575.0,3.738,-10.746,0.267,0.811,-0.437,1.422
1578.0,4.829,-9.989,0.742,0.811,-0.437,1.422
1582.0,4.829,-9.989,0.742,0.866,-0.275,1.181
1586.0,4.829,-9.989,0.742,0.866,-0.275,1.181
1590.0,5.571,-9.337,1.182,0.914,-0.178,0.982
1594.0,5.571,-9.337,1.182,0.914,-0.178,0.982
1598.0,5.571,-9.337,1.182,0.914,-0.178,0.982
1601.0,6.239,-8.842,1.326,0.962,-0.129,0.808
1605.0,6.239,-8.842,1.326,0.962,-0.129,0.808
1609.0,6.766,-8.338,1.38,1.025,-0.087,0.662
1613.0,6.766,-8.338,1.38,1.025,-0.087,0.662
1617.0,6.766,-8.338,1.38,1.025,-0.087,0.662
1620.0,7.042,-7.747,1.611,1.099,-0.033,0.55
1624.0,7.042,-7.747,1.611,1.099,-0.033,0.55
1628.0,7.276,-7.266,1.949,1.099,0.019,0.461
1632.0,7.276,-7.266,1.949,1.161,0.019,0.461
1636.0,7.276,-7.266,1.949,1.161,0.019,0.461
1639.0,7.503,-6.753,2.258,1.197,0.067,0.379
1643.0,7.503,-6.753,2.258,1.197,0.067,0.379
1647.0,7.503,-6.753,2.258,1.197,0.067,0.379
1650.0,7.7,-6.271,2.558,1.196,0.118,0.303
1654.0,7.7,-6.271,2.558,1.196,0.118,0.303
1658.0,7.828,-5.888,2.798,1.161,0.177,0.237
1662.0,7.828,-5.888,2.798,1.161,0.177,0.237
1665.0,7.828,-5.888,2.798,1.161,0.177,0.237
1669.0,7.785,-5.553,2.992,1.101,0.245,0.18
1673.0,7.785,-5.553,2.992,1.101,0.245,0.18
1677.0,7.785,-5.553,3.095,1.101,0.245,0.18
1680.0,7.667,-5.308,3.095,1.016,0.311,0.134
1684.0,7.667,-5.308,3.095,1.016,0.311,0.134
1688.0,7.454,-5.129,3.226,0.911,0.374,0.099
1692.0,7.454,-5.129,3.226,0.911,0.374,0.099
1695.0,7.454,-5.129,3.226,0.911,0.374,0.099
1699.0,7.137,-4.996,3.384,0.799,0.416,0.072
1703.0,7.137,-4.996,3.384,0.799,0.416,0.072
1706.0,7.137,-4.887,3.525,0.799,0.416,0.072
1710.0,6.843,-4.887,3.525,0.702,0.436,0.063
1714.0,6.843,-4.887,3.525,0.702,0.436,0.063
1718.0,6.595,-4.792,3.732,0.632,0.441,0.068
1721.0,6.595,-4.792,3.732,0.632,0.441,0.068
1725.0,6.595,-4.792,3.732,0.632,0.441,0.068
1729.0,6.266,-4.68,3.864,0.59,0.421,0.079
1733.0,6.266,-4.68,3.864,0.59,0.421,0.079
1736.0,5.954,-4.513,3.876,0.59,0.421,0.079
1740.0,5.954,-4.513,3.876,0.563,0.395,0.092
1744.0,5.954,-4.513,3.876,0.563,0.395,0.092
1748.0,5.75,-4.371,4.006,0.542,0.379,0.108
1751.0,5.75,-4.371,4.006,0.542,0.379,0.108
1755.0,5.75,-4.371,4.006,0.542,0.379,0.108
1759.0,5.517,-4.249,4.125,0.521,0.359,0.118
1762.0,5.517,-4.249,4.125,0.521,0.359,0.118
1766.0,5.176,-4.157,4.1,0.521,0.359,0.112
1770.0,5.176,-4.157,4.1,0.493,0.322,0.112
1774.0,5.176,-4.157,4.1,0.493,0.322,0.112
1777.0,4.872,-4.12,4.051,0.441,0.291,0.093
1781.0,4.872,-4.12,4.051,0.441,0.291,0.093
1785.0,4.872,-4.12,4.051,0.441,0.291,0.093
1789.0,4.63,-4.064,4.093,0.364,0.282,0.069
1792.0,4.63,-4.064,4.093,0.364,0.282,0.069
1796.0,4.443,-3.999,4.089,0.275,0.272,0.043
1800.0,4.443,-3.999,4.089,0.275,0.272,0.043
1804.0,4.443,-3.999,4.089,0.275,0.272,0.043
1807.0,4.365,-3.885,3.884,0.18,0.263,0.006
1811.0,4.365,-3.885,3.884,0.18,0.263,0.006
1815.0,4.365,-3.885,3.884,0.18,0.263,0.006
1818.0,4.515,-3.811,3.763,0.08,0.285,-0.027
1822.0,4.515,-3.811,3.763,0.08,0.285,-0.027
1826.0,4.691,-3.788,3.925,-0.015,0.339,-0.048
1830.0,4.691,-3.788,3.925,-0.015,0.339,-0.048
1834.0,4.691,-3.788,3.925,-0.015,0.339,-0.048
1838.0,4.688,-3.747,4.122,-0.091,0.377,-0.063
1842.0,4.688,-3.747,4.122,-0.091,0.377,-0.063
1846.0,4.528,-3.637,4.116,-0.145,0.39,-0.086
1850.0,4.528,-3.637,4.116,-0.145,0.39,-0.086
1853.0,4.528,-3.637,4.116,-0.145,0.39,-0.086
1857.0,4.506,-3.583,4.085,-0.179,0.404,-0.102
1861.0,4.506,-3.583,4.085,-0.179,0.404,-0.102
1865.0,4.615,-3.633,4.121,-0.174,0.424,-0.102
1869.0,4.615,-3.633,4.121,-0.174,0.424,-0.102
1873.0,4.615,-3.633,4.121,-0.174,0.424,-0.102
1877.0,4.664,-3.653,4.03,-0.116,0.434,-0.086
1881.0,4.664,-3.653,4.03,-0.116,0.434,-0.086
1885.0,4.731,-3.592,3.836,-0.116,0.448,-0.062
1889.0,4.731,-3.592,3.836,-0.011,0.448,-0.062
1893.0,4.731,-3.592,3.836,-0.011,0.448,-0.062
1896.0,4.776,-3.409,3.634,0.117,0.478,-0.027
1900.0,4.776,-3.409,3.634,0.117,0.478,-0.027
1904.0,4.821,-3.175,3.486,0.117,0.478,-0.027
1908.0,4.821,-3.175,3.486,0.244,0.519,0.026
1912.0,4.821,-3.175,3.486,0.244,0.519,0.026
1915.0,4.853,-2.928,3.483,0.353,0.581,0.098
1919.0,4.853,-2.928,3.483,0.353,0.581,0.098
1923.0,4.853,-2.928,3.483,0.353,0.581,0.098
1927.0,4.841,-2.724,3.568,0.447,0.649,0.188
1930.0,4.841,-2.724,3.568,0.447,0.649,0.188
1934.0,4.824,-2.466,3.634,0.447,0.649,0.283
1938.0,4.824,-2.466,3.634,0.524,0.709,0.283
1941.0,4.824,-2.466,3.634,0.524,0.709,0.283
1945.0,4.916,-2.203,3.71,0.581,0.768,0.381
1949.0,4.916,-2.203,3.71,0.581,0.768,0.381
1953.0,4.916,-2.203,3.71,0.581,0.768,0.381
1956.0,5.07,-1.947,3.89,0.621,0.822,0.483
1960.0,5.07,-1.947,3.89,0.621,0.822,0.483
1964.0,5.193,-1.712,4.025,0.653,0.859,0.583
1968.0,5.193,-1.712,4.025,0.653,0.859,0.583
1971.0,5.193,-1.712,4.025,0.653,0.859,0.583
1975.0,5.136,-1.327,4.022,0.675,0.878,0.682
1979.0,5.136,-1.327,4.022,0.675,0.878,0.682
1983.0,5.136,-1.327,4.022,0.675,0.878,0.682
1986.0,4.973,-0.761,4.04,0.687,0.898,0.811
1990.0,4.973,-0.761,4.04,0.687,0.898,0.811
1994.0,4.868,-0.176,4.033,0.698,0.922,1.008
1997.0,4.868,-0.176,4.033,0.698,0.922,1.008
2001.0,4.868,-0.176,4.033,0.698,0.922,1.008
2005.0,4.92,0.154,4.083,0.708,0.948,1.283
2009.0,4.92,0.154,4.083,0.708,0.948,1.283
2012.0,4.92,0.154,4.083,0.708,0.948,1.283
2016.0,5.054,0.147,4.243,0.698,0.988,1.612
2019.0,5.054,0.147,4.243,0.698,0.988,1.612
2023.0,4.965,-0.162,4.447,0.646,1.055,1.956
2027.0,4.965,-0.162,4.447,0.646,1.055,1.956
2031.0,4.965,-0.162,4.447,0.646,1.055,1.956
2034.0,4.416,-0.579,4.759,0.526,1.136,2.262
2038.0,4.416,-0.579,4.759,0.526,1.136,2.262
2042.0,4.416,-0.579,4.759,0.526,1.136,2.262
2046.0,3.505,-1.106,5.158,0.319,1.218,2.495
2049.0,3.505,-1.106,5.158,0.319,1.218,2.495
2053.0,2.362,-1.67,5.462,0.019,1.306,2.656
2057.0,2.362,-1.67,5.462,0.019,1.306,2.656
2060.0,2.362,-1.67,5.462,0.019,1.306,2.656
2064.0,1.004,-2.093,5.483,-0.367,1.43,2.77
2068.0,1.004,-2.093,5.483,-0.367,1.43,2.77
2072.0,-0.51,-2.414,5.38,-0.367,1.43,2.77
2076.0,-0.51,-2.414,5.38,-0.817,1.616,2.868
2080.0,-0.51,-2.414,5.38,-0.817,1.616,2.868
2084.0,-2.129,-2.521,5.518,-1.307,1.854,2.954
2087.0,-2.129,-2.521,5.518,-1.307,1.854,2.954
2091.0,-2.129,-2.521,6.704,-1.307,1.854,2.954
2095.0,-3.543,-2.437,6.704,-1.8,2.078,3.041
2099.0,-3.543,-2.437,6.704,-1.8,2.078,3.041
2103.0,-4.464,-2.453,8.71,-2.221,2.182,3.189
2107.0,-4.464,-2.453,8.71,-2.221,2.182,3.189
2111.0,-4.464,-2.453,8.71,-2.221,2.182,3.189
2115.0,-4.889,-2.752,9.784,-2.494,2.116,3.451
2119.0,-4.889,-2.752,9.784,-2.494,2.116,3.451
2123.0,-5.287,-3.445,10.027,-2.601,1.999,3.805
2127.0,-5.287,-3.445,10.027,-2.601,1.999,3.805
2131.0,-5.287,-3.445,10.027,-2.601,1.999,3.805
2135.0,-5.879,-4.813,9.895,-2.531,1.883,4.147
2139.0,-5.879,-4.813,9.895,-2.531,1.883,4.147
2142.0,-6.264,-6.592,8.701,-2.297,1.756,4.367
2146.0,-6.264,-6.592,8.701,-2.297,1.756,4.367
2150.0,-6.264,-6.592,8.701,-2.297,1.756,4.367
2154.0,-6.778,-8.08,7.137,-1.917,1.62,4.45
2158.0,-6.778,-8.08,7.137,-1.917,1.62,4.45
2162.0,-7.117,-8.364,5.911,-1.461,1.454,4.445
2166.0,-7.117,-8.364,5.911,-1.461,1.454,4.445
2170.0,-7.117,-8.364,5.911,-1.461,1.454,4.445
2174.0,-7.102,-7.721,4.831,-0.959,1.353,4.46
2178.0,-7.102,-7.721,4.831,-0.959,1.353,4.46
2181.0,-6.921,-7.396,4.395,-0.384,1.423,4.548
2185.0,-6.921,-7.396,4.395,-0.384,1.423,4.548
2189.0,-6.921,-7.396,4.395,-0.384,1.423,4.548
2193.0,-7.108,-7.661,5.42,0.342,1.639,4.667
2197.0,-7.108,-7.661,5.42,0.342,1.639,4.667
2201.0,-7.519,-8.322,6.165,1.288,1.856,4.746
2205.0,-7.519,-8.322,6.165,1.288,1.856,4.746
2208.0,-7.519,-8.322,6.165,1.288,1.856,4.746
2212.0,-8.59,-8.572,7.279,2.424,2.043,4.719
2216.0,-8.59,-8.572,7.279,2.424,2.043,4.719
2220.0,-9.15,-8.794,6.945,2.424,2.043,4.719
2224.0,-9.15,-8.794,6.945,3.647,2.15,4.619
2228.0,-9.15,-8.794,6.945,3.647,2.15,4.619
2231.0,-9.097,-8.373,5.773,4.71,2.266,4.452
2235.0,-9.097,-8.373,5.773,4.71,2.266,4.452
2239.0,-9.097,-8.373,5.773,4.71,2.266,4.452
2243.0,-8.549,-7.574,4.192,4.994,2.504,4.231
2247.0,-8.549,-7.574,4.192,4.994,2.504,4.231
2250.0,-7.697,-6.79,3.041,4.995,2.886,3.96
2254.0,-7.697,-6.79,3.041,4.995,2.886,3.96
2258.0,-7.697,-6.79,3.041,4.995,2.886,3.96
2262.0,-7.025,-6.101,2.093,4.995,3.375,3.624
2266.0,-7.025,-6.101,2.093,4.995,3.375,3.624
2270.0,-6.785,-5.267,1.011,4.995,3.375,3.199
2273.0,-6.785,-5.267,1.011,4.995,3.936,3.199
2277.0,-6.785,-5.267,1.011,4.995,3.936,3.199
2281.0,-7.167,-4.555,0.255,4.995,4.549,2.7
2285.0,-7.167,-4.555,0.255,4.995,4.549,2.7
2289.0,-7.167,-4.555,-0.476,4.995,4.549,2.7
2293.0,-8.235,-3.882,-0.476,4.995,4.975,2.143
2296.0,-8.235,-3.882,-0.476,4.995,4.975,2.143
2300.0,-9.955,-3.287,-1.09,4.995,5.015,1.568
2304.0,-9.955,-3.287,-1.09,4.995,5.015,1.568
2308.0,-9.955,-3.287,-1.09,4.995,5.015,1.568
2312.0,-12.583,-2.67,-0.925,4.995,5.015,0.982
2316.0,-12.583,-2.67,-0.925,4.995,5.015,0.982
2320.0,-15.472,-1.648,-0.584,4.995,5.015,0.403
2324.0,-15.472,-1.648,-0.584,4.995,5.015,0.403
2328.0,-15.472,-1.648,-0.584,4.995,5.015,0.403
2332.0,-17.425,-0.44,-0.54,4.995,5.015,-0.086
2336.0,-17.425,-0.44,-0.54,4.995,5.015,-0.086
2340.0,-18.067,0.602,-0.689,4.995,5.015,-0.458
2344.0,-18.067,0.602,-0.689,4.995,5.015,-0.458
2348.0,-18.118,1.314,-1.023,4.995,5.015,-0.458
2352.0,-18.118,1.314,-1.023,4.995,5.015,-0.776
2356.0,-18.118,1.314,-1.023,4.995,5.015,-0.776
2360.0,-18.281,2.117,-1.759,4.995,5.015,-1.095
2364.0,-18.281,2.117,-1.759,4.995,5.015,-1.095
2368.0,-18.772,2.658,-2.396,4.995,5.015,-1.413
2372.0,-18.772,2.658,-2.396,4.995,5.015,-1.413
2376.0,-18.772,2.658,-2.396,4.995,5.015,-1.413
2380.0,-19.365,3.332,-2.478,4.995,5.015,-1.782
2384.0,-19.365,3.332,-2.478,4.995,5.015,-1.782
2388.0,-19.582,4.353,-2.048,4.995,5.015,-2.181
2392.0,-19.582,4.353,-2.048,4.995,5.015,-2.181
2396.0,-19.582,4.353,-2.048,4.995,5.015,-2.181
2400.0,-19.6,5.495,-1.554,4.995,5.015,-2.52
2404.0,-19.6,5.495,-1.554,4.995,5.015,-2.52
2408.0,-19.565,6.455,-1.259,4.995,5.0,-2.767
2412.0,-19.565,6.455,-1.259,4.995,5.0,-2.767
2416.0,-19.565,6.455,-1.259,4.995,5.0,-2.767
2420.0,-19.248,7.799,-1.057,4.995,4.693,-2.947
2424.0,-19.248,7.799,-1.057,4.995,4.693,-2.947
2428.0,-18.468,9.296,-0.632,4.995,4.102,-3.053
2432.0,-18.468,9.296,-0.632,4.995,4.102,-3.053
2436.0,-18.468,9.296,-0.632,4.995,4.102,-3.053
2440.0,-17.593,10.244,-1.195,4.995,3.521,-3.084
2444.0,-17.593,10.244,-1.195,4.995,3.521,-3.084
2448.0,-16.695,11.149,-1.606,4.957,3.015,-3.056
2452.0,-16.695,11.149,-1.606,4.957,3.015,-3.056
2456.0,-16.695,11.149,-1.606,4.957,3.015,-3.056
2460.0,-15.849,11.204,-1.738,4.43,2.607,-2.984
2465.0,-15.849,11.204,-1.738,4.43,2.607,-2.984
2469.0,-14.985,10.769,-1.586,3.572,2.321,-2.891
2473.0,-14.985,10.769,-1.586,3.572,2.321,-2.891
2477.0,-14.418,10.153,-1.331,3.572,2.321,-2.804
2481.0,-14.418,10.153,-1.331,2.726,2.124,-2.804
2485.0,-14.418,10.153,-1.331,2.726,2.124,-2.804
2489.0,-14.171,9.307,-0.967,1.912,1.99,-2.709
2493.0,-14.171,9.307,-0.967,1.912,1.99,-2.709
2497.0,-13.72,8.374,-0.552,1.173,1.884,-2.629
2501.0,-13.72,8.374,-0.552,1.173,1.884,-2.629
2505.0,-13.72,8.374,-0.552,1.173,1.884,-2.629
2509.0,-13.275,7.596,-0.142,0.54,1.765,-2.589
2513.0,-13.275,7.596,-0.142,0.54,1.765,-2.589
2517.0,-12.956,6.992,0.195,0.006,1.618,-2.543
2521.0,-12.956,6.992,0.195,0.006,1.618,-2.543
2525.0,-12.956,6.992,0.195,0.006,1.618,-2.543
2529.0,-12.467,6.999,0.477,-0.442,1.442,-2.466
2533.0,-12.467,6.999,0.477,-0.442,1.442,-2.466
2537.0,-11.475,6.642,0.552,-0.891,1.239,-2.341
2541.0,-11.475,6.642,0.552,-0.891,1.239,-2.341
2545.0,-11.475,6.642,0.552,-0.891,1.239,-2.341
2549.0,-10.523,6.495,0.499,-1.309,1.051,-2.23
2553.0,-10.523,6.495,0.499,-1.309,1.051,-2.23
2557.0,-9.955,7.851,0.251,-1.698,0.902,-2.105
2561.0,-9.955,7.851,0.251,-1.698,0.902,-2.105
2564.0,-9.955,7.851,0.251,-1.698,0.902,-2.105
2568.0,-11.09,16.216,0.144,-2.311,0.766,-1.822
2572.0,-11.09,16.216,0.144,-2.311,0.766,-1.822
2577.0,-15.523,19.592,-0.927,-3.842,0.544,-1.051
2581.0,-15.523,19.592,-0.927,-3.842,0.544,-1.051
2585.0,-15.523,19.592,-1.988,-3.842,0.544,-1.051
2589.0,-9.326,15.258,-1.988,-4.972,0.334,-0.499
2593.0,-9.326,15.258,-1.988,-4.972,0.334,-0.499
2597.0,-2.713,4.753,-0.945,-5.013,0.329,-0.815
2601.0,-2.713,4.753,-0.945,-5.013,0.329,-0.815
2605.0,-1.6,1.351,-1.241,-5.013,0.329,-0.976
2609.0,-1.6,1.351,-1.241,-5.013,0.402,-0.976
2613.0,-1.6,1.351,-1.241,-5.013,0.402,-0.976
2617.0,-2.311,0.782,-1.432,-5.013,0.607,-0.944
2621.0,-2.311,0.782,-1.432,-5.013,0.607,-0.944
2625.0,-3.64,0.904,-1.207,-5.013,0.885,-0.867
2629.0,-3.64,0.904,-1.207,-5.013,0.885,-0.867
2633.0,-3.64,0.904,-1.207,-5.013,0.885,-0.867
2637.0,-4.883,1.253,-0.62,-5.013,1.127,-0.777
2641.0,-4.883,1.253,-0.62,-5.013,1.127,-0.777
2645.0,-6.252,1.385,0.009,-5.011,1.257,-0.677
2649.0,-6.252,1.385,0.009,-5.011,1.257,-0.677
2653.0,-6.252,1.385,0.009,-5.011,1.257,-0.677
2657.0,-8.71,1.374,0.969,-4.92,1.268,-0.555
2661.0,-8.71,1.374,0.969,-4.92,1.268,-0.555
2665.0,-12.434,1.825,1.66,-4.92,1.16,-0.393
2669.0,-12.434,1.825,1.66,-4.65,1.16,-0.393
2673.0,-12.434,1.825,1.66,-4.65,1.16,-0.393
2677.0,-16.32,2.056,1.665,-4.279,0.934,-0.102
2681.0,-16.32,2.056,1.665,-4.279,0.934,-0.102
2685.0,-17.685,1.658,1.318,-3.855,0.617,0.332
2688.0,-17.685,1.658,1.318,-3.855,0.617,0.332
2692.0,-17.685,1.658,1.318,-3.855,0.617,0.332
2696.0,-16.532,1.115,1.033,-3.418,0.292,0.806
2700.0,-16.532,1.115,1.033,-3.418,0.292,0.806
2704.0,-15.069,0.401,0.625,-3.418,0.062,1.224
2708.0,-15.069,0.401,0.625,-2.978,0.062,1.224
2712.0,-15.069,0.401,0.625,-2.978,0.062,1.224
2716.0,-14.523,-0.312,0.27,-2.533,-0.021,1.527
2720.0,-14.523,-0.312,0.27,-2.533,-0.021,1.527
2724.0,-15.025,-0.859,0.078,-2.074,-0.002,1.7
2728.0,-15.025,-0.859,0.078,-2.074,-0.002,1.7
2732.0,-15.025,-0.859,0.078,-2.074,-0.002,1.7
2736.0,-15.77,-1.111,0.109,-1.607,0.048,1.785
2740.0,-15.77,-1.111,0.109,-1.607,0.048,1.785
2744.0,-16.122,-1.068,0.331,-1.141,0.088,1.844
2748.0,-16.122,-1.068,0.331,-1.141,0.088,1.844
2752.0,-16.122,-1.068,0.331,-1.141,0.088,1.844
2756.0,-16.398,-0.972,0.878,-0.676,0.117,1.917
2760.0,-16.398,-0.972,0.878,-0.676,0.117,1.917
2764.0,-16.859,-0.986,1.555,-0.205,0.132,1.998
2768.0,-16.859,-0.986,1.555,-0.205,0.132,1.998
2772.0,-16.859,-0.986,1.555,-0.205,0.132,1.998
2776.0,-17.252,-0.916,2.143,0.273,0.116,2.068
2780.0,-17.252,-0.916,2.143,0.273,0.116,2.068
2784.0,-17.052,-0.831,2.492,0.748,0.045,2.113
2788.0,-17.052,-0.831,2.492,0.748,0.045,2.113
2792.0,-17.052,-0.831,2.492,0.748,0.045,2.113
2796.0,-16.279,-0.909,2.534,1.2,-0.083,2.109
2800.0,-16.279,-0.909,2.534,1.2,-0.083,2.109
2804.0,-15.098,-0.911,2.496,1.628,-0.248,2.022
2808.0,-15.098,-0.911,2.496,1.628,-0.248,2.022
2812.0,-15.098,-0.911,2.496,1.628,-0.248,2.022
2816.0,-13.583,-0.794,2.405,2.038,-0.448,1.867
2820.0,-13.583,-0.794,2.405,2.038,-0.448,1.867
2824.0,-11.947,-0.578,2.208,2.421,-0.683,1.679
2828.0,-11.947,-0.578,2.208,2.421,-0.683,1.679
2832.0,-11.947,-0.578,1.78,2.421,-0.683,1.679
2836.0,-10.445,-0.217,1.78,2.763,-0.942,1.493
2840.0,-10.445,-0.217,1.78,2.763,-0.942,1.493
2844.0,-9.211,0.221,1.117,3.046,-1.195,1.34
2847.0,-9.211,0.221,1.117,3.046,-1.195,1.34
2851.0,-9.211,0.221,1.117,3.046,-1.195,1.34
2855.0,-8.325,0.599,0.366,3.245,-1.414,1.239
2859.0,-8.325,0.599,0.366,3.245,-1.414,1.239
2863.0,-7.85,0.775,-0.336,3.342,-1.585,1.186
2867.0,-7.85,0.775,-0.336,3.342,-1.585,1.186
2871.0,-7.85,0.775,-0.336,3.342,-1.585,1.186
2874.0,-7.952,0.754,-1.047,3.329,-1.709,1.156
2878.0,-7.952,0.754,-1.047,3.329,-1.709,1.156
2882.0,-8.706,0.69,-1.798,3.209,-1.797,1.133
2886.0,-8.706,0.69,-1.798,3.209,-1.797,1.133
2890.0,-8.706,0.69,-1.798,3.209,-1.797,1.133
2894.0,-9.799,0.585,-2.497,2.988,-1.87,1.118
2898.0,-9.799,0.585,-2.497,2.988,-1.87,1.118
2902.0,-10.794,0.38,-3.022,2.671,-1.955,1.117
2906.0,-10.794,0.38,-3.022,2.671,-1.955,1.117
2910.0,-10.794,0.38,-3.022,2.671,-1.955,1.117
2914.0,-11.338,0.06,-3.516,2.266,-2.057,1.122
2918.0,-11.338,0.06,-3.516,2.266,-2.057,1.122
2922.0,-11.42,-0.299,-3.744,1.794,-2.145,1.119
2926.0,-11.42,-0.299,-3.744,1.794,-2.145,1.119
2930.0,-11.42,-0.299,-3.744,1.794,-2.145,1.119
2934.0,-11.302,-0.65,-3.72,1.289,-2.205,1.104
2938.0,-11.302,-0.65,-3.72,1.289,-2.205,1.104
2942.0,-11.219,-0.901,-3.62,0.788,-2.234,1.082
2946.0,-11.219,-0.901,-3.62,0.788,-2.234,1.082
2950.0,-11.219,-1.232,-3.455,0.788,-2.234,1.082
2954.0,-11.24,-1.232,-3.455,0.32,-2.236,1.059
2958.0,-11.24,-1.232,-3.455,0.32,-2.236,1.059
2963.0,-11.267,-1.57,-3.3,-0.099,-2.219,1.018
2967.0,-11.267,-1.57,-3.3,-0.099,-2.219,1.018
2971.0,-10.99,-1.89,-3.092,-0.457,-2.193,0.953
2975.0,-10.99,-1.89,-3.092,-0.457,-2.193,0.953
2979.0,-10.99,-1.89,-3.092,-0.457,-2.193,0.953
2983.0,-10.592,-2.235,-2.913,-0.751,-2.177,0.862
2988.0,-10.592,-2.235,-2.913,-0.751,-2.177,0.862
2992.0,-10.43,-2.584,-3.07,-0.975,-2.169,0.739
2996.0,-10.43,-2.584,-3.07,-0.975,-2.169,0.739
3000.0,-10.685,-2.911,-3.393,-0.975,-2.169,0.588
