deltaTime,Acc_X,Acc_Y,Acc_Z,Gyro_X,Gyro_Y,Gyro_Z
0.0,-6.953,-2.867,3.194,0.642,-0.021,-0.228
3.0,-6.724,-3.014,3.0,0.629,-0.013,-0.23
6.0,-6.724,-3.014,3.0,0.629,-0.013,-0.23
9.0,-6.724,-3.014,3.0,0.629,-0.013,-0.23
12.0,-6.481,-3.154,2.754,0.646,-0.012,-0.234
15.0,-6.481,-3.154,2.754,0.646,-0.012,-0.234
18.0,-6.481,-3.154,2.754,0.646,-0.012,-0.234
21.0,-6.481,-3.165,2.372,0.646,-0.012,-0.234
24.0,-6.127,-3.165,2.372,0.691,-0.004,-0.242
27.0,-6.127,-3.165,2.372,0.691,-0.004,-0.242
30.0,-6.127,-3.165,2.372,0.691,-0.004,-0.242
33.0,-5.81,-3.117,2.051,0.74,0.018,-0.251
37.0,-5.81,-3.117,2.051,0.74,0.018,-0.251
41.0,-5.81,-3.22,1.822,0.74,0.018,-0.251
45.0,-5.578,-3.22,1.822,0.789,0.007,-0.266
48.0,-5.578,-3.22,1.822,0.789,0.007,-0.266
52.0,-5.179,-3.042,1.606,0.814,0.007,-0.281
56.0,-5.179,-3.042,1.606,0.814,0.007,-0.281
60.0,-5.179,-3.042,1.606,0.814,0.007,-0.281
63.0,-5.481,-2.777,1.427,0.779,0.146,-0.279
67.0,-5.481,-2.777,1.427,0.779,0.146,-0.279
71.0,-5.378,-2.926,1.43,0.779,0.146,-0.279
75.0,-5.378,-2.926,1.43,0.707,0.173,-0.287
78.0,-5.378,-2.926,1.43,0.707,0.173,-0.287
82.0,-5.387,-2.818,1.521,0.62,0.243,-0.293
86.0,-5.387,-2.818,1.521,0.62,0.243,-0.293
89.0,-5.387,-2.818,1.521,0.62,0.243,-0.293
93.0,-5.361,-2.908,1.774,0.521,0.29,-0.312
97.0,-5.361,-2.908,1.774,0.521,0.29,-0.312
101.0,-5.344,-3.173,2.141,0.521,0.29,-0.336
104.0,-5.344,-3.173,2.141,0.438,0.336,-0.336
108.0,-5.344,-3.173,2.141,0.438,0.336,-0.336
112.0,-5.311,-3.493,2.576,0.414,0.377,-0.361
116.0,-5.311,-3.493,2.576,0.414,0.377,-0.361
120.0,-5.311,-3.493,2.896,0.414,0.377,-0.361
124.0,-5.457,-3.736,2.896,0.452,0.408,-0.379
127.0,-5.457,-3.736,2.896,0.452,0.408,-0.379
131.0,-5.749,-3.765,2.959,0.526,0.423,-0.394
135.0,-5.749,-3.765,2.959,0.526,0.423,-0.394
139.0,-5.749,-3.765,2.959,0.526,0.423,-0.394
143.0,-5.947,-3.724,2.943,0.597,0.435,-0.403
146.0,-5.947,-3.724,2.943,0.597,0.435,-0.403
150.0,-5.917,-3.652,2.887,0.656,0.449,-0.407
154.0,-5.917,-3.652,2.887,0.656,0.449,-0.407
158.0,-5.917,-3.652,2.887,0.656,0.449,-0.407
162.0,-5.82,-3.65,2.836,0.712,0.466,-0.403
166.0,-5.82,-3.65,2.836,0.712,0.466,-0.403
169.0,-5.798,-3.625,2.79,0.712,0.466,-0.403
173.0,-5.798,-3.625,2.79,0.773,0.485,-0.393
177.0,-5.798,-3.625,2.79,0.773,0.485,-0.393
181.0,-5.871,-3.476,2.818,0.829,0.506,-0.372
185.0,-5.871,-3.476,2.818,0.829,0.506,-0.372
189.0,-5.871,-3.476,2.818,0.829,0.506,-0.372
192.0,-5.958,-3.266,2.923,0.857,0.527,-0.344
196.0,-5.958,-3.266,2.923,0.857,0.527,-0.344
200.0,-6.119,-3.132,3.123,0.85,0.545,-0.301
204.0,-6.119,-3.132,3.123,0.85,0.545,-0.301
208.0,-6.119,-3.132,3.123,0.85,0.545,-0.301
211.0,-6.385,-3.057,3.408,0.82,0.57,-0.244
215.0,-6.385,-3.057,3.408,0.82,0.57,-0.244
219.0,-6.667,-2.988,3.776,0.82,0.57,-0.176
223.0,-6.667,-2.988,3.776,0.77,0.605,-0.176
227.0,-6.667,-2.988,3.776,0.77,0.605,-0.176
231.0,-6.966,-2.88,4.269,0.691,0.647,-0.104
234.0,-6.966,-2.88,4.269,0.691,0.647,-0.104
238.0,-6.966,-2.88,4.744,0.691,0.647,-0.104
242.0,-7.467,-2.985,4.744,0.572,0.691,-0.034
246.0,-7.467,-2.985,4.744,0.572,0.691,-0.034
250.0,-8.404,-3.499,5.172,0.46,0.725,0.041
253.0,-8.404,-3.499,5.172,0.46,0.725,0.041
257.0,-8.404,-3.499,5.172,0.46,0.725,0.041
261.0,-9.531,-3.927,5.541,0.426,0.72,0.125
265.0,-9.531,-3.927,5.541,0.426,0.72,0.125
268.0,-10.468,-4.157,5.81,0.426,0.72,0.125
272.0,-10.468,-4.157,5.81,0.472,0.669,0.211
276.0,-10.468,-4.157,5.81,0.472,0.669,0.211
280.0,-10.702,-4.391,5.975,0.532,0.593,0.293
284.0,-10.702,-4.391,5.975,0.532,0.593,0.293
287.0,-10.702,-4.391,5.975,0.532,0.593,0.293
291.0,-10.906,-4.542,5.861,0.573,0.525,0.36
295.0,-10.906,-4.542,5.861,0.573,0.525,0.36
299.0,-11.083,-4.689,5.702,0.602,0.477,0.422
303.0,-11.083,-4.689,5.702,0.602,0.477,0.422
306.0,-11.083,-4.689,5.702,0.602,0.477,0.422
310.0,-10.985,-4.877,5.584,0.634,0.462,0.49
314.0,-10.985,-4.877,5.584,0.634,0.462,0.49
318.0,-11.015,-5.223,5.474,0.634,0.466,0.56
322.0,-11.015,-5.223,5.474,0.674,0.466,0.56
326.0,-11.015,-5.223,5.474,0.674,0.466,0.56
329.0,-11.291,-5.553,5.313,0.723,0.478,0.627
333.0,-11.291,-5.553,5.313,0.723,0.478,0.627
337.0,-11.291,-5.646,5.063,0.723,0.478,0.627
341.0,-11.449,-5.646,5.063,0.763,0.504,0.696
345.0,-11.449,-5.646,5.063,0.763,0.504,0.696
348.0,-11.758,-5.625,4.78,0.77,0.553,0.761
352.0,-11.758,-5.625,4.78,0.77,0.553,0.761
356.0,-11.758,-5.625,4.78,0.77,0.553,0.761
360.0,-12.302,-5.527,4.52,0.747,0.596,0.818
364.0,-12.302,-5.527,4.52,0.747,0.596,0.818
368.0,-12.59,-5.375,4.373,0.711,0.614,0.879
371.0,-12.59,-5.375,4.373,0.711,0.614,0.879
375.0,-12.59,-5.375,4.373,0.711,0.614,0.879
379.0,-12.156,-5.149,4.251,0.671,0.615,0.928
383.0,-12.156,-5.149,4.251,0.671,0.615,0.928
387.0,-11.543,-4.905,4.123,0.671,0.615,0.928
391.0,-11.543,-4.905,4.123,0.636,0.611,0.935
394.0,-11.543,-4.905,4.123,0.636,0.611,0.935
398.0,-11.061,-4.706,4.075,0.614,0.604,0.893
402.0,-11.061,-4.706,4.075,0.614,0.604,0.893
406.0,-11.061,-4.706,4.075,0.614,0.604,0.893
410.0,-10.587,-4.665,3.924,0.606,0.594,0.804
413.0,-10.587,-4.665,3.924,0.606,0.594,0.804
417.0,-9.988,-4.798,3.645,0.631,0.581,0.693
421.0,-9.988,-4.798,3.645,0.631,0.581,0.693
425.0,-9.988,-4.798,3.645,0.631,0.581,0.693
428.0,-9.633,-4.831,3.218,0.706,0.559,0.574
432.0,-9.633,-4.831,3.218,0.706,0.559,0.574
436.0,-9.576,-5.04,2.629,0.706,0.559,0.574
440.0,-9.576,-5.04,2.629,0.812,0.507,0.442
443.0,-9.576,-5.04,2.629,0.812,0.507,0.442
447.0,-9.977,-4.817,2.096,0.955,0.439,0.359
451.0,-9.977,-4.817,2.096,0.955,0.439,0.359
455.0,-9.977,-4.817,2.096,0.955,0.439,0.359
458.0,-10.592,-3.937,1.67,1.034,0.41,0.31
462.0,-10.592,-3.937,1.67,1.034,0.41,0.31
466.0,-11.258,-3.663,1.582,1.034,0.455,0.292
470.0,-11.258,-3.663,1.582,0.966,0.455,0.292
474.0,-11.258,-3.663,1.582,0.966,0.455,0.292
477.0,-11.835,-3.645,1.711,0.823,0.536,0.334
481.0,-11.835,-3.645,1.711,0.823,0.536,0.334
485.0,-11.835,-3.645,2.003,0.823,0.536,0.334
489.0,-12.326,-3.882,2.003,0.67,0.61,0.413
493.0,-12.326,-3.882,2.003,0.67,0.61,0.413
496.0,-12.655,-4.317,2.342,0.549,0.648,0.475
500.0,-12.655,-4.317,2.342,0.549,0.648,0.475
504.0,-12.655,-4.317,2.342,0.549,0.648,0.475
508.0,-12.478,-4.627,2.456,0.481,0.647,0.474
512.0,-12.478,-4.627,2.456,0.481,0.647,0.474
516.0,-11.853,-4.708,2.34,0.457,0.617,0.399
519.0,-11.853,-4.708,2.34,0.457,0.617,0.399
523.0,-11.853,-4.708,2.34,0.457,0.617,0.399
527.0,-11.07,-4.598,2.029,0.467,0.579,0.26
531.0,-11.07,-4.598,2.029,0.467,0.579,0.26
535.0,-10.261,-4.346,1.712,0.467,0.579,0.26
539.0,-10.261,-4.346,1.712,0.495,0.564,0.084
542.0,-10.261,-4.346,1.712,0.495,0.564,0.084
546.0,-9.52,-4.166,1.556,0.531,0.582,-0.101
550.0,-9.52,-4.166,1.556,0.531,0.582,-0.101
554.0,-9.52,-4.166,1.556,0.531,0.582,-0.101
558.0,-8.97,-4.129,1.5,0.572,0.634,-0.273
561.0,-8.97,-4.129,1.5,0.572,0.634,-0.273
565.0,-8.655,-4.194,1.613,0.626,0.719,-0.419
569.0,-8.655,-4.194,1.613,0.626,0.719,-0.419
573.0,-8.655,-4.194,1.613,0.626,0.719,-0.419
577.0,-8.501,-4.416,1.97,0.702,0.818,-0.535
581.0,-8.501,-4.416,1.97,0.702,0.818,-0.535
584.0,-8.536,-4.735,2.454,0.702,0.818,-0.625
588.0,-8.536,-4.735,2.454,0.814,0.888,-0.625
592.0,-8.536,-4.735,2.454,0.814,0.888,-0.625
596.0,-8.68,-4.901,2.82,0.975,0.905,-0.694
600.0,-8.68,-4.901,2.82,0.975,0.905,-0.694
603.0,-8.68,-4.901,3.042,0.975,0.905,-0.694
607.0,-8.783,-4.853,3.042,1.171,0.871,-0.736
611.0,-8.783,-4.853,3.042,1.171,0.871,-0.736
615.0,-8.817,-4.701,3.076,1.368,0.804,-0.746
619.0,-8.817,-4.701,3.076,1.368,0.804,-0.746
623.0,-8.817,-4.701,3.076,1.368,0.804,-0.746
626.0,-8.728,-4.487,3.011,1.544,0.741,-0.726
630.0,-8.728,-4.487,3.011,1.544,0.741,-0.726
634.0,-8.611,-4.283,3.026,1.694,0.691,-0.689
638.0,-8.611,-4.283,3.026,1.694,0.691,-0.689
642.0,-8.611,-4.283,3.026,1.694,0.691,-0.689
645.0,-8.612,-4.104,3.339,1.818,0.641,-0.657
649.0,-8.612,-4.104,3.339,1.818,0.641,-0.657
653.0,-8.902,-3.802,3.854,1.818,0.641,-0.657
657.0,-8.902,-3.802,3.854,1.92,0.563,-0.644
661.0,-8.902,-3.802,3.854,1.92,0.563,-0.644
665.0,-9.34,-3.441,4.119,1.996,0.428,-0.651
668.0,-9.34,-3.441,4.119,1.996,0.428,-0.651
672.0,-9.34,-3.441,4.119,1.996,0.428,-0.651
676.0,-9.636,-2.993,4.0,2.031,0.247,-0.665
680.0,-9.636,-2.993,4.0,2.031,0.247,-0.665
684.0,-9.595,-2.411,3.763,2.008,0.047,-0.67
687.0,-9.595,-2.411,3.763,2.008,0.047,-0.67
691.0,-9.595,-2.411,3.763,2.008,0.047,-0.67
695.0,-9.339,-1.79,3.594,1.905,-0.147,-0.656
699.0,-9.339,-1.79,3.594,1.905,-0.147,-0.656
703.0,-9.109,-1.254,3.619,1.905,-0.313,-0.631
707.0,-9.109,-1.254,3.619,1.724,-0.313,-0.631
711.0,-9.109,-1.254,3.619,1.724,-0.313,-0.631
715.0,-8.953,-0.993,3.834,1.487,-0.449,-0.617
719.0,-8.953,-0.993,3.834,1.487,-0.449,-0.617
722.0,-8.865,-0.961,4.193,1.487,-0.449,-0.629
726.0,-8.865,-0.961,4.193,1.227,-0.559,-0.629
730.0,-8.865,-0.961,4.193,1.227,-0.559,-0.629
734.0,-8.785,-1.115,4.848,0.982,-0.663,-0.666
738.0,-8.785,-1.115,4.848,0.982,-0.663,-0.666
742.0,-8.938,-1.432,5.485,0.982,-0.663,-0.666
746.0,-8.938,-1.432,5.485,0.783,-0.8,-0.729
750.0,-8.938,-1.432,5.485,0.783,-0.8,-0.729
754.0,-9.351,-1.914,5.828,0.638,-0.982,-0.815
758.0,-9.351,-1.914,5.828,0.638,-0.982,-0.815
762.0,-9.351,-2.324,6.022,0.638,-0.982,-0.815
765.0,-9.858,-2.324,6.022,0.551,-1.191,-0.914
769.0,-9.858,-2.324,6.022,0.551,-1.191,-0.914
773.0,-10.208,-2.52,6.227,0.519,-1.419,-0.998
777.0,-10.208,-2.52,6.227,0.519,-1.419,-0.998
781.0,-10.208,-2.52,6.339,0.519,-1.419,-0.998
785.0,-10.183,-2.508,6.339,0.524,-1.67,-1.045
789.0,-10.183,-2.508,6.339,0.524,-1.67,-1.045
793.0,-9.955,-2.369,6.47,0.552,-1.916,-1.057
797.0,-9.955,-2.369,6.47,0.552,-1.916,-1.057
801.0,-9.955,-2.221,7.015,0.552,-1.916,-1.057
805.0,-9.651,-2.221,7.015,0.613,-2.133,-1.053
809.0,-9.651,-2.221,7.015,0.613,-2.133,-1.053
813.0,-9.617,-2.267,7.608,0.721,-2.334,-1.064
817.0,-9.617,-2.267,7.608,0.721,-2.334,-1.064
821.0,-9.617,-2.267,8.1,0.721,-2.334,-1.064
824.0,-9.772,-2.216,8.1,0.861,-2.539,-1.109
828.0,-9.772,-2.216,8.1,0.861,-2.539,-1.109
832.0,-9.943,-2.079,8.475,1.007,-2.769,-1.168
836.0,-9.943,-2.079,8.475,1.007,-2.769,-1.168
840.0,-9.943,-2.079,8.475,1.007,-2.769,-1.168
844.0,-9.899,-1.994,8.442,1.14,-3.027,-1.215
848.0,-9.899,-1.994,8.442,1.14,-3.027,-1.215
852.0,-9.574,-1.929,8.197,1.254,-3.282,-1.243
856.0,-9.574,-1.929,8.197,1.254,-3.282,-1.243
860.0,-9.574,-1.929,8.197,1.254,-3.282,-1.243
864.0,-9.133,-1.918,8.19,1.356,-3.504,-1.259
867.0,-9.133,-1.918,8.19,1.356,-3.504,-1.259
871.0,-8.884,-1.997,8.253,1.458,-3.696,-1.275
875.0,-8.884,-1.997,8.253,1.458,-3.696,-1.275
879.0,-8.884,-1.997,8.253,1.458,-3.696,-1.275
883.0,-8.914,-2.139,8.305,1.563,-3.867,-1.295
887.0,-8.914,-2.139,8.305,1.563,-3.867,-1.295
891.0,-9.064,-2.176,8.373,1.668,-4.022,-1.32
895.0,-9.064,-2.176,8.373,1.668,-4.022,-1.32
899.0,-9.064,-2.176,8.373,1.668,-4.022,-1.32
903.0,-9.183,-2.286,8.621,1.785,-4.165,-1.338
906.0,-9.183,-2.286,8.621,1.785,-4.165,-1.338
910.0,-9.318,-2.279,8.687,1.918,-4.31,-1.34
914.0,-9.318,-2.279,8.687,1.918,-4.31,-1.34
918.0,-9.318,-2.279,8.687,1.918,-4.31,-1.34
922.0,-9.44,-2.433,8.672,2.06,-4.452,-1.309
926.0,-9.44,-2.433,8.672,2.06,-4.452,-1.309
930.0,-9.433,-2.731,8.56,2.06,-4.594,-1.263
934.0,-9.433,-2.731,8.56,2.218,-4.594,-1.263
938.0,-9.433,-2.731,8.56,2.218,-4.594,-1.263
942.0,-9.275,-2.886,8.562,2.395,-4.722,-1.221
946.0,-9.275,-2.886,8.562,2.395,-4.722,-1.221
949.0,-9.19,-3.22,8.682,2.395,-4.722,-1.186
953.0,-9.19,-3.22,8.682,2.601,-4.829,-1.186
957.0,-9.19,-3.22,8.682,2.601,-4.829,-1.186
961.0,-9.139,-3.784,8.676,2.867,-4.902,-1.158
965.0,-9.139,-3.784,8.676,2.867,-4.902,-1.158
969.0,-9.069,-4.524,8.883,2.867,-4.902,-1.158
973.0,-9.069,-4.524,8.883,3.203,-4.932,-1.127
977.0,-9.069,-4.524,8.883,3.203,-4.932,-1.127
981.0,-9.097,-4.969,9.302,3.616,-4.936,-1.091
985.0,-9.097,-4.969,9.302,3.616,-4.936,-1.091
988.0,-9.097,-4.969,9.689,3.616,-4.936,-1.091
992.0,-9.423,-4.751,9.689,4.097,-4.927,-1.041
996.0,-9.423,-4.751,9.689,4.097,-4.927,-1.041
1000.0,-9.662,-4.141,9.776,4.588,-4.916,-0.952
1004.0,-9.662,-4.141,9.776,4.588,-4.916,-0.952
1008.0,-9.662,-4.141,9.635,4.588,-4.916,-0.952
1012.0,-9.606,-3.161,9.635,4.94,-4.897,-0.819
1016.0,-9.606,-3.161,9.635,4.94,-4.897,-0.819
1020.0,-9.185,-2.148,9.266,4.995,-4.863,-0.644
1024.0,-9.185,-2.148,9.266,4.995,-4.863,-0.644
1028.0,-8.355,-1.376,9.078,4.995,-4.863,-0.644
1032.0,-8.355,-1.376,9.078,4.995,-4.811,-0.472
1036.0,-8.355,-1.376,9.078,4.995,-4.811,-0.472
1040.0,-7.412,-0.514,9.037,4.995,-4.729,-0.366
1044.0,-7.412,-0.514,9.037,4.995,-4.729,-0.366
1048.0,-6.609,0.488,9.104,4.995,-4.729,-0.346
1052.0,-6.609,0.488,9.104,4.995,-4.619,-0.346
1056.0,-6.609,0.488,9.104,4.995,-4.619,-0.346
1060.0,-5.938,1.211,9.196,4.967,-4.512,-0.405
1064.0,-5.938,1.211,9.196,4.967,-4.512,-0.405
1068.0,-5.393,1.976,9.276,4.967,-4.512,-0.405
1072.0,-5.393,1.976,9.276,4.741,-4.407,-0.518
1075.0,-5.393,1.976,9.276,4.741,-4.407,-0.518
1079.0,-4.878,2.611,9.17,4.402,-4.298,-0.649
1083.0,-4.878,2.611,9.17,4.402,-4.298,-0.649
1087.0,-4.878,2.611,8.999,4.402,-4.298,-0.649
1091.0,-4.165,3.084,8.999,4.052,-4.174,-0.781
1095.0,-4.165,3.084,8.999,4.052,-4.174,-0.781
1099.0,-3.484,3.508,8.844,3.711,-4.034,-0.925
1103.0,-3.484,3.508,8.844,3.711,-4.034,-0.925
1107.0,-3.484,3.508,8.844,3.711,-4.034,-0.925
1111.0,-2.998,3.883,8.512,3.387,-3.887,-1.071
1115.0,-2.998,3.883,8.512,3.387,-3.887,-1.071
1118.0,-2.455,4.105,8.18,3.069,-3.729,-1.196
1122.0,-2.455,4.105,8.18,3.069,-3.729,-1.196
1126.0,-2.455,4.105,8.18,3.069,-3.729,-1.196
1130.0,-1.84,4.039,7.839,2.755,-3.562,-1.317
1134.0,-1.84,4.039,7.839,2.755,-3.562,-1.317
1138.0,-1.248,3.87,7.377,2.461,-3.389,-1.451
1142.0,-1.248,3.87,7.377,2.461,-3.389,-1.451
1146.0,-1.248,3.87,7.377,2.461,-3.389,-1.451
1150.0,-0.526,3.839,6.925,2.178,-3.212,-1.588
1154.0,-0.526,3.839,6.925,2.178,-3.212,-1.588
1158.0,0.04,3.65,6.395,1.912,-3.019,-1.695
1161.0,0.04,3.65,6.395,1.912,-3.019,-1.695
1165.0,0.04,3.65,6.395,1.912,-3.019,-1.695
1169.0,0.446,3.225,5.841,1.679,-2.815,-1.75
1173.0,0.446,3.225,5.841,1.679,-2.815,-1.75
1177.0,0.81,2.716,5.304,1.679,-2.815,-1.754
1180.0,0.81,2.716,5.304,1.49,-2.621,-1.754
1184.0,0.81,2.716,5.304,1.49,-2.621,-1.754
1188.0,1.125,2.242,4.829,1.333,-2.446,-1.712
1192.0,1.125,2.242,4.829,1.333,-2.446,-1.712
1196.0,1.125,2.242,4.456,1.333,-2.446,-1.712
1200.0,1.284,2.057,4.456,1.198,-2.299,-1.649
1203.0,1.284,2.057,4.456,1.198,-2.299,-1.649
1207.0,1.359,2.091,4.067,1.088,-2.189,-1.572
1211.0,1.359,2.091,4.067,1.088,-2.189,-1.572
1215.0,1.359,2.091,4.067,1.088,-2.189,-1.572
1219.0,1.474,2.224,3.671,1.007,-2.097,-1.476
1222.0,1.474,2.224,3.671,1.007,-2.097,-1.476
1226.0,1.598,2.494,3.344,0.947,-1.999,-1.34
1230.0,1.598,2.494,3.344,0.947,-1.999,-1.34
1234.0,1.598,2.494,3.344,0.947,-1.999,-1.34
1238.0,1.793,2.861,3.128,0.892,-1.9,-1.143
1242.0,1.793,2.861,3.128,0.892,-1.9,-1.143
1245.0,2.032,3.232,2.942,0.892,-1.9,-1.143
1249.0,2.032,3.232,2.942,0.831,-1.798,-0.895
1253.0,2.032,3.232,2.942,0.831,-1.798,-0.895
1257.0,2.282,3.739,2.947,0.757,-1.676,-0.623
1261.0,2.282,3.739,2.947,0.757,-1.676,-0.623
1264.0,2.282,3.739,2.947,0.757,-1.676,-0.623
1268.0,2.311,4.479,3.222,0.685,-1.53,-0.347
1272.0,2.311,4.479,3.222,0.685,-1.53,-0.347
1276.0,1.952,5.268,3.638,0.646,-1.37,-0.067
1280.0,1.952,5.268,3.638,0.646,-1.37,-0.067
1284.0,1.952,5.268,3.638,0.646,-1.37,-0.067
1287.0,1.425,5.992,4.007,0.646,-1.21,0.203
1291.0,1.425,5.992,4.007,0.646,-1.21,0.203
1295.0,1.113,6.915,4.483,0.646,-1.21,0.203
1299.0,1.113,6.915,4.483,0.67,-1.037,0.446
1302.0,1.113,6.915,4.483,0.67,-1.037,0.446
1306.0,1.05,8.026,4.964,0.703,-0.852,0.672
1310.0,1.05,8.026,4.964,0.703,-0.852,0.672
1313.0,1.05,8.026,4.964,0.703,-0.852,0.672
1317.0,1.137,9.215,5.311,0.729,-0.671,0.904
1321.0,1.137,9.215,5.311,0.729,-0.671,0.904
1325.0,1.21,10.325,5.517,0.729,-0.671,1.146
1329.0,1.21,10.325,5.517,0.74,-0.503,1.146
1332.0,1.21,10.325,5.517,0.74,-0.503,1.146
1336.0,1.181,11.414,5.62,0.755,-0.351,1.337
1340.0,1.181,11.414,5.62,0.755,-0.351,1.337
1344.0,1.181,11.414,5.745,0.755,-0.351,1.337
1348.0,1.078,12.519,5.745,0.783,-0.208,1.476
1351.0,1.078,12.519,5.745,0.783,-0.208,1.476
1355.0,1.045,13.63,6.135,0.819,-0.068,1.616
1359.0,1.045,13.63,6.135,0.819,-0.068,1.616
1363.0,1.045,13.63,6.135,0.819,-0.068,1.616
1367.0,1.21,14.712,6.659,0.875,0.059,1.782
1370.0,1.21,14.712,6.659,0.875,0.059,1.782
1374.0,1.801,15.581,7.438,0.875,0.173,1.991
1378.0,1.801,15.581,7.438,0.947,0.173,1.991
1382.0,1.801,15.581,7.438,0.947,0.173,1.991
1385.0,2.71,16.208,8.304,1.007,0.264,2.244
1389.0,2.71,16.208,8.304,1.007,0.264,2.244
1393.0,2.71,16.208,8.304,1.007,0.264,2.244
1397.0,3.537,16.356,9.24,1.029,0.335,2.538
1400.0,3.537,16.356,9.24,1.029,0.335,2.538
1404.0,4.196,16.11,10.025,0.99,0.377,2.852
1408.0,4.196,16.11,10.025,0.99,0.377,2.852
1412.0,4.196,16.11,10.025,0.99,0.377,2.852
1415.0,4.488,15.548,10.694,0.892,0.39,3.168
1419.0,4.488,15.548,10.694,0.892,0.39,3.168
1423.0,4.399,14.825,11.13,0.892,0.39,3.168
1427.0,4.399,14.825,11.13,0.733,0.364,3.478
1431.0,4.399,14.825,11.13,0.733,0.364,3.478
1435.0,3.97,13.994,11.258,0.525,0.295,3.767
1438.0,3.97,13.994,11.258,0.525,0.295,3.767
1442.0,3.97,13.994,11.258,0.525,0.295,3.767
1446.0,3.24,13.051,10.929,0.292,0.192,4.016
1450.0,3.24,13.051,10.929,0.292,0.192,4.016
1454.0,2.491,12.115,10.045,0.041,0.078,4.196
1458.0,2.491,12.115,10.045,0.041,0.078,4.196
1461.0,2.491,12.115,10.045,0.041,0.078,4.196
1465.0,2.008,11.259,8.957,-0.208,-0.025,4.277
1469.0,2.008,11.259,8.957,-0.208,-0.025,4.277
1473.0,1.802,10.634,7.787,-0.431,-0.097,4.247
1477.0,1.802,10.634,7.787,-0.431,-0.097,4.247
1481.0,1.802,10.634,7.787,-0.431,-0.097,4.247
1485.0,1.729,10.436,6.769,-0.621,-0.121,4.155
1489.0,1.729,10.436,6.769,-0.621,-0.121,4.155
1492.0,1.576,10.418,6.246,-0.621,-0.121,4.067
1496.0,1.576,10.418,6.246,-0.774,-0.102,4.067
1500.0,1.576,10.418,6.246,-0.774,-0.102,4.067
1504.0,1.379,10.218,5.837,-0.907,-0.065,4.002
1508.0,1.379,10.218,5.837,-0.907,-0.065,4.002
1512.0,1.409,9.681,5.774,-0.907,-0.065,4.002
1516.0,1.409,9.681,5.774,-1.047,-0.005,3.941
1520.0,1.409,9.681,5.774,-1.047,-0.005,3.941
1523.0,1.612,8.989,6.154,-1.19,0.057,3.891
1527.0,1.612,8.989,6.154,-1.19,0.057,3.891
1531.0,1.612,8.989,6.154,-1.19,0.057,3.891
1535.0,1.967,7.94,6.546,-1.321,0.083,3.896
1538.0,1.967,7.94,6.546,-1.321,0.083,3.896
1542.0,2.377,6.7,6.875,-1.426,0.078,3.954
1546.0,2.377,6.7,6.875,-1.426,0.078,3.954
1550.0,2.377,6.7,6.875,-1.426,0.078,3.954
1553.0,2.633,5.238,6.555,-1.488,0.065,4.049
1557.0,2.633,5.238,6.555,-1.488,0.065,4.049
1561.0,2.633,5.238,6.555,-1.488,0.065,4.049
1565.0,2.678,3.956,5.848,-1.504,0.085,4.141
1568.0,2.678,3.956,5.848,-1.504,0.085,4.141
1572.0,2.404,3.039,5.317,-1.473,0.143,4.226
1576.0,2.404,3.039,5.317,-1.473,0.143,4.226
1579.0,2.404,3.039,5.317,-1.473,0.143,4.226
1583.0,1.796,2.435,4.857,-1.398,0.2,4.316
1587.0,1.796,2.435,4.857,-1.398,0.2,4.316
1591.0,1.796,2.082,4.459,-1.398,0.2,4.316
1594.0,0.89,2.082,4.459,-1.299,0.254,4.422
1598.0,0.89,2.082,4.459,-1.299,0.254,4.422
1602.0,-0.034,1.375,4.186,-1.201,0.284,4.571
1606.0,-0.034,1.375,4.186,-1.201,0.284,4.571
1609.0,-0.034,1.375,4.186,-1.201,0.284,4.571
1613.0,-0.489,0.252,4.062,-1.134,0.239,4.761
1617.0,-0.489,0.252,4.062,-1.134,0.239,4.761
1621.0,-0.592,-1.262,4.059,-1.134,0.13,4.947
1625.0,-0.592,-1.262,4.059,-1.084,0.13,4.947
1629.0,-0.592,-1.262,4.059,-1.084,0.13,4.947
1633.0,-0.811,-3.696,4.561,-0.967,0.031,5.012
1637.0,-0.811,-3.696,4.561,-0.967,0.031,5.012
1640.0,-1.446,-6.499,4.852,-0.967,0.031,5.013
1644.0,-1.446,-6.499,4.852,-0.69,-0.017,5.013
1648.0,-1.446,-6.499,4.852,-0.69,-0.017,5.013
1652.0,-2.435,-8.212,4.045,-0.255,0.008,5.013
1656.0,-2.435,-8.212,4.045,-0.255,0.008,5.013
1660.0,-3.449,-8.871,2.867,-0.255,0.008,5.013
1664.0,-3.449,-8.871,2.867,0.227,0.109,5.013
1668.0,-3.449,-8.871,2.867,0.227,0.109,5.013
1672.0,-3.985,-8.766,2.005,0.604,0.231,5.011
1676.0,-3.985,-8.766,2.005,0.604,0.231,5.011
1679.0,-3.985,-8.766,1.702,0.604,0.231,5.011
1683.0,-3.834,-7.936,1.702,0.755,0.34,4.936
1687.0,-3.834,-7.936,1.702,0.755,0.34,4.936
1691.0,-3.105,-7.539,1.74,0.626,0.443,4.721
1695.0,-3.105,-7.539,1.74,0.626,0.443,4.721
1698.0,-3.105,-7.539,1.74,0.626,0.443,4.721
1702.0,-2.388,-7.86,1.847,0.295,0.557,4.416
1706.0,-2.388,-7.86,1.847,0.295,0.557,4.416
1710.0,-1.776,-9.106,2.121,-0.114,0.66,4.063
1714.0,-1.776,-9.106,2.121,-0.114,0.66,4.063
1718.0,-1.776,-9.106,2.121,-0.114,0.66,4.063
1722.0,-1.414,-11.44,2.815,-0.445,0.696,3.713
1726.0,-1.414,-11.44,2.815,-0.445,0.696,3.713
1730.0,-1.75,-13.741,3.843,-0.54,0.635,3.389
1734.0,-1.75,-13.741,3.843,-0.54,0.635,3.389
1738.0,-1.75,-13.741,3.843,-0.54,0.635,3.389
1742.0,-2.518,-15.609,4.461,-0.35,0.466,3.117
1746.0,-2.518,-15.609,4.461,-0.35,0.466,3.117
1750.0,-3.054,-16.461,4.421,0.011,0.2,2.901
1754.0,-3.054,-16.461,4.421,0.011,0.2,2.901
1757.0,-3.054,-16.461,4.421,0.011,0.2,2.901
1761.0,-2.49,-16.443,4.548,0.368,-0.107,2.711
1765.0,-2.49,-16.443,4.548,0.368,-0.107,2.711
1769.0,-0.842,-16.068,4.808,0.626,-0.41,2.504
1773.0,-0.842,-16.068,4.808,0.626,-0.41,2.504
1777.0,-0.842,-16.068,4.808,0.626,-0.41,2.504
1781.0,1.07,-15.618,5.035,0.768,-0.649,2.224
1785.0,1.07,-15.618,5.035,0.768,-0.649,2.224
1789.0,2.895,-14.899,5.212,0.835,-0.802,1.873
1793.0,2.895,-14.899,5.212,0.835,-0.802,1.873
1797.0,2.895,-14.899,5.212,0.835,-0.802,1.873
1801.0,4.597,-13.993,5.594,0.822,-0.882,1.505
1805.0,4.597,-13.993,5.594,0.822,-0.882,1.505
1809.0,6.134,-13.467,6.328,0.746,-0.867,1.178
1813.0,6.134,-13.467,6.328,0.746,-0.867,1.178
1816.0,6.134,-13.467,6.328,0.746,-0.867,1.178
1820.0,7.15,-13.279,6.941,0.673,-0.786,0.899
1824.0,7.15,-13.279,6.941,0.673,-0.786,0.899
1828.0,7.272,-13.019,7.239,0.673,-0.685,0.635
1832.0,7.272,-13.019,7.239,0.626,-0.685,0.635
1836.0,7.272,-13.019,7.239,0.626,-0.685,0.635
1840.0,6.722,-12.801,7.669,0.598,-0.578,0.399
1844.0,6.722,-12.801,7.669,0.598,-0.578,0.399
1848.0,5.918,-12.659,7.996,0.598,-0.578,0.399
1852.0,5.918,-12.659,7.996,0.586,-0.517,0.205
1856.0,5.918,-12.659,7.996,0.586,-0.517,0.205
1859.0,5.514,-12.398,8.052,0.604,-0.524,0.026
1863.0,5.514,-12.398,8.052,0.604,-0.524,0.026
1867.0,6.014,-11.902,8.538,0.604,-0.524,0.026
1871.0,6.014,-11.902,8.538,0.69,-0.603,-0.151
1875.0,6.014,-11.902,8.538,0.69,-0.603,-0.151
1879.0,6.45,-11.23,8.678,0.838,-0.741,-0.246
1883.0,6.45,-11.23,8.678,0.838,-0.741,-0.246
1887.0,5.868,-10.679,7.892,0.838,-0.741,-0.246
1891.0,5.868,-10.679,7.892,0.98,-0.851,-0.214
1895.0,5.868,-10.679,7.892,0.98,-0.851,-0.214
1899.0,4.876,-10.098,6.773,1.065,-0.931,-0.161
1903.0,4.876,-10.098,6.773,1.065,-0.931,-0.161
1907.0,4.899,-9.407,6.468,1.065,-0.931,-0.173
1911.0,4.899,-9.407,6.468,1.089,-1.017,-0.173
1915.0,4.899,-9.407,6.468,1.089,-1.017,-0.173
1919.0,5.852,-8.557,6.54,1.106,-1.073,-0.227
1923.0,5.852,-8.557,6.54,1.106,-1.073,-0.227
1927.0,6.851,-7.551,6.878,1.106,-1.073,-0.227
1931.0,6.851,-7.551,6.878,1.149,-1.041,-0.286
1934.0,6.851,-7.551,6.878,1.149,-1.041,-0.286
1938.0,7.499,-6.535,7.078,1.199,-0.92,-0.327
1942.0,7.499,-6.535,7.078,1.199,-0.92,-0.327
1946.0,7.499,-5.588,7.585,1.199,-0.92,-0.327
1950.0,7.375,-5.588,7.585,1.244,-0.752,-0.326
1954.0,7.375,-5.588,7.585,1.244,-0.752,-0.326
1958.0,6.745,-5.071,7.813,1.281,-0.592,-0.257
1962.0,6.745,-5.071,7.813,1.281,-0.592,-0.257
1966.0,6.745,-5.071,7.586,1.281,-0.592,-0.257
1970.0,6.135,-4.807,7.586,1.313,-0.481,-0.15
1973.0,6.135,-4.807,7.586,1.313,-0.481,-0.15
1977.0,5.907,-4.806,7.564,1.332,-0.421,-0.028
1981.0,5.907,-4.806,7.564,1.332,-0.421,-0.028
1985.0,5.907,-4.806,7.564,1.332,-0.421,-0.028
1989.0,5.822,-4.896,7.299,1.355,-0.404,0.092
1993.0,5.822,-4.896,7.299,1.355,-0.404,0.092
1997.0,5.657,-4.761,6.967,1.393,-0.395,0.169
2001.0,5.657,-4.761,6.967,1.393,-0.395,0.169
2004.0,5.657,-4.761,6.967,1.393,-0.395,0.169
2008.0,5.53,-4.341,6.634,1.431,-0.388,0.183
2012.0,5.53,-4.341,6.634,1.431,-0.388,0.183
2016.0,5.457,-3.703,6.261,1.431,-0.383,0.146
2020.0,5.457,-3.703,6.261,1.446,-0.383,0.146
2023.0,5.457,-3.703,6.261,1.446,-0.383,0.146
2027.0,5.476,-2.946,6.029,1.421,-0.348,0.081
2031.0,5.476,-2.946,6.029,1.421,-0.348,0.081
2035.0,5.476,-2.38,6.083,1.421,-0.348,0.081
2039.0,5.62,-2.38,6.083,1.349,-0.287,0.033
2043.0,5.62,-2.38,6.083,1.349,-0.287,0.033
2046.0,5.718,-2.04,6.23,1.238,-0.222,0.021
2050.0,5.718,-2.04,6.23,1.238,-0.222,0.021
2054.0,5.718,-2.04,6.23,1.238,-0.222,0.021
2058.0,5.888,-2.137,6.343,1.119,-0.148,0.057
2062.0,5.888,-2.137,6.343,1.119,-0.148,0.057
2065.0,6.109,-2.48,6.349,1.011,-0.08,0.128
2069.0,6.109,-2.48,6.349,1.011,-0.08,0.128
2073.0,6.109,-2.48,6.349,1.011,-0.08,0.128
2077.0,6.179,-2.834,6.509,0.929,-0.022,0.202
2081.0,6.179,-2.834,6.509,0.929,-0.022,0.202
2085.0,6.059,-3.139,6.636,0.929,-0.022,0.202
2088.0,6.059,-3.139,6.636,0.89,0.02,0.261
2092.0,6.059,-3.139,6.636,0.89,0.02,0.261
2096.0,5.718,-3.288,6.654,0.887,0.046,0.31
2100.0,5.718,-3.288,6.654,0.887,0.046,0.31
2103.0,5.718,-3.288,6.654,0.887,0.046,0.31
2107.0,5.283,-3.189,6.733,0.9,0.063,0.352
2111.0,5.283,-3.189,6.733,0.9,0.063,0.352
2115.0,4.774,-2.937,6.866,0.9,0.066,0.391
2118.0,4.774,-2.937,6.866,0.905,0.066,0.391
2122.0,4.774,-2.937,6.866,0.905,0.066,0.391
2126.0,4.319,-2.643,6.899,0.891,0.056,0.425
2129.0,4.319,-2.643,6.899,0.891,0.056,0.425
2133.0,4.319,-2.643,6.899,0.891,0.056,0.425
2137.0,4.018,-2.454,6.931,0.847,0.039,0.45
2141.0,4.018,-2.454,6.931,0.847,0.039,0.45
2144.0,3.961,-2.307,6.96,0.779,0.019,0.466
2148.0,3.961,-2.307,6.96,0.779,0.019,0.466
2152.0,3.961,-2.307,6.96,0.779,0.019,0.466
2156.0,4.035,-2.237,7.009,0.704,0.011,0.48
2159.0,4.035,-2.237,7.009,0.704,0.011,0.48
2163.0,4.035,-2.237,7.14,0.704,0.011,0.48
2167.0,4.178,-2.183,7.14,0.638,0.014,0.497
2171.0,4.178,-2.183,7.14,0.638,0.014,0.497
2174.0,4.312,-2.106,7.157,0.572,0.024,0.52
2178.0,4.312,-2.106,7.157,0.572,0.024,0.52
2182.0,4.312,-2.106,7.157,0.572,0.024,0.52
2185.0,4.373,-2.086,7.025,0.503,0.042,0.539
2189.0,4.373,-2.086,7.025,0.503,0.042,0.539
2193.0,4.373,-2.032,7.019,0.503,0.042,0.539
2197.0,4.31,-2.032,7.019,0.436,0.058,0.544
2200.0,4.31,-2.032,7.019,0.436,0.058,0.544
2204.0,4.238,-1.938,6.913,0.375,0.049,0.542
2208.0,4.238,-1.938,6.913,0.375,0.049,0.542
2212.0,4.238,-1.938,6.913,0.375,0.049,0.542
2215.0,4.018,-1.845,6.864,0.319,0.033,0.544
2219.0,4.018,-1.845,6.864,0.319,0.033,0.544
2223.0,3.63,-1.792,6.818,0.319,0.033,0.544
2227.0,3.63,-1.792,6.818,0.279,0.019,0.545
2230.0,3.63,-1.792,6.818,0.279,0.019,0.545
2234.0,3.313,-1.693,6.722,0.268,-0.009,0.547
2238.0,3.313,-1.693,6.722,0.268,-0.009,0.547
2242.0,3.313,-1.693,6.722,0.268,-0.009,0.547
2245.0,3.325,-1.587,6.586,0.281,-0.059,0.562
2249.0,3.325,-1.587,6.586,0.281,-0.059,0.562
2253.0,3.604,-1.57,6.348,0.305,-0.112,0.592
2257.0,3.604,-1.57,6.348,0.305,-0.112,0.592
2261.0,3.604,-1.57,6.348,0.305,-0.112,0.592
2265.0,3.906,-1.649,6.066,0.324,-0.144,0.624
2268.0,3.906,-1.649,6.066,0.324,-0.144,0.624
2272.0,4.161,-1.788,5.719,0.324,-0.144,0.64
2276.0,4.161,-1.788,5.719,0.336,-0.14,0.64
2280.0,4.161,-1.788,5.719,0.336,-0.14,0.64
2284.0,4.366,-1.857,5.426,0.344,-0.109,0.627
2287.0,4.366,-1.857,5.426,0.344,-0.109,0.627
2291.0,4.366,-1.857,5.426,0.344,-0.109,0.627
2295.0,4.6,-1.909,5.259,0.349,-0.055,0.596
2299.0,4.6,-1.909,5.259,0.349,-0.055,0.596
2303.0,4.705,-1.926,5.179,0.348,0.014,0.561
2306.0,4.705,-1.926,5.179,0.348,0.014,0.561
2310.0,4.705,-1.926,5.179,0.348,0.014,0.561
2314.0,4.625,-1.963,5.16,0.343,0.094,0.53
2318.0,4.625,-1.963,5.16,0.343,0.094,0.53
2321.0,4.403,-2.037,5.198,0.343,0.094,0.53
2325.0,4.403,-2.037,5.198,0.34,0.174,0.497
2329.0,4.403,-2.037,5.198,0.34,0.174,0.497
2333.0,4.277,-2.126,5.274,0.34,0.23,0.471
2336.0,4.277,-2.126,5.274,0.34,0.23,0.471
2340.0,4.277,-2.126,5.274,0.34,0.23,0.471
2344.0,4.182,-2.236,5.262,0.335,0.254,0.463
2348.0,4.182,-2.236,5.262,0.335,0.254,0.463
2351.0,4.005,-2.293,5.151,0.335,0.254,0.468
2355.0,4.005,-2.293,5.151,0.326,0.26,0.468
2359.0,4.005,-2.293,5.151,0.326,0.26,0.468
2362.0,3.884,-2.258,4.951,0.308,0.246,0.477
2366.0,3.884,-2.258,4.951,0.308,0.246,0.477
2370.0,3.884,-2.258,4.951,0.308,0.246,0.477
2374.0,3.91,-2.166,4.736,0.274,0.217,0.488
2377.0,3.91,-2.166,4.736,0.274,0.217,0.488
2381.0,4.097,-2.128,4.561,0.224,0.198,0.494
2385.0,4.097,-2.128,4.561,0.224,0.198,0.494
2389.0,4.097,-2.128,4.561,0.224,0.198,0.494
2392.0,4.318,-2.112,4.53,0.171,0.225,0.49
2396.0,4.318,-2.112,4.53,0.171,0.225,0.49
2400.0,4.318,-2.112,4.53,0.171,0.225,0.49
2404.0,4.448,-2.072,4.568,0.132,0.273,0.471
2407.0,4.448,-2.072,4.568,0.132,0.273,0.471
2411.0,4.413,-1.985,4.564,0.113,0.319,0.435
2415.0,4.413,-1.985,4.564,0.113,0.319,0.435
2418.0,4.413,-1.985,4.564,0.113,0.319,0.435
2422.0,4.238,-1.946,4.501,0.114,0.365,0.396
2426.0,4.238,-1.946,4.501,0.114,0.365,0.396
2430.0,4.238,-1.946,4.324,0.114,0.365,0.396
2433.0,4.04,-1.956,4.324,0.125,0.408,0.366
2437.0,4.04,-1.956,4.324,0.125,0.408,0.366
2441.0,3.802,-1.936,4.138,0.139,0.448,0.342
2445.0,3.802,-1.936,4.138,0.139,0.448,0.342
2448.0,3.802,-1.936,4.138,0.139,0.448,0.342
2452.0,3.612,-1.922,4.039,0.15,0.477,0.32
2456.0,3.612,-1.922,4.039,0.15,0.477,0.32
2459.0,3.495,-1.898,4.144,0.15,0.477,0.32
2463.0,3.495,-1.898,4.144,0.159,0.501,0.308
2467.0,3.495,-1.898,4.144,0.159,0.501,0.308
2471.0,3.502,-1.794,4.393,0.172,0.515,0.319
2474.0,3.502,-1.794,4.393,0.172,0.515,0.319
2478.0,3.502,-1.794,4.393,0.172,0.515,0.319
2482.0,3.607,-1.698,4.649,0.195,0.513,0.363
2486.0,3.607,-1.698,4.649,0.195,0.513,0.363
2489.0,3.741,-1.659,4.75,0.195,0.513,0.439
2493.0,3.741,-1.659,4.75,0.231,0.504,0.439
2497.0,3.741,-1.659,4.75,0.231,0.504,0.439
2501.0,3.918,-1.623,4.622,0.279,0.505,0.528
2504.0,3.918,-1.623,4.622,0.279,0.505,0.528
2508.0,3.918,-1.623,4.622,0.279,0.505,0.528
2512.0,4.003,-1.464,4.366,0.322,0.532,0.625
2515.0,4.003,-1.464,4.366,0.322,0.532,0.625
2519.0,4.018,-1.402,4.159,0.322,0.578,0.744
2523.0,4.018,-1.402,4.159,0.36,0.578,0.744
2527.0,4.018,-1.402,4.159,0.36,0.578,0.744
2530.0,4.06,-0.981,3.954,0.391,0.643,0.877
2534.0,4.06,-0.981,3.954,0.391,0.643,0.877
2538.0,4.06,-0.981,3.954,0.391,0.643,0.877
2542.0,4.206,0.066,3.62,0.428,0.742,1.059
2545.0,4.206,0.066,3.62,0.428,0.742,1.059
2549.0,4.682,0.811,3.412,0.428,0.869,1.337
2553.0,4.682,0.811,3.412,0.483,0.869,1.337
2556.0,4.682,0.811,3.412,0.483,0.869,1.337
2560.0,5.632,1.068,3.051,0.54,1.006,1.659
2563.0,5.632,1.068,3.051,0.54,1.006,1.659
2567.0,5.632,1.068,3.051,0.54,1.006,1.659
2571.0,6.314,1.207,2.5,0.582,1.188,1.958
2574.0,6.314,1.207,2.5,0.582,1.188,1.958
2578.0,6.32,1.0,2.304,0.582,1.188,1.958
2582.0,6.32,1.0,2.304,0.592,1.407,2.228
2585.0,6.32,1.0,2.304,0.592,1.407,2.228
2589.0,5.969,0.522,2.454,0.563,1.618,2.444
2593.0,5.969,0.522,2.454,0.563,1.618,2.444
2596.0,5.969,0.522,2.454,0.563,1.618,2.444
2600.0,5.498,-0.071,2.802,0.501,1.806,2.579
2604.0,5.498,-0.071,2.802,0.501,1.806,2.579
2607.0,5.498,-0.61,3.447,0.501,1.806,2.579
2611.0,4.835,-0.61,3.447,0.429,1.97,2.639
2615.0,4.835,-0.61,3.447,0.429,1.97,2.639
2619.0,4.043,-0.967,4.101,0.37,2.108,2.664
2622.0,4.043,-0.967,4.101,0.37,2.108,2.664
2626.0,4.043,-0.967,4.101,0.37,2.108,2.664
2630.0,3.221,-1.329,4.528,0.348,2.229,2.689
2634.0,3.221,-1.329,4.528,0.348,2.229,2.689
2637.0,2.508,-1.845,4.903,0.348,2.229,2.689
2641.0,2.508,-1.845,4.903,0.376,2.342,2.714
2645.0,2.508,-1.845,4.903,0.376,2.342,2.714
2648.0,1.795,-2.268,5.391,0.469,2.441,2.721
2652.0,1.795,-2.268,5.391,0.469,2.441,2.721
2656.0,1.795,-2.268,5.391,0.469,2.441,2.721
2660.0,1.015,-2.613,5.979,0.641,2.501,2.722
2663.0,1.015,-2.613,5.979,0.641,2.501,2.722
2667.0,0.471,-3.058,6.323,0.641,2.501,2.733
2671.0,0.471,-3.058,6.323,0.893,2.504,2.733
2675.0,0.471,-3.058,6.323,0.893,2.504,2.733
2678.0,0.297,-3.437,6.276,1.219,2.492,2.729
2682.0,0.297,-3.437,6.276,1.219,2.492,2.729
2686.0,0.297,-3.437,6.276,1.219,2.492,2.729
2690.0,0.519,-3.833,5.611,1.607,2.531,2.676
2693.0,0.519,-3.833,5.611,1.607,2.531,2.676
2697.0,0.733,-3.948,5.023,2.03,2.669,2.567
2701.0,0.733,-3.948,5.023,2.03,2.669,2.567
2704.0,0.733,-3.948,5.023,2.03,2.669,2.567
2708.0,1.162,-4.027,4.792,2.47,2.885,2.439
2712.0,1.162,-4.027,4.792,2.47,2.885,2.439
2716.0,1.162,-4.027,4.792,2.47,2.885,2.439
2719.0,1.652,-3.965,5.052,2.92,3.173,2.318
2723.0,1.652,-3.965,5.052,2.92,3.173,2.318
2727.0,1.705,-3.837,5.509,3.392,3.518,2.235
2731.0,1.705,-3.837,5.509,3.392,3.518,2.235
2734.0,1.705,-3.837,5.509,3.392,3.518,2.235
2738.0,1.06,-3.884,5.883,3.888,3.884,2.178
2742.0,1.06,-3.884,5.883,3.888,3.884,2.178
2746.0,1.06,-3.884,5.952,3.888,3.884,2.178
2749.0,-0.316,-3.814,5.952,4.41,4.248,2.085
2753.0,-0.316,-3.814,5.952,4.41,4.248,2.085
2757.0,-1.767,-3.813,5.949,4.879,4.608,1.936
2761.0,-1.767,-3.813,5.949,4.879,4.608,1.936
2765.0,-1.767,-3.813,5.949,4.879,4.608,1.936
2768.0,-3.529,-3.732,6.278,4.995,4.926,1.711
2772.0,-3.529,-3.732,6.278,4.995,4.926,1.711
2776.0,-5.609,-3.226,6.383,4.995,5.015,1.431
2780.0,-5.609,-3.226,6.383,4.995,5.015,1.431
2784.0,-5.609,-3.226,6.383,4.995,5.015,1.431
2787.0,-7.7,-2.452,6.009,4.995,5.015,1.121
2791.0,-7.7,-2.452,6.009,4.995,5.015,1.121
2795.0,-9.405,-1.089,4.625,4.995,5.015,1.121
2799.0,-9.405,-1.089,4.625,4.995,5.015,0.788
2803.0,-9.405,-1.089,4.625,4.995,5.015,0.788
2807.0,-10.978,0.824,2.649,4.995,5.015,0.452
2810.0,-10.978,0.824,2.649,4.995,5.015,0.452
2814.0,-10.978,0.824,2.649,4.995,5.015,0.452
2818.0,-12.237,2.905,1.138,4.995,5.015,0.16
2822.0,-12.237,2.905,1.138,4.995,5.015,0.16
2826.0,-13.027,4.518,0.312,4.995,5.015,-0.055
2830.0,-13.027,4.518,0.312,4.995,5.015,-0.055
2833.0,-13.027,4.518,0.312,4.995,5.015,-0.055
2837.0,-13.351,5.337,-0.123,4.995,5.015,-0.245
2841.0,-13.351,5.337,-0.123,4.995,5.015,-0.245
2845.0,-13.69,5.835,-0.526,4.995,5.015,-0.476
2849.0,-13.69,5.835,-0.526,4.995,5.015,-0.476
2853.0,-13.69,5.835,-0.526,4.995,5.015,-0.476
2857.0,-14.184,6.063,-0.719,4.995,5.015,-0.721
2861.0,-14.184,6.063,-0.719,4.995,5.015,-0.721
2865.0,-14.601,5.861,-0.873,4.995,5.015,-0.934
2869.0,-14.601,5.861,-0.873,4.995,5.015,-0.934
2873.0,-14.601,5.861,-0.873,4.995,5.015,-0.934
2877.0,-15.171,5.396,-0.994,4.995,5.015,-1.103
2881.0,-15.171,5.396,-0.994,4.995,5.015,-1.103
2885.0,-16.668,4.957,-1.229,4.995,5.015,-1.233
2889.0,-16.668,4.957,-1.229,4.995,5.015,-1.233
2893.0,-16.668,4.957,-1.229,4.995,5.015,-1.233
2897.0,-19.014,4.7,-1.362,4.995,5.015,-1.336
2901.0,-19.014,4.7,-1.362,4.995,5.015,-1.336
2905.0,-19.6,4.676,-1.168,4.995,4.9,-1.423
2909.0,-19.6,4.676,-1.168,4.995,4.9,-1.423
2913.0,-19.6,4.676,-1.044,4.995,4.9,-1.423
2917.0,-19.6,4.813,-1.044,4.995,4.462,-1.493
2921.0,-19.6,4.813,-1.044,4.995,4.462,-1.493
2925.0,-19.6,4.941,-1.143,4.995,3.877,-1.587
2929.0,-19.6,4.941,-1.143,4.995,3.877,-1.587
2933.0,-19.6,5.149,-2.247,4.995,3.877,-1.587
2937.0,-19.201,5.149,-2.247,4.995,3.32,-1.753
2941.0,-19.201,5.149,-2.247,4.995,3.32,-1.753
2945.0,-17.754,5.518,-3.674,4.995,2.891,-1.983
2949.0,-17.754,5.518,-3.674,4.995,2.891,-1.983
2953.0,-17.489,5.95,-4.835,4.995,2.891,-1.983
2957.0,-17.489,5.95,-4.835,4.995,2.562,-2.224
2961.0,-17.489,5.95,-4.835,4.995,2.562,-2.224
2965.0,-17.913,6.481,-5.515,4.995,2.267,-2.43
2969.0,-17.913,6.481,-5.515,4.995,2.267,-2.43
2973.0,-18.326,6.925,-5.937,4.995,2.267,-2.597
2977.0,-18.326,6.925,-5.937,4.995,1.954,-2.597
2981.0,-18.326,6.925,-5.937,4.995,1.954,-2.597
2985.0,-18.852,7.754,-6.239,4.995,1.616,-2.743
2989.0,-18.852,7.754,-6.239,4.995,1.616,-2.743
2993.0,-18.942,8.241,-6.376,4.995,1.262,-2.876
2997.0,-18.942,8.241,-6.376,4.995,1.262,-2.876
