deltaTime,Acc_X,Acc_Y,Acc_Z,Gyro_X,Gyro_Y,Gyro_Z
0.0,-2.703,3.334,8.87,0.016,-0.453,-0.25
2.0,-2.703,3.334,8.87,0.016,-0.453,-0.25
5.0,-2.634,4.021,9.539,0.113,-0.452,-0.223
8.0,-2.634,4.021,9.539,0.113,-0.452,-0.223
11.0,-2.634,4.021,9.539,0.113,-0.452,-0.223
14.0,-2.569,4.557,10.445,0.113,-0.452,-0.223
17.0,-2.569,4.557,10.445,0.165,-0.442,-0.174
20.0,-2.569,4.557,10.445,0.165,-0.442,-0.174
23.0,-2.569,4.557,10.445,0.165,-0.442,-0.174
26.0,-2.639,4.524,11.45,0.18,-0.455,-0.17
29.0,-2.639,4.524,11.45,0.18,-0.455,-0.17
32.0,-2.639,4.524,11.45,0.18,-0.455,-0.17
36.0,-2.133,4.532,12.306,0.262,-0.522,-0.229
40.0,-2.133,4.532,12.306,0.262,-0.522,-0.229
44.0,-2.133,4.532,12.978,0.262,-0.522,-0.229
48.0,-2.456,4.877,12.978,0.389,-0.51,-0.349
51.0,-2.456,4.877,12.978,0.389,-0.51,-0.349
55.0,-3.205,5.242,13.329,0.506,-0.449,-0.49
59.0,-3.205,5.242,13.329,0.506,-0.449,-0.49
63.0,-3.205,5.242,13.329,0.506,-0.449,-0.49
67.0,-3.863,6.415,13.43,0.689,-0.473,-0.571
70.0,-3.863,6.415,13.43,0.689,-0.473,-0.571
74.0,-4.217,7.966,13.424,0.809,-0.466,-0.548
78.0,-4.217,7.966,13.424,0.809,-0.466,-0.548
82.0,-4.217,7.966,13.424,0.809,-0.466,-0.548
86.0,-4.552,8.798,13.819,0.744,-0.438,-0.451
90.0,-4.552,8.798,13.819,0.744,-0.438,-0.451
93.0,-5.472,8.754,14.575,0.744,-0.438,-0.451
97.0,-5.472,8.754,14.575,0.514,-0.424,-0.322
101.0,-5.472,8.754,14.575,0.514,-0.424,-0.322
105.0,-6.389,7.886,15.35,0.222,-0.487,-0.202
109.0,-6.389,7.886,15.35,0.222,-0.487,-0.202
113.0,-6.389,7.886,15.619,0.222,-0.487,-0.202
117.0,-6.772,7.169,15.619,-0.038,-0.603,-0.122
121.0,-6.772,7.169,15.619,-0.038,-0.603,-0.122
125.0,-6.462,6.351,15.877,-0.28,-0.704,-0.089
129.0,-6.462,6.351,15.877,-0.28,-0.704,-0.089
133.0,-6.462,5.588,16.0,-0.28,-0.704,-0.089
137.0,-6.028,5.588,16.0,-0.376,-0.821,-0.103
141.0,-6.028,5.588,16.0,-0.376,-0.821,-0.103
145.0,-5.324,5.638,15.256,-0.288,-0.985,-0.078
149.0,-5.324,5.638,15.256,-0.288,-0.985,-0.078
153.0,-3.869,5.647,14.301,-0.288,-0.985,-0.078
157.0,-3.869,5.647,14.301,-0.149,-1.119,0.042
160.0,-3.869,5.647,14.301,-0.149,-1.119,0.042
164.0,-2.627,5.343,13.704,-0.041,-1.214,0.194
168.0,-2.627,5.343,13.704,-0.041,-1.214,0.194
172.0,-2.627,4.869,13.453,-0.041,-1.214,0.194
176.0,-1.858,4.869,13.453,0.021,-1.309,0.312
180.0,-1.858,4.869,13.453,0.021,-1.309,0.312
184.0,-1.908,4.549,13.261,0.034,-1.406,0.407
188.0,-1.908,4.549,13.261,0.034,-1.406,0.407
191.0,-1.908,4.549,13.261,0.034,-1.406,0.407
195.0,-2.624,3.945,13.056,-0.049,-1.485,0.53
199.0,-2.624,3.945,13.056,-0.049,-1.485,0.53
203.0,-3.135,2.578,12.996,-0.183,-1.547,0.675
207.0,-3.135,2.578,12.996,-0.183,-1.547,0.675
211.0,-3.135,2.578,12.996,-0.183,-1.547,0.675
215.0,-3.161,1.392,12.589,-0.296,-1.599,0.835
219.0,-3.161,1.392,12.589,-0.296,-1.599,0.835
223.0,-3.029,-0.105,12.005,-0.47,-1.572,1.034
227.0,-3.029,-0.105,12.005,-0.47,-1.572,1.034
231.0,-3.029,-0.105,12.005,-0.47,-1.572,1.034
235.0,-2.547,-1.57,11.797,-0.721,-1.427,1.184
238.0,-2.547,-1.57,11.797,-0.721,-1.427,1.184
242.0,-1.824,-3.263,11.981,-0.936,-1.232,1.142
246.0,-1.824,-3.263,11.981,-0.936,-1.232,1.142
250.0,-1.824,-3.263,11.981,-0.936,-1.232,1.142
254.0,-1.502,-4.226,12.293,-0.938,-1.047,0.914
258.0,-1.502,-4.226,12.293,-0.938,-1.047,0.914
262.0,-1.487,-4.088,12.211,-0.716,-0.87,0.63
266.0,-1.487,-4.088,12.211,-0.716,-0.87,0.63
270.0,-1.487,-4.088,12.211,-0.716,-0.87,0.63
274.0,-0.97,-3.787,12.365,-0.416,-0.671,0.375
278.0,-0.97,-3.787,12.365,-0.416,-0.671,0.375
282.0,-1.351,-3.421,11.938,-0.082,-0.459,0.201
286.0,-1.351,-3.421,11.938,-0.082,-0.459,0.201
290.0,-1.351,-3.421,11.287,-0.082,-0.459,0.201
294.0,-1.466,-2.837,11.287,0.207,-0.325,0.038
298.0,-1.466,-2.837,11.287,0.207,-0.325,0.038
302.0,-1.436,-2.61,11.179,0.395,-0.186,-0.117
306.0,-1.436,-2.61,11.179,0.395,-0.186,-0.117
310.0,-1.436,-2.61,11.381,0.395,-0.186,-0.117
314.0,-1.826,-1.944,11.381,0.508,-0.027,-0.233
318.0,-1.826,-1.944,11.381,0.508,-0.027,-0.233
322.0,-1.996,-1.563,11.535,0.551,0.088,-0.348
326.0,-1.996,-1.563,11.535,0.551,0.088,-0.348
330.0,-1.996,-1.563,11.663,0.551,0.088,-0.348
334.0,-1.717,-1.265,11.663,0.596,0.182,-0.43
338.0,-1.717,-1.265,11.663,0.596,0.182,-0.43
342.0,-1.381,-1.335,11.831,0.668,0.265,-0.465
346.0,-1.381,-1.335,11.831,0.668,0.265,-0.465
350.0,-1.381,-1.335,11.831,0.668,0.265,-0.465
353.0,-1.631,-1.269,11.885,0.776,0.335,-0.468
357.0,-1.631,-1.269,11.885,0.776,0.335,-0.468
361.0,-2.104,-1.048,11.889,0.904,0.374,-0.449
365.0,-2.104,-1.048,11.889,0.904,0.374,-0.449
369.0,-2.104,-1.048,11.889,0.904,0.374,-0.449
373.0,-2.288,-0.685,11.723,1.031,0.353,-0.444
377.0,-2.288,-0.685,11.723,1.031,0.353,-0.444
381.0,-2.063,-0.253,11.428,1.13,0.29,-0.464
385.0,-2.063,-0.253,11.428,1.13,0.29,-0.464
389.0,-2.063,-0.253,11.428,1.13,0.29,-0.464
392.0,-1.586,0.142,10.933,1.193,0.204,-0.505
396.0,-1.586,0.142,10.933,1.193,0.204,-0.505
400.0,-1.05,0.435,10.454,1.211,0.115,-0.558
404.0,-1.05,0.435,10.454,1.211,0.115,-0.558
408.0,-1.05,0.435,10.454,1.211,0.115,-0.558
412.0,-0.597,0.485,10.097,1.181,0.037,-0.615
415.0,-0.597,0.485,10.097,1.181,0.037,-0.615
419.0,-0.28,0.324,9.852,1.181,0.037,-0.615
423.0,-0.28,0.324,9.852,1.121,-0.033,-0.686
427.0,-0.28,0.324,9.852,1.121,-0.033,-0.686
431.0,-0.14,0.178,9.841,1.067,-0.114,-0.792
434.0,-0.14,0.178,9.841,1.067,-0.114,-0.792
438.0,-0.14,0.178,9.841,1.067,-0.114,-0.792
442.0,-0.127,0.235,9.744,1.043,-0.23,-0.921
446.0,-0.127,0.235,9.744,1.043,-0.23,-0.921
450.0,-0.108,0.396,9.477,1.039,-0.364,-1.039
454.0,-0.108,0.396,9.477,1.039,-0.364,-1.039
457.0,-0.108,0.396,9.477,1.039,-0.364,-1.039
461.0,0.063,0.566,9.191,1.036,-0.509,-1.124
465.0,0.063,0.566,9.191,1.036,-0.509,-1.124
469.0,0.216,0.628,9.01,1.036,-0.509,-1.179
472.0,0.216,0.628,9.01,1.045,-0.669,-1.179
476.0,0.216,0.628,9.01,1.045,-0.669,-1.179
480.0,0.277,0.628,8.786,1.081,-0.84,-1.228
484.0,0.277,0.628,8.786,1.081,-0.84,-1.228
487.0,0.277,0.628,8.786,1.081,-0.84,-1.228
491.0,0.105,0.806,8.752,1.154,-1.013,-1.292
495.0,0.105,0.806,8.752,1.154,-1.013,-1.292
498.0,-0.632,1.295,9.059,1.154,-1.215,-1.342
502.0,-0.632,1.295,9.059,1.257,-1.215,-1.342
506.0,-0.632,1.295,9.059,1.257,-1.215,-1.342
510.0,-1.783,1.715,9.056,1.374,-1.479,-1.326
514.0,-1.783,1.715,9.056,1.374,-1.479,-1.326
518.0,-1.783,2.036,8.817,1.374,-1.479,-1.326
521.0,-2.891,2.036,8.817,1.479,-1.786,-1.232
525.0,-2.891,2.036,8.817,1.479,-1.786,-1.232
529.0,-3.489,2.295,8.303,1.551,-2.109,-1.09
533.0,-3.489,2.295,8.303,1.551,-2.109,-1.09
537.0,-3.489,2.295,8.303,1.551,-2.109,-1.09
540.0,-3.474,2.59,7.722,1.582,-2.414,-0.94
544.0,-3.474,2.59,7.722,1.582,-2.414,-0.94
548.0,-3.354,2.92,7.25,1.583,-2.672,-0.823
552.0,-3.354,2.92,7.25,1.583,-2.672,-0.823
556.0,-3.354,2.92,7.25,1.583,-2.672,-0.823
560.0,-3.345,3.336,6.817,1.571,-2.874,-0.749
563.0,-3.345,3.336,6.817,1.571,-2.874,-0.749
567.0,-3.296,3.883,6.702,1.571,-2.874,-0.749
571.0,-3.296,3.883,6.702,1.567,-3.002,-0.702
575.0,-3.296,3.883,6.702,1.567,-3.002,-0.702
579.0,-3.464,4.373,7.163,1.583,-3.068,-0.648
583.0,-3.464,4.373,7.163,1.583,-3.068,-0.648
586.0,-3.464,4.373,7.163,1.583,-3.068,-0.648
590.0,-3.774,4.717,7.417,1.64,-3.108,-0.576
594.0,-3.774,4.717,7.417,1.64,-3.108,-0.576
598.0,-3.95,5.27,7.659,1.755,-3.11,-0.509
602.0,-3.95,5.27,7.659,1.755,-3.11,-0.509
605.0,-3.95,5.27,7.659,1.755,-3.11,-0.509
609.0,-4.1,6.012,7.99,1.92,-3.093,-0.436
613.0,-4.1,6.012,7.99,1.92,-3.093,-0.436
617.0,-3.985,6.536,7.653,1.92,-3.071,-0.296
621.0,-3.985,6.536,7.653,2.093,-3.071,-0.296
625.0,-3.985,6.536,7.653,2.093,-3.071,-0.296
628.0,-3.348,6.878,7.135,2.238,-3.003,-0.106
632.0,-3.348,6.878,7.135,2.238,-3.003,-0.106
636.0,-3.348,6.878,6.736,2.238,-3.003,-0.106
640.0,-2.402,6.71,6.736,2.347,-2.862,0.081
644.0,-2.402,6.71,6.736,2.347,-2.862,0.081
647.0,-1.36,6.204,6.474,2.427,-2.653,0.232
651.0,-1.36,6.204,6.474,2.427,-2.653,0.232
655.0,-1.36,6.204,6.474,2.427,-2.653,0.232
658.0,-0.016,5.669,6.406,2.47,-2.396,0.344
662.0,-0.016,5.669,6.406,2.47,-2.396,0.344
666.0,1.427,5.125,6.689,2.47,-2.396,0.344
670.0,1.427,5.125,6.689,2.459,-2.091,0.418
673.0,1.427,5.125,6.689,2.459,-2.091,0.418
677.0,2.746,4.481,6.961,2.389,-1.747,0.417
681.0,2.746,4.481,6.961,2.389,-1.747,0.417
684.0,2.746,4.481,6.961,2.389,-1.747,0.417
688.0,3.779,3.854,7.089,2.271,-1.395,0.309
691.0,3.779,3.854,7.089,2.271,-1.395,0.309
695.0,3.779,3.854,7.01,2.271,-1.395,0.309
699.0,4.941,3.7,7.01,2.154,-1.122,0.106
702.0,4.941,3.7,7.01,2.154,-1.122,0.106
706.0,5.647,3.533,6.715,2.023,-0.828,-0.128
710.0,5.647,3.533,6.715,2.023,-0.828,-0.128
713.0,5.647,3.533,6.715,2.023,-0.828,-0.128
717.0,6.056,3.483,6.305,1.915,-0.533,-0.335
721.0,6.056,3.483,6.305,1.915,-0.533,-0.335
725.0,6.056,3.483,5.951,1.915,-0.533,-0.335
728.0,6.605,3.341,5.951,1.846,-0.238,-0.471
732.0,6.605,3.341,5.951,1.846,-0.238,-0.471
736.0,7.254,3.146,6.045,1.839,0.05,-0.558
740.0,7.254,3.146,6.045,1.839,0.05,-0.558
743.0,7.254,3.146,6.045,1.839,0.05,-0.558
747.0,7.422,3.106,6.272,1.904,0.308,-0.578
750.0,7.422,3.106,6.272,1.904,0.308,-0.578
754.0,7.422,3.106,6.272,1.904,0.308,-0.578
758.0,7.196,3.395,6.413,2.018,0.516,-0.521
761.0,7.196,3.395,6.413,2.018,0.516,-0.521
765.0,6.848,3.882,6.562,2.018,0.685,-0.414
769.0,6.848,3.882,6.562,2.155,0.685,-0.414
772.0,6.848,3.882,6.562,2.155,0.685,-0.414
776.0,6.081,4.829,6.68,2.292,0.813,-0.28
780.0,6.081,4.829,6.68,2.292,0.813,-0.28
783.0,6.081,4.829,6.68,2.292,0.813,-0.28
787.0,4.968,6.307,6.346,2.394,0.852,-0.126
791.0,4.968,6.307,6.346,2.394,0.852,-0.126
794.0,4.0,7.959,5.405,2.394,0.852,-0.126
798.0,4.0,7.959,5.405,2.406,0.825,0.068
801.0,4.0,7.959,5.405,2.406,0.825,0.068
805.0,3.607,9.205,4.737,2.302,0.849,0.32
809.0,3.607,9.205,4.737,2.302,0.849,0.32
812.0,3.607,9.205,4.737,2.302,0.849,0.32
816.0,3.145,10.015,4.516,2.114,0.949,0.58
819.0,3.145,10.015,4.516,2.114,0.949,0.58
823.0,3.145,10.015,4.516,2.114,0.949,0.58
827.0,2.41,11.048,4.427,1.875,1.066,0.82
830.0,2.41,11.048,4.427,1.875,1.066,0.82
834.0,1.436,12.277,4.58,1.875,1.066,1.066
838.0,1.436,12.277,4.58,1.625,1.202,1.066
841.0,1.436,12.277,4.58,1.625,1.202,1.066
845.0,0.504,13.51,4.915,1.411,1.334,1.33
848.0,0.504,13.51,4.915,1.411,1.334,1.33
852.0,0.504,13.51,4.915,1.411,1.334,1.33
856.0,-0.031,14.8,5.28,1.262,1.433,1.602
859.0,-0.031,14.8,5.28,1.262,1.433,1.602
863.0,-0.064,16.078,5.672,1.262,1.433,1.602
867.0,-0.064,16.078,5.672,1.186,1.499,1.891
871.0,-0.064,16.078,5.672,1.186,1.499,1.891
874.0,-0.006,17.062,6.015,1.184,1.568,2.204
878.0,-0.006,17.062,6.015,1.184,1.568,2.204
882.0,-0.006,17.062,6.015,1.184,1.568,2.204
886.0,-0.167,17.678,6.203,1.223,1.675,2.547
889.0,-0.167,17.678,6.203,1.223,1.675,2.547
893.0,-0.634,18.059,6.334,1.223,1.675,2.878
897.0,-0.634,18.059,6.334,1.274,1.825,2.878
901.0,-0.634,18.059,6.334,1.274,1.825,2.878
904.0,-1.277,18.194,6.354,1.296,1.979,3.183
908.0,-1.277,18.194,6.354,1.296,1.979,3.183
912.0,-1.277,18.194,6.354,1.296,1.979,3.183
915.0,-1.739,18.057,6.44,1.255,2.096,3.477
919.0,-1.739,18.057,6.44,1.255,2.096,3.477
923.0,-1.959,17.719,6.328,1.255,2.154,3.743
927.0,-1.959,17.719,6.328,1.162,2.154,3.743
930.0,-1.959,17.719,6.328,1.162,2.154,3.743
934.0,-1.935,17.253,6.33,1.01,2.17,3.98
938.0,-1.935,17.253,6.33,1.01,2.17,3.98
942.0,-1.935,17.253,6.33,1.01,2.17,3.98
945.0,-1.999,16.637,6.553,0.785,2.201,4.193
949.0,-1.999,16.637,6.553,0.785,2.201,4.193
953.0,-2.454,16.065,6.545,0.513,2.287,4.321
957.0,-2.454,16.065,6.545,0.513,2.287,4.321
960.0,-2.454,16.065,6.545,0.513,2.287,4.321
964.0,-2.804,15.611,6.78,0.203,2.404,4.372
968.0,-2.804,15.611,6.78,0.203,2.404,4.372
971.0,-2.804,15.611,7.117,0.203,2.404,4.372
975.0,-2.766,15.075,7.117,-0.121,2.486,4.421
979.0,-2.766,15.075,7.117,-0.121,2.486,4.421
983.0,-2.68,14.39,7.1,-0.432,2.537,4.514
987.0,-2.68,14.39,7.1,-0.432,2.537,4.514
990.0,-2.68,14.39,7.1,-0.432,2.537,4.514
994.0,-2.292,13.369,6.943,-0.705,2.579,4.652
998.0,-2.292,13.369,6.943,-0.705,2.579,4.652
1002.0,-1.812,12.319,6.849,-0.705,2.608,4.803
1006.0,-1.812,12.319,6.849,-0.924,2.608,4.803
1010.0,-1.812,12.319,6.849,-0.924,2.608,4.803
1014.0,-1.717,11.294,6.912,-1.095,2.64,4.957
1018.0,-1.717,11.294,6.912,-1.095,2.64,4.957
1021.0,-2.246,10.276,6.833,-1.095,2.64,5.012
1025.0,-2.246,10.276,6.833,-1.237,2.676,5.012
1029.0,-2.246,10.276,6.833,-1.237,2.676,5.012
1033.0,-3.037,9.172,6.84,-1.368,2.702,5.013
1037.0,-3.037,9.172,6.84,-1.368,2.702,5.013
1041.0,-3.815,7.915,7.092,-1.368,2.702,5.013
1045.0,-3.815,7.915,7.092,-1.499,2.684,5.013
1048.0,-3.815,7.915,7.092,-1.499,2.684,5.013
1052.0,-4.87,6.579,7.002,-1.636,2.625,5.013
1056.0,-4.87,6.579,7.002,-1.636,2.625,5.013
1060.0,-4.87,6.579,7.002,-1.636,2.625,5.013
1064.0,-5.834,5.106,6.471,-1.775,2.541,5.013
1068.0,-5.834,5.106,6.471,-1.775,2.541,5.013
1071.0,-6.382,3.776,5.779,-1.918,2.44,5.013
1075.0,-6.382,3.776,5.779,-1.918,2.44,5.013
1079.0,-6.382,3.776,5.779,-1.918,2.44,5.013
1083.0,-6.944,2.496,5.032,-2.078,2.324,5.013
1087.0,-6.944,2.496,5.032,-2.078,2.324,5.013
1090.0,-7.529,1.149,4.145,-2.078,2.324,5.013
1094.0,-7.529,1.149,4.145,-2.271,2.174,5.013
1098.0,-7.529,1.149,4.145,-2.271,2.174,5.013
1102.0,-8.212,0.088,3.522,-2.506,1.999,5.013
1106.0,-8.212,0.088,3.522,-2.506,1.999,5.013
1110.0,-8.212,0.088,3.131,-2.506,1.999,5.013
1113.0,-9.269,-1.108,3.131,-2.773,1.788,5.013
1117.0,-9.269,-1.108,3.131,-2.773,1.788,5.013
1121.0,-10.653,-2.847,2.751,-3.056,1.522,5.013
1125.0,-10.653,-2.847,2.751,-3.056,1.522,5.013
1129.0,-10.653,-2.847,2.751,-3.056,1.522,5.013
1133.0,-12.119,-5.317,2.107,-3.324,1.18,5.013
1137.0,-12.119,-5.317,2.107,-3.324,1.18,5.013
1141.0,-13.326,-8.314,1.006,-3.496,0.771,5.013
1145.0,-13.326,-8.314,1.006,-3.496,0.771,5.013
1149.0,-13.326,-8.314,-0.096,-3.496,0.771,5.013
1153.0,-13.683,-10.969,-0.096,-3.467,0.329,5.013
1157.0,-13.683,-10.969,-0.096,-3.467,0.329,5.013
1162.0,-12.691,-12.584,-0.631,-3.184,-0.065,5.012
1166.0,-12.691,-12.584,-0.631,-3.184,-0.065,5.012
1170.0,-10.518,-13.703,-0.8,-2.714,-0.359,4.857
1174.0,-10.518,-13.703,-0.8,-2.714,-0.359,4.857
1179.0,-10.518,-13.703,-0.8,-2.714,-0.359,4.857
1183.0,-7.71,-14.282,-1.117,-2.182,-0.558,4.348
1187.0,-7.71,-14.282,-1.117,-2.182,-0.558,4.348
1191.0,-4.637,-13.788,-1.412,-1.721,-0.67,3.692
1195.0,-4.637,-13.788,-1.412,-1.721,-0.67,3.692
1200.0,-1.365,-12.954,-1.72,-1.405,-0.69,3.001
1204.0,-1.365,-12.954,-1.72,-1.405,-0.69,3.001
1208.0,-1.365,-12.954,-1.72,-1.405,-0.69,3.001
1212.0,1.889,-12.517,-1.427,-1.113,-0.606,2.398
1216.0,1.889,-12.517,-1.427,-1.113,-0.606,2.398
1220.0,4.317,-12.762,-0.347,-0.692,-0.415,1.915
1224.0,4.317,-12.762,-0.347,-0.692,-0.415,1.915
1228.0,4.317,-13.157,0.762,-0.692,-0.415,1.915
1232.0,5.652,-13.157,0.762,-0.009,-0.316,1.574
1236.0,5.652,-13.157,0.762,-0.009,-0.316,1.574
1240.0,6.319,-13.698,1.409,0.823,-0.269,1.331
1244.0,6.319,-13.698,1.409,0.823,-0.269,1.331
1248.0,6.669,-13.539,1.717,0.823,-0.269,1.331
1252.0,6.669,-13.539,1.717,1.684,-0.208,1.096
1256.0,6.669,-13.539,1.717,1.684,-0.208,1.096
1260.0,6.952,-12.387,2.046,2.391,-0.171,0.862
1264.0,6.952,-12.387,2.046,2.391,-0.171,0.862
1268.0,6.952,-12.387,2.749,2.391,-0.171,0.862
1272.0,7.713,-10.714,2.749,2.807,-0.207,0.674
1275.0,7.713,-10.714,2.749,2.807,-0.207,0.674
1279.0,8.806,-9.115,3.449,2.901,-0.244,0.55
1283.0,8.806,-9.115,3.449,2.901,-0.244,0.55
1287.0,8.806,-9.115,3.449,2.901,-0.244,0.55
1291.0,10.018,-7.716,3.938,2.744,-0.277,0.455
1295.0,10.018,-7.716,3.938,2.744,-0.277,0.455
1299.0,10.968,-6.561,4.347,2.414,-0.275,0.361
1303.0,10.968,-6.561,4.347,2.414,-0.275,0.361
1306.0,10.968,-6.561,4.347,2.414,-0.275,0.361
1310.0,11.937,-5.691,4.847,1.991,-0.248,0.26
1314.0,11.937,-5.691,4.847,1.991,-0.248,0.26
1318.0,12.83,-5.2,5.559,1.532,-0.186,0.164
1322.0,12.83,-5.2,5.559,1.532,-0.186,0.164
1326.0,12.83,-5.2,5.559,1.532,-0.186,0.164
1330.0,12.779,-4.937,6.461,1.098,-0.098,0.065
1334.0,12.779,-4.937,6.461,1.098,-0.098,0.065
1338.0,11.946,-4.907,7.263,0.727,-0.034,-0.03
1342.0,11.946,-4.907,7.263,0.727,-0.034,-0.03
1346.0,11.946,-4.907,7.263,0.727,-0.034,-0.03
1350.0,10.823,-5.001,8.015,0.447,0.01,-0.129
1354.0,10.823,-5.001,8.015,0.447,0.01,-0.129
1357.0,10.335,-4.97,8.908,0.273,0.024,-0.227
1361.0,10.335,-4.97,8.908,0.273,0.024,-0.227
1365.0,10.335,-4.97,8.908,0.273,0.024,-0.227
1369.0,10.721,-4.813,9.762,0.193,-0.038,-0.306
1373.0,10.721,-4.813,9.762,0.193,-0.038,-0.306
1377.0,11.081,-4.601,9.99,0.183,-0.169,-0.354
1381.0,11.081,-4.601,9.99,0.183,-0.169,-0.354
1385.0,11.081,-4.601,9.99,0.183,-0.169,-0.354
1389.0,11.221,-4.417,9.756,0.227,-0.285,-0.359
1393.0,11.221,-4.417,9.756,0.227,-0.285,-0.359
1397.0,11.309,-4.171,9.867,0.313,-0.353,-0.339
1401.0,11.309,-4.171,9.867,0.313,-0.353,-0.339
1405.0,11.309,-4.171,9.867,0.313,-0.353,-0.339
1409.0,11.044,-3.746,10.128,0.431,-0.388,-0.33
1413.0,11.044,-3.746,10.128,0.431,-0.388,-0.33
1417.0,10.67,-3.361,9.989,0.553,-0.416,-0.303
1421.0,10.67,-3.361,9.989,0.553,-0.416,-0.303
1425.0,10.67,-3.361,9.989,0.553,-0.416,-0.303
1429.0,10.085,-3.031,10.029,0.659,-0.408,-0.253
1433.0,10.085,-3.031,10.029,0.659,-0.408,-0.253
1437.0,8.888,-2.879,10.184,0.737,-0.367,-0.165
1441.0,8.888,-2.879,10.184,0.737,-0.367,-0.165
1445.0,8.888,-2.816,9.89,0.737,-0.367,-0.165
1449.0,7.44,-2.816,9.89,0.79,-0.33,-0.07
1453.0,7.44,-2.816,9.89,0.79,-0.33,-0.07
1457.0,7.043,-2.585,9.382,0.803,-0.297,-0.02
1461.0,7.043,-2.585,9.382,0.803,-0.297,-0.02
1465.0,7.043,-2.585,9.341,0.803,-0.297,-0.02
1469.0,8.071,-2.027,9.341,0.767,-0.241,0.003
1473.0,8.071,-2.027,9.341,0.767,-0.241,0.003
1477.0,9.701,-1.334,9.662,0.703,-0.186,0.024
1480.0,9.701,-1.334,9.662,0.703,-0.186,0.024
1484.0,9.701,-1.334,9.662,0.703,-0.186,0.024
1488.0,10.546,-0.699,9.762,0.629,-0.11,0.049
1492.0,10.546,-0.699,9.762,0.629,-0.11,0.049
1496.0,10.297,-0.276,9.997,0.546,-0.001,0.111
1500.0,10.297,-0.276,9.997,0.546,-0.001,0.111
1504.0,10.297,-0.276,9.997,0.546,-0.001,0.111
1507.0,9.077,-0.185,10.329,0.456,0.106,0.199
1511.0,9.077,-0.185,10.329,0.456,0.106,0.199
1515.0,7.63,-0.71,9.667,0.456,0.18,0.294
1519.0,7.63,-0.71,9.667,0.364,0.18,0.294
1523.0,7.63,-0.71,9.667,0.364,0.18,0.294
1526.0,6.468,-1.277,8.268,0.285,0.255,0.305
1530.0,6.468,-1.277,8.268,0.285,0.255,0.305
1534.0,6.468,-1.277,8.268,0.285,0.255,0.305
1538.0,5.629,-1.273,7.422,0.22,0.381,0.206
1541.0,5.629,-1.273,7.422,0.22,0.381,0.206
1545.0,5.073,-0.907,7.657,0.158,0.547,0.116
1549.0,5.073,-0.907,7.657,0.158,0.547,0.116
1552.0,5.073,-0.907,7.657,0.158,0.547,0.116
1556.0,4.649,-0.708,8.313,0.115,0.725,0.1
1560.0,4.649,-0.708,8.313,0.115,0.725,0.1
1564.0,4.649,-0.708,8.825,0.115,0.725,0.1
1567.0,4.068,-0.613,8.825,0.121,0.877,0.104
1571.0,4.068,-0.613,8.825,0.121,0.877,0.104
1575.0,3.675,-0.449,9.047,0.174,0.976,0.127
1579.0,3.675,-0.449,9.047,0.174,0.976,0.127
1582.0,3.675,-0.449,9.047,0.174,0.976,0.127
1586.0,3.678,-0.15,9.243,0.265,0.997,0.192
1590.0,3.678,-0.15,9.243,0.265,0.997,0.192
1594.0,3.678,0.057,9.038,0.265,0.997,0.192
1597.0,4.29,0.057,9.038,0.371,0.947,0.292
1601.0,4.29,0.057,9.038,0.371,0.947,0.292
1604.0,5.155,0.363,8.479,0.444,0.851,0.395
1608.0,5.155,0.363,8.479,0.444,0.851,0.395
1612.0,5.155,0.363,8.479,0.444,0.851,0.395
1615.0,5.667,0.647,7.582,0.44,0.779,0.493
1619.0,5.667,0.647,7.582,0.44,0.779,0.493
1623.0,5.667,0.647,7.582,0.44,0.779,0.493
1626.0,5.566,0.842,6.821,0.352,0.809,0.585
1630.0,5.566,0.842,6.821,0.352,0.809,0.585
1634.0,4.925,1.07,6.482,0.352,0.939,0.655
1637.0,4.925,1.07,6.482,0.208,0.939,0.655
1641.0,4.925,1.07,6.482,0.208,0.939,0.655
1645.0,4.365,0.988,6.327,0.034,1.089,0.741
1648.0,4.365,0.988,6.327,0.034,1.089,0.741
1652.0,4.365,0.988,6.327,0.034,1.089,0.741
1655.0,3.936,0.626,6.176,-0.148,1.226,0.823
1659.0,3.936,0.626,6.176,-0.148,1.226,0.823
1663.0,3.513,-0.2,5.849,-0.148,1.226,0.884
1667.0,3.513,-0.2,5.849,-0.326,1.377,0.884
1671.0,3.513,-0.2,5.849,-0.326,1.377,0.884
1674.0,2.919,-1.289,5.874,-0.493,1.507,0.915
1678.0,2.919,-1.289,5.874,-0.493,1.507,0.915
1682.0,2.919,-1.289,5.874,-0.493,1.507,0.915
1686.0,2.2,-2.09,6.169,-0.63,1.559,0.884
1690.0,2.2,-2.09,6.169,-0.63,1.559,0.884
1694.0,1.621,-2.672,6.36,-0.72,1.54,0.832
1697.0,1.621,-2.672,6.36,-0.72,1.54,0.832
1701.0,1.621,-2.672,6.36,-0.72,1.54,0.832
1705.0,1.272,-3.051,6.516,-0.751,1.461,0.793
1709.0,1.272,-3.051,6.516,-0.751,1.461,0.793
1713.0,1.11,-3.527,6.718,-0.751,1.365,0.762
1716.0,1.11,-3.527,6.718,-0.737,1.365,0.762
1720.0,1.11,-3.527,6.718,-0.737,1.365,0.762
1724.0,1.044,-4.278,7.017,-0.712,1.298,0.721
1728.0,1.044,-4.278,7.017,-0.712,1.298,0.721
1732.0,1.044,-5.25,6.795,-0.712,1.298,0.721
1736.0,1.4,-5.25,6.795,-0.69,1.251,0.65
1739.0,1.4,-5.25,6.795,-0.69,1.251,0.65
1743.0,2.109,-6.103,6.162,-0.663,1.215,0.515
1747.0,2.109,-6.103,6.162,-0.663,1.215,0.515
1751.0,2.109,-6.103,6.162,-0.663,1.215,0.515
1755.0,2.529,-6.564,5.833,-0.627,1.2,0.322
1758.0,2.529,-6.564,5.833,-0.627,1.2,0.322
1762.0,2.593,-6.707,5.733,-0.565,1.215,0.128
1766.0,2.593,-6.707,5.733,-0.565,1.215,0.128
1770.0,2.593,-6.707,5.733,-0.565,1.215,0.128
1774.0,2.091,-6.497,6.126,-0.454,1.271,-0.053
1778.0,2.091,-6.497,6.126,-0.454,1.271,-0.053
1782.0,1.418,-6.027,6.472,-0.454,1.271,-0.173
1785.0,1.418,-6.027,6.472,-0.297,1.357,-0.173
1789.0,1.418,-6.027,6.472,-0.297,1.357,-0.173
1793.0,1.335,-6.012,6.787,-0.111,1.429,-0.208
1797.0,1.335,-6.012,6.787,-0.111,1.429,-0.208
1801.0,1.45,-6.182,7.221,-0.111,1.429,-0.208
1805.0,1.45,-6.182,7.221,0.106,1.452,-0.257
1809.0,1.45,-6.182,7.221,0.106,1.452,-0.257
1813.0,1.251,-6.317,7.46,0.365,1.422,-0.35
1816.0,1.251,-6.317,7.46,0.365,1.422,-0.35
1820.0,1.251,-6.317,7.46,0.365,1.422,-0.35
1824.0,0.936,-6.258,7.81,0.663,1.33,-0.459
1828.0,0.936,-6.258,7.81,0.663,1.33,-0.459
1832.0,0.964,-5.897,8.206,0.984,1.181,-0.567
1836.0,0.964,-5.897,8.206,0.984,1.181,-0.567
1839.0,0.964,-5.897,8.206,0.984,1.181,-0.567
1843.0,1.15,-5.339,8.697,1.301,1.007,-0.647
1847.0,1.15,-5.339,8.697,1.301,1.007,-0.647
1851.0,1.353,-4.703,8.849,1.301,0.84,-0.699
1855.0,1.353,-4.703,8.849,1.587,0.84,-0.699
1858.0,1.353,-4.703,8.849,1.587,0.84,-0.699
1862.0,2.042,-4.193,8.307,1.814,0.734,-0.73
1866.0,2.042,-4.193,8.307,1.814,0.734,-0.73
1870.0,2.042,-4.384,7.085,1.814,0.734,-0.73
1874.0,2.592,-4.384,7.085,1.962,0.743,-0.76
1878.0,2.592,-4.384,7.085,1.962,0.743,-0.76
1881.0,1.633,-4.423,6.726,2.055,0.732,-0.876
1885.0,1.633,-4.423,6.726,2.055,0.732,-0.876
1889.0,1.633,-4.423,6.726,2.055,0.732,-0.876
1893.0,0.121,-3.629,7.151,2.127,0.588,-1.102
1897.0,0.121,-3.629,7.151,2.127,0.588,-1.102
1900.0,-1.126,-2.306,8.191,2.147,0.376,-1.258
1904.0,-1.126,-2.306,8.191,2.147,0.376,-1.258
1908.0,-1.126,-2.306,8.191,2.147,0.376,-1.258
1912.0,-1.921,-1.499,9.569,2.124,0.201,-1.242
1916.0,-1.921,-1.499,9.569,2.124,0.201,-1.242
1920.0,-2.35,-1.138,10.666,2.112,0.12,-1.157
1924.0,-2.35,-1.138,10.666,2.112,0.12,-1.157
1928.0,-2.35,-1.138,10.666,2.112,0.12,-1.157
1932.0,-2.322,-0.827,11.175,2.104,0.116,-1.102
1936.0,-2.322,-0.827,11.175,2.104,0.116,-1.102
1940.0,-1.761,-0.463,11.227,2.053,0.159,-1.087
1944.0,-1.761,-0.463,11.227,2.053,0.159,-1.087
1948.0,-1.761,-0.463,11.227,2.053,0.159,-1.087
1952.0,-0.806,0.033,10.973,1.931,0.228,-1.091
1956.0,-0.806,0.033,10.973,1.931,0.228,-1.091
1960.0,-0.232,0.342,10.799,1.738,0.307,-1.097
1964.0,-0.232,0.342,10.799,1.738,0.307,-1.097
1968.0,-0.232,0.342,10.799,1.738,0.307,-1.097
1971.0,-0.26,0.612,10.887,1.495,0.326,-1.065
1975.0,-0.26,0.612,10.887,1.495,0.326,-1.065
1979.0,-0.493,0.973,11.061,1.251,0.275,-0.98
1983.0,-0.493,0.973,11.061,1.251,0.275,-0.98
1987.0,-0.493,0.973,11.061,1.251,0.275,-0.98
1991.0,-0.946,1.272,11.256,1.066,0.243,-0.856
1995.0,-0.946,1.272,11.256,1.066,0.243,-0.856
1999.0,-1.666,1.333,12.093,1.066,0.271,-0.709
2003.0,-1.666,1.333,12.093,0.972,0.271,-0.709
2007.0,-1.666,1.333,12.093,0.972,0.271,-0.709
2011.0,-2.432,1.218,13.258,0.981,0.33,-0.554
2014.0,-2.432,1.218,13.258,0.981,0.33,-0.554
2018.0,-3.121,0.937,14.341,0.981,0.33,-0.4
2022.0,-3.121,0.937,14.341,1.096,0.412,-0.4
2026.0,-3.121,0.937,14.341,1.096,0.412,-0.4
2030.0,-3.607,0.582,14.922,1.306,0.497,-0.253
2034.0,-3.607,0.582,14.922,1.306,0.497,-0.253
2038.0,-3.81,0.251,14.352,1.306,0.497,-0.253
2042.0,-3.81,0.251,14.352,1.581,0.599,-0.122
2046.0,-3.81,0.251,14.352,1.581,0.599,-0.122
2050.0,-4.008,0.281,13.077,1.886,0.77,-0.012
2053.0,-4.008,0.281,13.077,1.886,0.77,-0.012
2057.0,-4.008,1.038,12.418,1.886,0.77,-0.012
2061.0,-4.731,1.038,12.418,2.213,0.995,0.097
2065.0,-4.731,1.038,12.418,2.213,0.995,0.097
2069.0,-5.298,1.785,11.197,2.536,1.181,0.261
2073.0,-5.298,1.785,11.197,2.536,1.181,0.261
2077.0,-5.298,1.785,11.197,2.536,1.181,0.261
2080.0,-5.219,2.221,9.161,2.794,1.396,0.45
2084.0,-5.219,2.221,9.161,2.794,1.396,0.45
2088.0,-4.325,2.141,7.714,2.961,1.721,0.601
2092.0,-4.325,2.141,7.714,2.961,1.721,0.601
2095.0,-4.325,2.141,7.714,2.961,1.721,0.601
2099.0,-3.016,2.07,7.594,3.056,2.087,0.685
2103.0,-3.016,2.07,7.594,3.056,2.087,0.685
2107.0,-3.016,2.07,7.272,3.056,2.087,0.685
2110.0,-1.543,1.982,7.272,3.106,2.39,0.749
2114.0,-1.543,1.982,7.272,3.106,2.39,0.749
2118.0,-1.555,3.072,8.646,3.125,2.621,0.796
2121.0,-1.555,3.072,8.646,3.125,2.621,0.796
2125.0,-1.555,3.072,8.646,3.125,2.621,0.796
2129.0,-2.332,4.508,9.424,3.127,2.568,0.958
2133.0,-2.332,4.508,9.424,3.127,2.568,0.958
2136.0,-2.332,5.162,8.066,3.127,2.568,0.958
2140.0,-1.601,5.162,8.066,3.071,2.311,1.243
2144.0,-1.601,5.162,8.066,3.071,2.311,1.243
2148.0,0.684,5.559,5.87,2.944,2.159,1.45
2151.0,0.684,5.559,5.87,2.944,2.159,1.45
2155.0,0.684,5.559,5.87,2.944,2.159,1.45
2159.0,3.568,5.709,3.221,2.757,2.266,1.48
2162.0,3.568,5.709,3.221,2.757,2.266,1.48
2166.0,3.568,5.709,0.841,2.757,2.266,1.48
2169.0,5.76,5.645,0.841,2.519,2.709,1.347
2173.0,5.76,5.645,0.841,2.519,2.709,1.347
2177.0,6.202,5.637,-0.236,2.274,3.45,1.143
2180.0,6.202,5.637,-0.236,2.274,3.45,1.143
2184.0,6.202,5.637,-0.236,2.274,3.45,1.143
2188.0,4.95,5.27,0.092,2.09,4.302,0.972
2192.0,4.95,5.27,0.092,2.09,4.302,0.972
2195.0,4.95,5.27,0.092,2.09,4.302,0.972
2199.0,2.748,4.731,1.803,2.03,4.923,0.816
2203.0,2.748,4.731,1.803,2.03,4.923,0.816
2206.0,-0.392,4.991,4.768,2.136,5.015,0.603
2210.0,-0.392,4.991,4.768,2.136,5.015,0.603
2214.0,-0.392,4.991,4.768,2.136,5.015,0.603
2217.0,-3.26,5.231,6.661,2.419,5.015,0.421
2221.0,-3.26,5.231,6.661,2.419,5.015,0.421
2225.0,-3.26,5.231,6.661,2.419,5.015,0.421
2229.0,-5.382,4.549,6.772,2.822,5.015,0.263
2232.0,-5.382,4.549,6.772,2.822,5.015,0.263
2236.0,-7.412,3.939,5.917,3.275,5.015,-0.009
2240.0,-7.412,3.939,5.917,3.275,5.015,-0.009
2244.0,-7.412,3.939,5.917,3.275,5.015,-0.009
2248.0,-9.531,3.709,5.154,3.755,5.015,-0.406
2251.0,-9.531,3.709,5.154,3.755,5.015,-0.406
2255.0,-10.537,3.193,4.266,3.755,5.015,-0.406
2259.0,-10.537,3.193,4.266,4.266,5.008,-0.826
2263.0,-10.537,3.193,4.266,4.266,5.008,-0.826
2267.0,-10.673,2.954,2.977,4.787,4.848,-1.231
2271.0,-10.673,2.954,2.977,4.787,4.848,-1.231
2275.0,-10.251,3.31,1.548,4.787,4.848,-1.231
2279.0,-10.251,3.31,1.548,4.992,4.527,-1.587
2282.0,-10.251,3.31,1.548,4.992,4.527,-1.587
2286.0,-10.006,4.061,0.959,4.995,4.237,-1.87
2290.0,-10.006,4.061,0.959,4.995,4.237,-1.87
2294.0,-10.006,4.061,0.371,4.995,4.237,-1.87
2298.0,-10.311,4.241,0.371,4.995,4.006,-2.1
2302.0,-10.311,4.241,0.371,4.995,4.006,-2.1
2306.0,-10.833,4.224,-0.497,4.995,3.775,-2.358
2310.0,-10.833,4.224,-0.497,4.995,3.775,-2.358
2314.0,-10.833,4.224,-1.01,4.995,3.775,-2.358
2318.0,-11.717,4.408,-1.01,4.995,3.499,-2.683
2322.0,-11.717,4.408,-1.01,4.995,3.499,-2.683
2326.0,-12.867,4.976,-1.396,4.995,3.14,-3.054
2330.0,-12.867,4.976,-1.396,4.995,3.14,-3.054
2334.0,-12.867,5.864,-1.903,4.995,3.14,-3.054
2338.0,-13.677,5.864,-1.903,4.995,2.711,-3.397
2342.0,-13.677,5.864,-1.903,4.995,2.711,-3.397
2346.0,-13.409,6.523,-2.137,4.995,2.262,-3.61
2350.0,-13.409,6.523,-2.137,4.995,2.262,-3.61
2354.0,-12.026,7.524,-2.381,4.995,2.262,-3.61
2358.0,-12.026,7.524,-2.381,4.995,1.83,-3.659
2362.0,-12.026,7.524,-2.381,4.995,1.83,-3.659
2366.0,-9.829,8.152,-2.794,4.995,1.458,-3.531
2370.0,-9.829,8.152,-2.794,4.995,1.458,-3.531
2374.0,-7.616,8.246,-3.025,4.995,1.458,-3.303
2378.0,-7.616,8.246,-3.025,4.995,1.171,-3.303
2381.0,-7.616,8.246,-3.025,4.995,1.171,-3.303
2385.0,-5.757,7.966,-3.039,4.995,0.98,-3.061
2389.0,-5.757,7.966,-3.039,4.995,0.98,-3.061
2393.0,-4.383,7.286,-3.066,4.995,0.98,-3.061
2397.0,-4.383,7.286,-3.066,4.995,0.877,-2.874
2401.0,-4.383,7.286,-3.066,4.995,0.877,-2.874
2405.0,-3.501,6.489,-2.905,4.987,0.837,-2.774
2409.0,-3.501,6.489,-2.905,4.987,0.837,-2.774
2413.0,-3.501,6.489,-2.682,4.987,0.837,-2.774
2417.0,-3.282,5.813,-2.682,4.807,0.83,-2.786
2421.0,-3.282,5.813,-2.682,4.807,0.83,-2.786
2424.0,-3.733,5.377,-2.289,4.436,0.794,-2.908
2428.0,-3.733,5.377,-2.289,4.436,0.794,-2.908
2432.0,-3.733,5.377,-2.289,4.436,0.794,-2.908
2436.0,-4.581,5.209,-1.685,4.047,0.694,-3.096
2440.0,-4.581,5.209,-1.685,4.047,0.694,-3.096
2444.0,-5.881,5.776,-0.836,3.687,0.523,-3.278
2448.0,-5.881,5.776,-0.836,3.687,0.523,-3.278
2452.0,-5.881,5.776,-0.836,3.687,0.523,-3.278
2456.0,-7.083,6.603,-0.731,3.393,0.297,-3.343
2460.0,-7.083,6.603,-0.731,3.393,0.297,-3.343
2463.0,-7.487,7.283,-1.355,3.15,0.087,-3.282
2467.0,-7.487,7.283,-1.355,3.15,0.087,-3.282
2471.0,-7.487,7.283,-1.355,3.15,0.087,-3.282
2475.0,-7.295,7.385,-1.489,2.936,-0.068,-3.149
2479.0,-7.295,7.385,-1.489,2.936,-0.068,-3.149
2483.0,-6.601,7.299,-1.711,2.74,-0.172,-3.007
2487.0,-6.601,7.299,-1.711,2.74,-0.172,-3.007
2491.0,-6.601,7.299,-1.711,2.74,-0.172,-3.007
2495.0,-5.597,7.117,-2.111,2.545,-0.211,-2.875
2499.0,-5.597,7.117,-2.111,2.545,-0.211,-2.875
2503.0,-4.627,6.564,-1.94,2.316,-0.194,-2.76
2507.0,-4.627,6.564,-1.94,2.316,-0.194,-2.76
2511.0,-4.627,6.564,-1.94,2.316,-0.194,-2.76
2515.0,-4.144,5.984,-1.699,2.036,-0.174,-2.703
2519.0,-4.144,5.984,-1.699,2.036,-0.174,-2.703
2523.0,-4.455,5.858,-1.758,1.711,-0.175,-2.7
2527.0,-4.455,5.858,-1.758,1.711,-0.175,-2.7
2531.0,-4.455,5.858,-2.055,1.711,-0.175,-2.7
2535.0,-5.204,6.403,-2.055,1.362,-0.205,-2.705
2539.0,-5.204,6.403,-2.055,1.362,-0.205,-2.705
2543.0,-5.855,7.17,-2.19,1.009,-0.263,-2.665
2547.0,-5.855,7.17,-2.19,1.009,-0.263,-2.665
2551.0,-6.106,7.778,-2.284,1.009,-0.263,-2.665
2555.0,-6.106,7.778,-2.284,0.66,-0.359,-2.56
2559.0,-6.106,7.778,-2.284,0.66,-0.359,-2.56
2563.0,-6.045,8.069,-2.807,0.325,-0.469,-2.401
2567.0,-6.045,8.069,-2.807,0.325,-0.469,-2.401
2571.0,-5.867,7.918,-3.292,0.325,-0.469,-2.401
2575.0,-5.867,7.918,-3.292,0.009,-0.543,-2.214
2579.0,-5.867,7.918,-3.292,0.009,-0.543,-2.214
2583.0,-6.09,7.621,-3.472,-0.286,-0.559,-2.039
2587.0,-6.09,7.621,-3.472,-0.286,-0.559,-2.039
2591.0,-6.955,7.305,-3.595,-0.562,-0.529,-1.87
2595.0,-6.955,7.305,-3.595,-0.562,-0.529,-1.87
2599.0,-6.955,7.305,-3.595,-0.562,-0.529,-1.87
2603.0,-8.231,6.82,-3.709,-0.841,-0.473,-1.702
2607.0,-8.231,6.82,-3.709,-0.841,-0.473,-1.702
2612.0,-9.973,5.999,-3.887,-1.142,-0.398,-1.554
2616.0,-9.973,5.999,-3.887,-1.142,-0.398,-1.554
2620.0,-9.973,5.999,-3.887,-1.142,-0.398,-1.554
2624.0,-12.666,5.164,-4.295,-1.481,-0.302,-1.468
2628.0,-12.666,5.164,-4.295,-1.481,-0.302,-1.468
2632.0,-16.694,4.432,-4.676,-1.855,-0.202,-1.459
2636.0,-16.694,4.432,-4.676,-1.855,-0.202,-1.459
2640.0,-19.538,4.004,-4.688,-1.855,-0.148,-1.503
2645.0,-19.538,4.004,-4.688,-2.224,-0.148,-1.503
2649.0,-19.538,4.004,-4.688,-2.224,-0.148,-1.503
2653.0,-19.6,3.746,-4.125,-2.521,-0.185,-1.511
2657.0,-19.6,3.746,-4.125,-2.521,-0.185,-1.511
2661.0,-19.6,3.471,-3.378,-2.701,-0.278,-1.435
2665.0,-19.6,3.471,-3.378,-2.701,-0.278,-1.435
2670.0,-19.6,3.233,-3.253,-2.701,-0.278,-1.435
2674.0,-19.6,3.233,-3.253,-2.752,-0.345,-1.335
2678.0,-19.6,3.233,-3.253,-2.752,-0.345,-1.335
2682.0,-19.6,3.041,-3.509,-2.699,-0.336,-1.25
2686.0,-19.6,3.041,-3.509,-2.699,-0.336,-1.25
2690.0,-19.6,2.655,-3.683,-2.584,-0.264,-1.173
2695.0,-19.6,2.655,-3.683,-2.584,-0.264,-1.173
2699.0,-19.6,2.655,-3.376,-2.584,-0.264,-1.173
2703.0,-19.585,2.209,-3.376,-2.437,-0.157,-1.113
2707.0,-19.585,2.209,-3.376,-2.437,-0.157,-1.113
2711.0,-19.533,1.834,-2.806,-2.263,-0.038,-1.072
2715.0,-19.533,1.834,-2.806,-2.263,-0.038,-1.072
2720.0,-19.429,1.507,-2.209,-2.065,0.069,-1.034
2724.0,-19.429,1.507,-2.209,-2.065,0.069,-1.034
2728.0,-19.429,1.507,-2.209,-2.065,0.069,-1.034
2732.0,-19.071,1.385,-1.366,-1.841,0.13,-0.996
2736.0,-19.071,1.385,-1.366,-1.841,0.13,-0.996
2740.0,-18.719,1.43,-0.605,-1.593,0.11,-0.963
2744.0,-18.719,1.43,-0.605,-1.593,0.11,-0.963
2748.0,-18.719,1.43,-0.03,-1.593,0.11,-0.963
2752.0,-18.166,1.623,-0.03,-1.335,-0.006,-0.927
2756.0,-18.166,1.623,-0.03,-1.335,-0.006,-0.927
2761.0,-17.308,1.961,0.384,-1.085,-0.225,-0.88
2765.0,-17.308,1.961,0.384,-1.085,-0.225,-0.88
2769.0,-16.375,2.291,0.303,-1.085,-0.526,-0.815
2773.0,-16.375,2.291,0.303,-0.861,-0.526,-0.815
2777.0,-16.375,2.291,0.303,-0.861,-0.526,-0.815
2781.0,-15.401,2.401,-0.449,-0.696,-0.854,-0.713
2785.0,-15.401,2.401,-0.449,-0.696,-0.854,-0.713
2789.0,-14.126,2.375,-1.493,-0.622,-1.126,-0.593
2794.0,-14.126,2.375,-1.493,-0.622,-1.126,-0.593
2798.0,-14.126,2.319,-2.347,-0.622,-1.126,-0.593
2802.0,-12.562,2.319,-2.347,-0.63,-1.303,-0.493
2806.0,-12.562,2.319,-2.347,-0.63,-1.303,-0.493
2810.0,-11.119,2.173,-2.67,-0.681,-1.382,-0.423
2814.0,-11.119,2.173,-2.67,-0.681,-1.382,-0.423
2819.0,-9.976,1.836,-2.552,-0.736,-1.396,-0.363
2823.0,-9.976,1.836,-2.552,-0.736,-1.396,-0.363
2827.0,-9.976,1.836,-2.552,-0.736,-1.396,-0.363
2831.0,-9.062,1.277,-2.325,-0.783,-1.396,-0.306
2835.0,-9.062,1.277,-2.325,-0.783,-1.396,-0.306
2839.0,-8.51,0.624,-2.202,-0.826,-1.394,-0.265
2843.0,-8.51,0.624,-2.202,-0.826,-1.394,-0.265
2847.0,-8.51,0.084,-2.072,-0.826,-1.394,-0.265
2851.0,-8.237,0.084,-2.072,-0.868,-1.37,-0.248
2855.0,-8.237,0.084,-2.072,-0.868,-1.37,-0.248
2859.0,-8.1,-0.285,-1.805,-0.911,-1.333,-0.251
2863.0,-8.1,-0.285,-1.805,-0.911,-1.333,-0.251
2868.0,-7.927,-0.649,-1.48,-0.958,-1.301,-0.259
2872.0,-7.927,-0.649,-1.48,-0.958,-1.301,-0.259
2876.0,-7.927,-0.649,-1.48,-0.958,-1.301,-0.259
2880.0,-7.752,-1.062,-1.155,-1.009,-1.261,-0.269
2884.0,-7.752,-1.062,-1.155,-1.009,-1.261,-0.269
2888.0,-7.751,-1.555,-0.813,-1.057,-1.197,-0.274
2893.0,-7.751,-1.555,-0.813,-1.057,-1.197,-0.274
2897.0,-7.839,-2.234,-0.491,-1.057,-1.197,-0.251
2901.0,-7.839,-2.234,-0.491,-1.082,-1.098,-0.251
2905.0,-7.839,-2.234,-0.491,-1.082,-1.098,-0.251
2909.0,-8.1,-3.16,-0.313,-1.068,-0.983,-0.2
2913.0,-8.1,-3.16,-0.313,-1.068,-0.983,-0.2
2918.0,-8.552,-4.032,-0.269,-1.006,-0.891,-0.13
2922.0,-8.552,-4.032,-0.269,-1.006,-0.891,-0.13
2926.0,-8.552,-4.032,-0.263,-1.006,-0.891,-0.13
2930.0,-8.928,-4.644,-0.263,-0.899,-0.829,-0.044
2934.0,-8.928,-4.644,-0.263,-0.899,-0.829,-0.044
2938.0,-9.01,-5.088,-0.118,-0.763,-0.801,0.054
2943.0,-9.01,-5.088,-0.118,-0.763,-0.801,0.054
2947.0,-8.806,-5.462,0.075,-0.593,-0.801,0.154
2951.0,-8.806,-5.462,0.075,-0.593,-0.801,0.154
2955.0,-8.806,-5.462,0.075,-0.593,-0.801,0.154
2959.0,-8.573,-5.789,0.377,-0.389,-0.828,0.236
2963.0,-8.573,-5.789,0.377,-0.389,-0.828,0.236
2967.0,-8.538,-5.926,0.603,-0.167,-0.867,0.277
2971.0,-8.538,-5.926,0.603,-0.167,-0.867,0.277
2975.0,-8.538,-5.926,0.603,-0.167,-0.867,0.277
2979.0,-8.624,-5.755,0.769,0.055,-0.913,0.276
2982.0,-8.624,-5.755,0.769,0.055,-0.913,0.276
2986.0,-8.533,-5.447,0.69,0.255,-0.962,0.256
2990.0,-8.533,-5.447,0.69,0.255,-0.962,0.256
2994.0,-8.533,-5.447,0.69,0.255,-0.962,0.256
2998.0,-8.064,-5.183,0.379,0.411,-0.986,0.219
