deltaTime,Acc_X,Acc_Y,Acc_Z,Gyro_X,Gyro_Y,Gyro_Z
0.0,-0.029,2.807,10.068,0.169,-0.343,-0.475
3.0,-0.029,2.807,10.068,0.169,-0.343,-0.475
6.0,-0.273,2.544,9.65,0.169,-0.343,-0.432
9.0,-0.273,2.544,9.65,0.091,-0.294,-0.432
12.0,-0.273,2.544,9.65,0.091,-0.294,-0.432
15.0,-0.273,2.544,9.65,0.091,-0.294,-0.432
18.0,0.429,2.643,9.644,0.019,-0.33,-0.422
21.0,0.429,2.643,9.644,0.019,-0.33,-0.422
24.0,0.429,2.643,9.644,0.019,-0.33,-0.422
27.0,0.447,2.819,9.572,-0.092,-0.28,-0.439
30.0,0.447,2.819,9.572,-0.092,-0.28,-0.439
33.0,0.447,2.819,9.572,-0.092,-0.28,-0.439
36.0,0.625,2.868,9.558,-0.092,-0.239,-0.48
40.0,0.625,2.868,9.558,-0.231,-0.239,-0.48
43.0,0.625,2.868,9.558,-0.231,-0.239,-0.48
47.0,0.85,2.755,9.858,-0.398,-0.175,-0.555
51.0,0.85,2.755,9.858,-0.398,-0.175,-0.555
55.0,0.85,2.755,9.858,-0.398,-0.175,-0.555
58.0,0.861,2.758,10.563,-0.534,-0.097,-0.663
62.0,0.861,2.758,10.563,-0.534,-0.097,-0.663
66.0,0.394,2.742,11.186,-0.606,-0.046,-0.779
70.0,0.394,2.742,11.186,-0.606,-0.046,-0.779
74.0,0.394,2.742,11.186,-0.606,-0.046,-0.779
77.0,0.023,2.396,11.468,-0.584,-0.054,-0.869
81.0,0.023,2.396,11.468,-0.584,-0.054,-0.869
85.0,-0.106,2.439,11.584,-0.584,-0.054,-0.919
89.0,-0.106,2.439,11.584,-0.48,-0.075,-0.919
93.0,-0.106,2.439,11.584,-0.48,-0.075,-0.919
97.0,-0.055,2.719,11.401,-0.387,-0.079,-0.917
101.0,-0.055,2.719,11.401,-0.387,-0.079,-0.917
105.0,0.044,3.139,11.311,-0.387,-0.079,-0.917
109.0,0.044,3.139,11.311,-0.379,-0.067,-0.895
113.0,0.044,3.139,11.311,-0.379,-0.067,-0.895
116.0,0.114,3.273,11.128,-0.42,-0.059,-0.869
120.0,0.114,3.273,11.128,-0.42,-0.059,-0.869
124.0,0.088,3.151,10.984,-0.42,-0.059,-0.869
128.0,0.088,3.151,10.984,-0.456,-0.042,-0.85
132.0,0.088,3.151,10.984,-0.456,-0.042,-0.85
136.0,0.004,3.172,10.936,-0.461,0.004,-0.82
140.0,0.004,3.172,10.936,-0.461,0.004,-0.82
144.0,0.004,3.172,10.936,-0.461,0.004,-0.82
147.0,-0.368,3.243,11.138,-0.453,0.07,-0.775
151.0,-0.368,3.243,11.138,-0.453,0.07,-0.775
155.0,-0.873,3.394,11.748,-0.411,0.143,-0.714
159.0,-0.873,3.394,11.748,-0.411,0.143,-0.714
163.0,-0.873,3.394,11.748,-0.411,0.143,-0.714
167.0,-1.23,3.426,12.582,-0.28,0.192,-0.643
171.0,-1.23,3.426,12.582,-0.28,0.192,-0.643
175.0,-1.877,3.654,12.98,-0.031,0.165,-0.582
179.0,-1.877,3.654,12.98,-0.031,0.165,-0.582
183.0,-1.877,3.654,12.98,-0.031,0.165,-0.582
186.0,-2.466,4.091,13.017,0.29,0.053,-0.519
190.0,-2.466,4.091,13.017,0.29,0.053,-0.519
194.0,-2.943,5.092,12.539,0.566,-0.132,-0.449
198.0,-2.943,5.092,12.539,0.566,-0.132,-0.449
202.0,-2.943,5.092,12.539,0.566,-0.132,-0.449
206.0,-2.908,5.782,12.02,0.685,-0.309,-0.368
210.0,-2.908,5.782,12.02,0.685,-0.309,-0.368
214.0,-2.642,5.878,11.566,0.685,-0.428,-0.267
218.0,-2.642,5.878,11.566,0.649,-0.428,-0.267
221.0,-2.642,5.878,11.566,0.649,-0.428,-0.267
225.0,-2.255,5.495,11.455,0.506,-0.517,-0.185
229.0,-2.255,5.495,11.455,0.506,-0.517,-0.185
233.0,-2.222,4.881,11.379,0.506,-0.517,-0.142
237.0,-2.222,4.881,11.379,0.344,-0.581,-0.142
241.0,-2.222,4.881,11.379,0.344,-0.581,-0.142
245.0,-2.317,4.333,11.317,0.233,-0.627,-0.115
249.0,-2.317,4.333,11.317,0.233,-0.627,-0.115
253.0,-2.417,3.878,11.403,0.233,-0.627,-0.115
257.0,-2.417,3.878,11.403,0.202,-0.661,-0.09
261.0,-2.417,3.878,11.403,0.202,-0.661,-0.09
264.0,-2.426,3.59,11.97,0.26,-0.692,-0.065
268.0,-2.426,3.59,11.97,0.26,-0.692,-0.065
272.0,-2.426,2.9,12.668,0.26,-0.692,-0.065
276.0,-2.49,2.9,12.668,0.421,-0.726,-0.035
280.0,-2.49,2.9,12.668,0.421,-0.726,-0.035
284.0,-2.69,2.195,13.049,0.691,-0.78,-0.009
288.0,-2.69,2.195,13.049,0.691,-0.78,-0.009
292.0,-2.69,2.195,13.092,0.691,-0.78,-0.009
296.0,-2.834,1.937,13.092,1.055,-0.851,0.012
300.0,-2.834,1.937,13.092,1.055,-0.851,0.012
303.0,-2.628,1.805,13.117,1.461,-0.919,0.036
307.0,-2.628,1.805,13.117,1.461,-0.919,0.036
311.0,-2.628,1.805,13.117,1.461,-0.919,0.036
315.0,-2.246,1.664,12.871,1.878,-0.975,0.064
319.0,-2.246,1.664,12.871,1.878,-0.975,0.064
322.0,-1.901,1.65,12.261,2.273,-1.023,0.081
326.0,-1.901,1.65,12.261,2.273,-1.023,0.081
330.0,-1.901,1.65,12.261,2.273,-1.023,0.081
334.0,-1.591,1.793,11.639,2.603,-1.049,0.073
338.0,-1.591,1.793,11.639,2.603,-1.049,0.073
342.0,-1.324,2.105,11.121,2.603,-1.049,0.073
345.0,-1.324,2.105,11.121,2.849,-1.049,0.027
349.0,-1.324,2.105,11.121,2.849,-1.049,0.027
353.0,-1.11,2.514,10.635,3.018,-1.043,-0.077
357.0,-1.11,2.514,10.635,3.018,-1.043,-0.077
361.0,-1.11,2.514,10.635,3.018,-1.043,-0.077
365.0,-0.837,2.813,10.138,3.124,-1.045,-0.228
369.0,-0.837,2.813,10.138,3.124,-1.045,-0.228
373.0,-0.493,3.017,9.604,3.174,-1.026,-0.384
376.0,-0.493,3.017,9.604,3.174,-1.026,-0.384
380.0,-0.493,3.017,9.604,3.174,-1.026,-0.384
384.0,-0.139,3.014,9.197,3.185,-0.963,-0.531
388.0,-0.139,3.014,9.197,3.185,-0.963,-0.531
392.0,0.059,2.907,8.912,3.193,-0.878,-0.698
395.0,0.059,2.907,8.912,3.193,-0.878,-0.698
399.0,0.059,2.907,8.912,3.193,-0.878,-0.698
403.0,-0.066,2.925,8.561,3.235,-0.813,-0.902
407.0,-0.066,2.925,8.561,3.235,-0.813,-0.902
410.0,-0.066,2.94,8.024,3.235,-0.813,-0.902
414.0,-0.161,2.94,8.024,3.31,-0.772,-1.084
418.0,-0.161,2.94,8.024,3.31,-0.772,-1.084
422.0,-0.049,2.789,7.51,3.404,-0.707,-1.188
426.0,-0.049,2.789,7.51,3.404,-0.707,-1.188
430.0,-0.049,2.789,7.51,3.404,-0.707,-1.188
433.0,-0.004,2.784,7.206,3.54,-0.619,-1.253
437.0,-0.004,2.784,7.206,3.54,-0.619,-1.253
441.0,-0.313,3.255,6.76,3.737,-0.571,-1.317
445.0,-0.313,3.255,6.76,3.737,-0.571,-1.317
449.0,-0.313,3.255,6.76,3.737,-0.571,-1.317
452.0,-0.577,3.819,5.919,3.959,-0.575,-1.328
456.0,-0.577,3.819,5.919,3.959,-0.575,-1.328
460.0,-0.346,4.253,4.896,3.959,-0.575,-1.328
464.0,-0.346,4.253,4.896,4.161,-0.58,-1.254
468.0,-0.346,4.253,4.896,4.161,-0.58,-1.254
472.0,0.074,4.794,4.159,4.319,-0.55,-1.155
475.0,0.074,4.794,4.159,4.319,-0.55,-1.155
479.0,0.074,4.794,4.159,4.319,-0.55,-1.155
483.0,0.159,5.5,3.348,4.407,-0.513,-1.111
486.0,0.159,5.5,3.348,4.407,-0.513,-1.111
490.0,0.077,6.567,2.52,4.382,-0.494,-1.119
494.0,0.077,6.567,2.52,4.382,-0.494,-1.119
498.0,0.077,6.567,2.52,4.382,-0.494,-1.119
501.0,0.076,7.865,1.79,4.207,-0.472,-1.114
505.0,0.076,7.865,1.79,4.207,-0.472,-1.114
509.0,0.076,7.865,1.417,4.207,-0.472,-1.114
513.0,0.052,9.09,1.417,3.868,-0.415,-1.044
516.0,0.052,9.09,1.417,3.868,-0.415,-1.044
520.0,-0.257,10.107,1.055,3.405,-0.348,-0.945
524.0,-0.257,10.107,1.055,3.405,-0.348,-0.945
528.0,-0.257,10.107,1.055,3.405,-0.348,-0.945
532.0,-0.576,10.852,0.786,2.851,-0.302,-0.817
536.0,-0.576,10.852,0.786,2.851,-0.302,-0.817
540.0,-0.779,11.275,0.647,2.249,-0.26,-0.635
544.0,-0.779,11.275,0.647,2.249,-0.26,-0.635
547.0,-0.779,11.275,0.647,2.249,-0.26,-0.635
551.0,-1.125,11.74,0.602,1.671,-0.216,-0.387
555.0,-1.125,11.74,0.602,1.671,-0.216,-0.387
559.0,-1.524,11.861,0.471,1.671,-0.169,-0.077
563.0,-1.524,11.861,0.471,1.158,-0.169,-0.077
567.0,-1.524,11.861,0.471,1.158,-0.169,-0.077
571.0,-1.959,12.072,0.343,0.736,-0.107,0.264
575.0,-1.959,12.072,0.343,0.736,-0.107,0.264
578.0,-2.46,12.422,0.254,0.736,-0.107,0.264
582.0,-2.46,12.422,0.254,0.431,-0.028,0.624
586.0,-2.46,12.422,0.254,0.431,-0.028,0.624
590.0,-2.896,12.832,0.163,0.233,0.06,1.005
594.0,-2.896,12.832,0.163,0.233,0.06,1.005
597.0,-2.896,12.832,0.163,0.233,0.06,1.005
601.0,-3.239,13.452,0.114,0.121,0.161,1.406
605.0,-3.239,13.452,0.114,0.121,0.161,1.406
609.0,-3.301,14.071,0.163,0.061,0.276,1.827
612.0,-3.301,14.071,0.163,0.061,0.276,1.827
616.0,-3.301,14.071,0.163,0.061,0.276,1.827
620.0,-3.357,14.572,0.51,0.036,0.414,2.24
624.0,-3.357,14.572,0.51,0.036,0.414,2.24
627.0,-3.357,14.572,0.51,0.036,0.414,2.24
631.0,-3.693,14.857,0.832,0.042,0.552,2.639
635.0,-3.693,14.857,0.832,0.042,0.552,2.639
638.0,-3.788,14.987,0.991,0.056,0.658,3.064
642.0,-3.788,14.987,0.991,0.056,0.658,3.064
646.0,-3.788,14.987,0.991,0.056,0.658,3.064
650.0,-3.548,14.943,1.42,0.074,0.788,3.487
653.0,-3.548,14.943,1.42,0.074,0.788,3.487
657.0,-3.548,14.943,2.158,0.074,0.788,3.487
661.0,-3.575,14.806,2.158,0.135,0.965,3.832
665.0,-3.575,14.806,2.158,0.135,0.965,3.832
668.0,-3.925,14.901,2.679,0.24,1.119,4.121
672.0,-3.925,14.901,2.679,0.24,1.119,4.121
676.0,-3.925,14.901,2.679,0.24,1.119,4.121
680.0,-4.152,14.892,2.85,0.351,1.241,4.447
683.0,-4.152,14.892,2.85,0.351,1.241,4.447
687.0,-3.777,14.48,3.263,0.351,1.241,4.447
691.0,-3.777,14.48,3.263,0.432,1.369,4.795
694.0,-3.777,14.48,3.263,0.432,1.369,4.795
698.0,-3.513,14.091,3.93,0.5,1.493,4.993
702.0,-3.513,14.091,3.93,0.5,1.493,4.993
706.0,-3.513,14.091,3.93,0.5,1.493,4.993
709.0,-3.593,13.814,4.314,0.535,1.574,5.013
713.0,-3.593,13.814,4.314,0.535,1.574,5.013
717.0,-3.424,13.381,4.78,0.535,1.574,5.013
721.0,-3.424,13.381,4.78,0.508,1.644,5.013
724.0,-3.424,13.381,4.78,0.508,1.644,5.013
728.0,-3.157,12.708,5.431,0.462,1.709,5.013
732.0,-3.157,12.708,5.431,0.462,1.709,5.013
736.0,-3.157,12.708,5.431,0.462,1.709,5.013
739.0,-3.042,12.171,6.004,0.431,1.731,5.013
743.0,-3.042,12.171,6.004,0.431,1.731,5.013
747.0,-3.226,11.664,6.417,0.431,1.722,5.013
750.0,-3.226,11.664,6.417,0.405,1.722,5.013
754.0,-3.226,11.664,6.417,0.405,1.722,5.013
758.0,-3.266,10.92,6.861,0.364,1.698,5.013
762.0,-3.266,10.92,6.861,0.364,1.698,5.013
765.0,-3.266,10.92,6.861,0.364,1.698,5.013
769.0,-2.883,10.08,7.355,0.315,1.645,5.013
773.0,-2.883,10.08,7.355,0.315,1.645,5.013
777.0,-2.383,9.337,7.825,0.255,1.559,5.013
780.0,-2.383,9.337,7.825,0.255,1.559,5.013
784.0,-2.383,9.337,7.825,0.255,1.559,5.013
788.0,-2.013,8.562,7.945,0.172,1.442,5.013
791.0,-2.013,8.562,7.945,0.172,1.442,5.013
795.0,-2.013,8.562,7.945,0.172,1.442,5.013
798.0,-1.741,7.564,7.705,0.054,1.323,5.013
802.0,-1.741,7.564,7.705,0.054,1.323,5.013
806.0,-1.417,6.394,7.35,0.054,1.323,5.013
809.0,-1.417,6.394,7.35,-0.095,1.222,5.013
813.0,-1.417,6.394,7.35,-0.095,1.222,5.013
817.0,-1.18,5.077,7.004,-0.249,1.161,5.013
821.0,-1.18,5.077,7.004,-0.249,1.161,5.013
824.0,-1.18,5.077,7.004,-0.249,1.161,5.013
828.0,-1.181,3.966,6.951,-0.393,1.112,5.013
832.0,-1.181,3.966,6.951,-0.393,1.112,5.013
836.0,-1.318,2.632,6.839,-0.393,1.029,5.013
839.0,-1.318,2.632,6.839,-0.537,1.029,5.013
843.0,-1.318,2.632,6.839,-0.537,1.029,5.013
847.0,-1.438,0.933,6.645,-0.716,0.933,5.013
850.0,-1.438,0.933,6.645,-0.716,0.933,5.013
854.0,-1.438,0.933,6.645,-0.716,0.933,5.013
858.0,-1.551,-0.769,6.339,-0.923,0.84,5.013
862.0,-1.551,-0.769,6.339,-0.923,0.84,5.013
866.0,-1.661,-2.371,6.174,-1.127,0.728,5.013
869.0,-1.661,-2.371,6.174,-1.127,0.728,5.013
873.0,-1.661,-2.371,6.174,-1.127,0.728,5.013
877.0,-1.844,-4.038,6.236,-1.326,0.586,5.013
881.0,-1.844,-4.038,6.236,-1.326,0.586,5.013
885.0,-2.054,-5.688,5.752,-1.326,0.586,5.013
888.0,-2.054,-5.688,5.752,-1.522,0.427,5.013
892.0,-2.054,-5.688,5.752,-1.522,0.427,5.013
896.0,-2.232,-7.165,4.921,-1.708,0.299,5.013
900.0,-2.232,-7.165,4.921,-1.708,0.299,5.013
904.0,-2.232,-7.165,4.19,-1.708,0.299,5.013
908.0,-2.24,-8.439,4.19,-1.861,0.218,5.013
911.0,-2.24,-8.439,4.19,-1.861,0.218,5.013
915.0,-1.95,-9.485,3.455,-1.964,0.176,4.961
919.0,-1.95,-9.485,3.455,-1.964,0.176,4.961
923.0,-1.95,-9.485,3.455,-1.964,0.176,4.961
927.0,-1.49,-10.506,3.023,-2.028,0.175,4.633
931.0,-1.49,-10.506,3.023,-2.028,0.175,4.633
934.0,-0.846,-11.793,2.738,-2.025,0.174,4.174
938.0,-0.846,-11.793,2.738,-2.025,0.174,4.174
942.0,-0.846,-11.793,2.738,-2.025,0.174,4.174
946.0,0.2,-12.899,2.352,-1.856,0.168,3.686
950.0,0.2,-12.899,2.352,-1.856,0.168,3.686
954.0,1.376,-13.625,2.085,-1.856,0.168,3.211
958.0,1.376,-13.625,2.085,-1.488,0.207,3.211
961.0,1.376,-13.625,2.085,-1.488,0.207,3.211
965.0,2.616,-13.808,2.321,-0.969,0.263,2.796
969.0,2.616,-13.808,2.321,-0.969,0.263,2.796
973.0,2.616,-13.808,2.904,-0.969,0.263,2.796
977.0,3.938,-14.081,2.904,-0.357,0.263,2.458
981.0,3.938,-14.081,2.904,-0.357,0.263,2.458
984.0,5.087,-14.049,3.081,0.304,0.2,2.172
988.0,5.087,-14.049,3.081,0.304,0.2,2.172
992.0,5.087,-14.049,3.081,0.304,0.2,2.172
996.0,5.955,-13.442,2.974,0.928,0.109,1.927
999.0,5.955,-13.442,2.974,0.928,0.109,1.927
1003.0,6.574,-12.699,2.879,0.928,0.109,1.729
1007.0,6.574,-12.699,2.879,1.456,0.021,1.729
1011.0,6.574,-12.699,2.879,1.456,0.021,1.729
1015.0,6.922,-11.762,2.966,1.854,-0.058,1.555
1018.0,6.922,-11.762,2.966,1.854,-0.058,1.555
1022.0,6.922,-11.762,3.002,1.854,-0.058,1.555
1026.0,7.318,-10.647,3.002,2.089,-0.15,1.381
1030.0,7.318,-10.647,3.002,2.089,-0.15,1.381
1034.0,8.002,-9.472,2.983,2.145,-0.239,1.189
1038.0,8.002,-9.472,2.983,2.145,-0.239,1.189
1042.0,8.002,-9.472,2.983,2.145,-0.239,1.189
1046.0,9.065,-8.259,3.249,2.042,-0.301,0.98
1049.0,9.065,-8.259,3.249,2.042,-0.301,0.98
1053.0,10.365,-7.4,3.542,1.821,-0.326,0.765
1057.0,10.365,-7.4,3.542,1.821,-0.326,0.765
1061.0,10.365,-7.4,3.542,1.821,-0.326,0.765
1065.0,11.251,-6.619,3.496,1.525,-0.319,0.551
1069.0,11.251,-6.619,3.496,1.525,-0.319,0.551
1073.0,12.01,-5.87,3.622,1.197,-0.296,0.359
1077.0,12.01,-5.87,3.622,1.197,-0.296,0.359
1080.0,12.01,-5.87,3.622,1.197,-0.296,0.359
1084.0,12.509,-5.487,4.1,0.875,-0.261,0.223
1088.0,12.509,-5.487,4.1,0.875,-0.261,0.223
1092.0,12.098,-5.683,4.067,0.875,-0.236,0.15
1096.0,12.098,-5.683,4.067,0.604,-0.236,0.15
1100.0,12.098,-5.683,4.067,0.604,-0.236,0.15
1104.0,11.263,-5.713,3.674,0.41,-0.212,0.117
1108.0,11.263,-5.713,3.674,0.41,-0.212,0.117
1112.0,10.916,-5.689,3.775,0.41,-0.212,0.128
1116.0,10.916,-5.689,3.775,0.301,-0.166,0.128
1120.0,10.916,-5.689,3.775,0.301,-0.166,0.128
1123.0,10.454,-5.895,3.876,0.282,-0.12,0.175
1127.0,10.454,-5.895,3.876,0.282,-0.12,0.175
1131.0,9.672,-5.714,3.638,0.282,-0.12,0.175
1135.0,9.672,-5.714,3.638,0.336,-0.086,0.218
1139.0,9.672,-5.714,3.638,0.336,-0.086,0.218
1143.0,9.513,-5.17,3.631,0.426,-0.068,0.254
1147.0,9.513,-5.17,3.631,0.426,-0.068,0.254
1150.0,9.513,-5.17,3.631,0.426,-0.068,0.254
1154.0,9.635,-4.729,3.678,0.504,-0.08,0.287
1158.0,9.635,-4.729,3.678,0.504,-0.08,0.287
1162.0,9.052,-4.344,3.357,0.54,-0.095,0.297
1166.0,9.052,-4.344,3.357,0.54,-0.095,0.297
1169.0,9.052,-4.344,3.357,0.54,-0.095,0.297
1173.0,8.28,-3.933,3.052,0.524,-0.078,0.289
1177.0,8.28,-3.933,3.052,0.524,-0.078,0.289
1181.0,7.982,-3.637,3.133,0.524,-0.059,0.284
1185.0,7.982,-3.637,3.133,0.465,-0.059,0.284
1189.0,7.982,-3.637,3.133,0.465,-0.059,0.284
1192.0,7.839,-3.672,3.226,0.389,-0.073,0.279
1196.0,7.839,-3.672,3.226,0.389,-0.073,0.279
1200.0,7.839,-3.672,2.864,0.389,-0.073,0.279
1204.0,7.336,-3.821,2.864,0.319,-0.095,0.25
1208.0,7.336,-3.821,2.864,0.319,-0.095,0.25
1211.0,6.951,-3.787,2.451,0.261,-0.072,0.21
1215.0,6.951,-3.787,2.451,0.261,-0.072,0.21
1219.0,6.951,-3.787,2.451,0.261,-0.072,0.21
1223.0,7.177,-3.771,2.343,0.212,0.0,0.188
1227.0,7.177,-3.771,2.343,0.212,0.0,0.188
1230.0,7.746,-3.563,2.67,0.212,0.086,0.173
1234.0,7.746,-3.563,2.67,0.18,0.086,0.173
1238.0,7.746,-3.563,2.67,0.18,0.086,0.173
1242.0,8.468,-3.433,3.027,0.174,0.16,0.153
1245.0,8.468,-3.433,3.027,0.174,0.16,0.153
1249.0,8.468,-3.433,3.027,0.174,0.16,0.153
1253.0,8.871,-3.552,2.995,0.19,0.228,0.13
1257.0,8.871,-3.552,2.995,0.19,0.228,0.13
1260.0,8.899,-3.426,2.816,0.232,0.305,0.099
1264.0,8.899,-3.426,2.816,0.232,0.305,0.099
1268.0,8.899,-3.426,2.816,0.232,0.305,0.099
1271.0,9.216,-3.121,3.098,0.293,0.403,0.076
1275.0,9.216,-3.121,3.098,0.293,0.403,0.076
1279.0,9.216,-3.121,3.636,0.293,0.403,0.076
1283.0,9.9,-3.045,3.636,0.373,0.499,0.098
1286.0,9.9,-3.045,3.636,0.373,0.499,0.098
1290.0,10.392,-2.969,4.085,0.468,0.543,0.145
1294.0,10.392,-2.969,4.085,0.468,0.543,0.145
1298.0,10.392,-2.969,4.085,0.468,0.543,0.145
1302.0,10.7,-2.885,4.56,0.554,0.55,0.181
1305.0,10.7,-2.885,4.56,0.554,0.55,0.181
1309.0,10.604,-3.129,4.896,0.554,0.56,0.228
1313.0,10.604,-3.129,4.896,0.599,0.56,0.228
1317.0,10.604,-3.129,4.896,0.599,0.56,0.228
1321.0,9.758,-3.377,4.867,0.598,0.576,0.279
1324.0,9.758,-3.377,4.867,0.598,0.576,0.279
1328.0,9.758,-3.377,4.867,0.598,0.576,0.279
1332.0,8.944,-3.282,4.965,0.564,0.578,0.293
1336.0,8.944,-3.282,4.965,0.564,0.578,0.293
1339.0,8.563,-3.166,5.295,0.49,0.562,0.276
1343.0,8.563,-3.166,5.295,0.49,0.562,0.276
1347.0,8.563,-3.166,5.295,0.49,0.562,0.276
1351.0,7.864,-3.339,5.265,0.382,0.554,0.26
1354.0,7.864,-3.339,5.265,0.382,0.554,0.26
1358.0,7.864,-3.296,4.894,0.382,0.554,0.26
1362.0,7.186,-3.296,4.894,0.269,0.545,0.223
1365.0,7.186,-3.296,4.894,0.269,0.545,0.223
1369.0,7.515,-2.937,4.932,0.168,0.546,0.151
1373.0,7.515,-2.937,4.932,0.168,0.546,0.151
1377.0,7.515,-2.937,4.932,0.168,0.546,0.151
1380.0,8.918,-2.65,5.569,0.087,0.523,0.09
1384.0,8.918,-2.65,5.569,0.087,0.523,0.09
1388.0,9.952,-2.752,5.965,0.087,0.523,0.09
1392.0,9.952,-2.752,5.965,0.046,0.461,0.057
1395.0,9.952,-2.752,5.965,0.046,0.461,0.057
1399.0,9.576,-3.057,5.516,0.051,0.409,0.041
1403.0,9.576,-3.057,5.516,0.051,0.409,0.041
1407.0,9.576,-3.057,5.516,0.051,0.409,0.041
1410.0,8.679,-3.15,5.139,0.088,0.393,0.044
1414.0,8.679,-3.15,5.139,0.088,0.393,0.044
1418.0,8.065,-3.081,5.351,0.088,0.393,0.085
1421.0,8.065,-3.081,5.351,0.139,0.384,0.085
1425.0,8.065,-3.081,5.351,0.139,0.384,0.085
1429.0,7.299,-3.313,5.435,0.197,0.36,0.157
1433.0,7.299,-3.313,5.435,0.197,0.36,0.157
1436.0,7.299,-3.313,5.435,0.197,0.36,0.157
1440.0,5.953,-3.651,4.74,0.258,0.326,0.214
1444.0,5.953,-3.651,4.74,0.258,0.326,0.214
1448.0,4.89,-3.351,3.831,0.258,0.312,0.208
1451.0,4.89,-3.351,3.831,0.303,0.312,0.208
1455.0,4.89,-3.351,3.831,0.303,0.312,0.208
1459.0,5.061,-2.648,3.672,0.308,0.344,0.167
1463.0,5.061,-2.648,3.672,0.308,0.344,0.167
1466.0,5.061,-2.648,3.672,0.308,0.344,0.167
1470.0,6.181,-2.35,3.952,0.268,0.406,0.137
1474.0,6.181,-2.35,3.952,0.268,0.406,0.137
1477.0,7.223,-2.034,3.769,0.217,0.466,0.093
1481.0,7.223,-2.034,3.769,0.217,0.466,0.093
1485.0,7.223,-2.034,3.769,0.217,0.466,0.093
1489.0,7.979,-1.441,3.381,0.18,0.57,0.019
1492.0,7.979,-1.441,3.381,0.18,0.57,0.019
1496.0,7.979,-1.441,3.41,0.18,0.57,0.019
1500.0,8.925,-1.073,3.41,0.144,0.745,-0.02
1504.0,8.925,-1.073,3.41,0.144,0.745,-0.02
1507.0,9.885,-1.022,3.793,0.117,0.934,0.002
1511.0,9.885,-1.022,3.793,0.117,0.934,0.002
1515.0,9.885,-1.022,3.793,0.117,0.934,0.002
1519.0,10.152,-1.064,4.116,0.134,1.123,0.049
1523.0,10.152,-1.064,4.116,0.134,1.123,0.049
1526.0,10.016,-1.164,4.385,0.134,1.123,0.123
1530.0,10.016,-1.164,4.385,0.195,1.323,0.123
1534.0,10.016,-1.164,4.385,0.195,1.323,0.123
1538.0,9.811,-1.294,4.956,0.288,1.509,0.245
1542.0,9.811,-1.294,4.956,0.288,1.509,0.245
1545.0,9.811,-1.294,4.956,0.288,1.509,0.245
1549.0,9.345,-1.536,5.23,0.4,1.652,0.395
1553.0,9.345,-1.536,5.23,0.4,1.652,0.395
1556.0,8.721,-1.635,5.212,0.516,1.799,0.522
1560.0,8.721,-1.635,5.212,0.516,1.799,0.522
1564.0,8.721,-1.635,5.212,0.516,1.799,0.522
1568.0,8.593,-1.432,5.594,0.622,1.947,0.62
1571.0,8.593,-1.432,5.594,0.622,1.947,0.62
1575.0,8.593,-1.432,6.171,0.622,1.947,0.62
1579.0,8.685,-1.159,6.171,0.708,2.04,0.714
1583.0,8.685,-1.159,6.171,0.708,2.04,0.714
1586.0,8.168,-0.944,6.273,0.769,2.081,0.808
1590.0,8.168,-0.944,6.273,0.769,2.081,0.808
1594.0,8.168,-0.944,6.273,0.769,2.081,0.808
1597.0,7.452,-0.81,5.968,0.795,2.12,0.9
1601.0,7.452,-0.81,5.968,0.795,2.12,0.9
1605.0,6.893,-0.744,5.684,0.795,2.12,0.9
1609.0,6.893,-0.744,5.684,0.781,2.182,0.989
1612.0,6.893,-0.744,5.684,0.781,2.182,0.989
1616.0,6.39,-0.862,5.408,0.731,2.238,1.073
1620.0,6.39,-0.862,5.408,0.731,2.238,1.073
1624.0,6.39,-0.862,5.408,0.731,2.238,1.073
1627.0,5.658,-1.058,5.069,0.665,2.302,1.128
1631.0,5.658,-1.058,5.069,0.665,2.302,1.128
1635.0,4.681,-1.107,4.591,0.665,2.302,1.134
1639.0,4.681,-1.107,4.591,0.593,2.385,1.134
1642.0,4.681,-1.107,4.591,0.593,2.385,1.134
1646.0,3.933,-1.137,3.925,0.514,2.488,1.109
1650.0,3.933,-1.137,3.925,0.514,2.488,1.109
1653.0,3.933,-1.137,3.925,0.514,2.488,1.109
1657.0,3.644,-1.105,3.523,0.424,2.625,1.046
1661.0,3.644,-1.105,3.523,0.424,2.625,1.046
1665.0,3.367,-0.77,3.784,0.424,2.798,0.952
1668.0,3.367,-0.77,3.784,0.34,2.798,0.952
1672.0,3.367,-0.77,3.784,0.34,2.798,0.952
1676.0,3.191,-0.713,4.094,0.274,2.928,0.917
1680.0,3.191,-0.713,4.094,0.274,2.928,0.917
1683.0,3.191,-0.713,4.094,0.274,2.928,0.917
1687.0,3.01,-1.081,4.198,0.24,2.993,0.957
1691.0,3.01,-1.081,4.198,0.24,2.993,0.957
1695.0,2.475,-1.603,4.147,0.254,3.042,1.01
1698.0,2.475,-1.603,4.147,0.254,3.042,1.01
1702.0,2.475,-1.603,4.147,0.254,3.042,1.01
1706.0,1.674,-2.009,3.732,0.332,3.105,1.033
1709.0,1.674,-2.009,3.732,0.332,3.105,1.033
1713.0,1.674,-2.009,3.243,0.332,3.105,1.033
1717.0,0.741,-1.941,3.243,0.46,3.202,1.028
1721.0,0.741,-1.941,3.243,0.46,3.202,1.028
1724.0,-0.317,-1.634,3.494,0.627,3.317,1.032
1728.0,-0.317,-1.634,3.494,0.627,3.317,1.032
1732.0,-0.317,-1.634,3.494,0.627,3.317,1.032
1736.0,-1.033,-1.499,3.639,0.832,3.411,1.061
1740.0,-1.033,-1.499,3.639,0.832,3.411,1.061
1744.0,-1.812,-1.428,3.976,0.832,3.411,1.105
1747.0,-1.812,-1.428,3.976,1.085,3.504,1.105
1751.0,-1.812,-1.428,3.976,1.085,3.504,1.105
1755.0,-2.723,-1.271,5.113,1.397,3.548,1.139
1759.0,-2.723,-1.271,5.113,1.397,3.548,1.139
1763.0,-2.723,-1.271,6.051,1.397,3.548,1.139
1766.0,-3.354,-1.31,6.051,1.759,3.485,1.163
1770.0,-3.354,-1.31,6.051,1.759,3.485,1.163
1774.0,-3.564,-1.113,6.255,2.134,3.359,1.186
1778.0,-3.564,-1.113,6.255,2.134,3.359,1.186
1782.0,-3.564,-1.113,6.255,2.134,3.359,1.186
1786.0,-3.72,-0.452,6.476,2.486,3.269,1.205
1789.0,-3.72,-0.452,6.476,2.486,3.269,1.205
1793.0,-3.596,0.238,6.454,2.795,3.256,1.221
1797.0,-3.596,0.238,6.454,2.795,3.256,1.221
1801.0,-3.596,0.238,6.454,2.795,3.256,1.221
1804.0,-3.692,1.143,7.775,3.059,3.322,1.201
1808.0,-3.692,1.143,7.775,3.059,3.322,1.201
1812.0,-3.692,1.143,7.775,3.059,3.322,1.201
1816.0,-3.806,1.999,9.007,3.295,3.321,1.153
1819.0,-3.806,1.999,9.007,3.295,3.321,1.153
1823.0,-3.727,2.672,9.119,3.475,3.224,1.102
1827.0,-3.727,2.672,9.119,3.475,3.224,1.102
1830.0,-3.727,2.672,9.119,3.475,3.224,1.102
1834.0,-3.486,3.118,8.742,3.57,3.131,1.029
1838.0,-3.486,3.118,8.742,3.57,3.131,1.029
1842.0,-3.486,3.118,8.192,3.57,3.131,1.029
1845.0,-3.34,3.553,8.192,3.58,3.089,0.909
1849.0,-3.34,3.553,8.192,3.58,3.089,0.909
1853.0,-3.327,3.723,7.317,3.511,3.084,0.76
1857.0,-3.327,3.723,7.317,3.511,3.084,0.76
1860.0,-3.327,3.723,7.317,3.511,3.084,0.76
1864.0,-3.382,3.736,6.44,3.375,3.122,0.579
1868.0,-3.382,3.736,6.44,3.375,3.122,0.579
1872.0,-3.551,3.657,5.62,3.375,3.122,0.579
1875.0,-3.551,3.657,5.62,3.204,3.233,0.354
1879.0,-3.551,3.657,5.62,3.204,3.233,0.354
1883.0,-4.047,3.458,5.396,3.048,3.434,0.082
1886.0,-4.047,3.458,5.396,3.048,3.434,0.082
1890.0,-4.047,3.458,5.396,3.048,3.434,0.082
1894.0,-5.35,3.461,6.132,2.959,3.637,-0.21
1898.0,-5.35,3.461,6.132,2.959,3.637,-0.21
1902.0,-7.012,3.389,6.961,2.959,3.716,-0.448
1905.0,-7.012,3.389,6.961,2.958,3.716,-0.448
1909.0,-7.012,3.389,6.961,2.958,3.716,-0.448
1913.0,-8.457,3.102,7.337,3.046,3.666,-0.625
1917.0,-8.457,3.102,7.337,3.046,3.666,-0.625
1921.0,-8.457,2.62,6.773,3.046,3.666,-0.625
1924.0,-9.182,2.62,6.773,3.213,3.569,-0.774
1928.0,-9.182,2.62,6.773,3.213,3.569,-0.774
1932.0,-9.284,2.309,5.883,3.425,3.528,-0.928
1936.0,-9.284,2.309,5.883,3.425,3.528,-0.928
1940.0,-9.284,2.309,5.883,3.425,3.528,-0.928
1944.0,-8.877,2.022,4.917,3.655,3.588,-1.097
1947.0,-8.877,2.022,4.917,3.655,3.588,-1.097
1951.0,-8.352,1.671,4.231,3.898,3.744,-1.274
1955.0,-8.352,1.671,4.231,3.898,3.744,-1.274
1959.0,-8.352,1.671,4.231,3.898,3.744,-1.274
1963.0,-8.237,1.378,4.16,4.174,3.95,-1.466
1967.0,-8.237,1.378,4.16,4.174,3.95,-1.466
1970.0,-8.7,1.295,4.21,4.174,3.95,-1.466
1974.0,-8.7,1.295,4.21,4.512,4.117,-1.654
1978.0,-8.7,1.295,4.21,4.512,4.117,-1.654
1982.0,-9.325,1.464,3.475,4.867,4.202,-1.799
1986.0,-9.325,1.464,3.475,4.867,4.202,-1.799
1989.0,-9.325,1.464,3.475,4.867,4.202,-1.799
1993.0,-10.311,2.274,3.127,4.994,4.249,-1.913
1997.0,-10.311,2.274,3.127,4.994,4.249,-1.913
2001.0,-11.303,3.035,2.676,4.995,4.231,-1.978
2005.0,-11.303,3.035,2.676,4.995,4.231,-1.978
2009.0,-11.303,3.035,2.676,4.995,4.231,-1.978
2013.0,-11.971,3.625,1.818,4.995,4.151,-2.008
2017.0,-11.971,3.625,1.818,4.995,4.151,-2.008
2021.0,-12.528,4.197,0.983,4.995,4.058,-2.055
2024.0,-12.528,4.197,0.983,4.995,4.058,-2.055
2028.0,-12.528,4.197,0.983,4.995,4.058,-2.055
2032.0,-13.169,4.708,0.554,4.995,3.95,-2.138
2036.0,-13.169,4.708,0.554,4.995,3.95,-2.138
2040.0,-13.884,5.288,0.179,4.995,3.793,-2.244
2044.0,-13.884,5.288,0.179,4.995,3.793,-2.244
2048.0,-13.884,5.288,0.179,4.995,3.793,-2.244
2052.0,-14.554,5.791,-0.306,4.995,3.593,-2.345
2056.0,-14.554,5.791,-0.306,4.995,3.593,-2.345
2060.0,-15.12,6.179,-0.731,4.995,3.378,-2.442
2064.0,-15.12,6.179,-0.731,4.995,3.378,-2.442
2068.0,-15.12,6.179,-0.731,4.995,3.378,-2.442
2072.0,-15.356,6.374,-1.184,4.995,3.155,-2.543
2076.0,-15.356,6.374,-1.184,4.995,3.155,-2.543
2080.0,-15.187,6.62,-1.58,4.99,2.925,-2.651
2084.0,-15.187,6.62,-1.58,4.99,2.925,-2.651
2088.0,-15.187,6.62,-1.58,4.99,2.925,-2.651
2092.0,-14.755,6.699,-1.834,4.831,2.712,-2.734
2096.0,-14.755,6.699,-1.834,4.831,2.712,-2.734
2100.0,-14.252,6.54,-1.876,4.488,2.546,-2.79
2104.0,-14.252,6.54,-1.876,4.488,2.546,-2.79
2108.0,-14.252,6.54,-1.876,4.488,2.546,-2.79
2112.0,-13.865,6.195,-1.765,4.156,2.418,-2.847
2116.0,-13.865,6.195,-1.765,4.156,2.418,-2.847
2120.0,-13.953,5.945,-1.635,3.855,2.308,-2.926
2124.0,-13.953,5.945,-1.635,3.855,2.308,-2.926
2128.0,-13.953,5.945,-1.635,3.855,2.308,-2.926
2132.0,-14.406,6.029,-1.628,3.586,2.206,-3.006
2136.0,-14.406,6.029,-1.628,3.586,2.206,-3.006
2140.0,-14.804,5.901,-1.679,3.344,2.095,-3.045
2144.0,-14.804,5.901,-1.679,3.344,2.095,-3.045
2148.0,-14.804,5.901,-1.595,3.344,2.095,-3.045
2152.0,-15.246,5.789,-1.595,3.116,1.969,-3.06
2156.0,-15.246,5.789,-1.595,3.116,1.969,-3.06
2160.0,-15.625,5.577,-1.542,2.894,1.838,-3.056
2164.0,-15.625,5.577,-1.542,2.894,1.838,-3.056
2168.0,-15.834,5.352,-1.436,2.894,1.838,-3.056
2172.0,-15.834,5.352,-1.436,2.678,1.706,-3.043
2176.0,-15.834,5.352,-1.436,2.678,1.706,-3.043
2180.0,-15.994,5.339,-1.214,2.472,1.579,-3.026
2184.0,-15.994,5.339,-1.214,2.472,1.579,-3.026
2188.0,-15.997,5.334,-1.124,2.472,1.579,-2.989
2192.0,-15.997,5.334,-1.124,2.284,1.462,-2.989
2196.0,-15.997,5.334,-1.124,2.284,1.462,-2.989
2200.0,-15.714,5.509,-1.11,2.107,1.354,-2.916
2204.0,-15.714,5.509,-1.11,2.107,1.354,-2.916
2208.0,-15.091,5.6,-1.066,2.107,1.253,-2.789
2212.0,-15.091,5.6,-1.066,1.931,1.253,-2.789
2216.0,-15.091,5.6,-1.066,1.931,1.253,-2.789
2220.0,-14.299,5.438,-1.15,1.745,1.149,-2.626
2224.0,-14.299,5.438,-1.15,1.745,1.149,-2.626
2228.0,-13.627,5.438,-1.403,1.542,1.065,-2.473
2232.0,-13.627,5.438,-1.403,1.542,1.065,-2.473
2236.0,-13.627,5.438,-1.403,1.542,1.065,-2.473
2240.0,-12.939,5.408,-1.65,1.331,1.016,-2.345
2243.0,-12.939,5.408,-1.65,1.331,1.016,-2.345
2247.0,-12.504,5.333,-1.714,1.112,0.981,-2.255
2251.0,-12.504,5.333,-1.714,1.112,0.981,-2.255
2255.0,-12.504,5.333,-1.714,1.112,0.981,-2.255
2259.0,-12.355,5.453,-1.853,0.885,0.944,-2.183
2263.0,-12.355,5.453,-1.853,0.885,0.944,-2.183
2267.0,-11.922,5.492,-1.95,0.662,0.902,-2.074
2271.0,-11.922,5.492,-1.95,0.662,0.902,-2.074
2275.0,-11.922,5.492,-1.95,0.662,0.902,-2.074
2279.0,-11.401,5.317,-1.851,0.456,0.846,-1.925
2283.0,-11.401,5.317,-1.851,0.456,0.846,-1.925
2287.0,-11.133,5.236,-1.866,0.28,0.788,-1.773
2291.0,-11.133,5.236,-1.866,0.28,0.788,-1.773
2295.0,-11.133,5.236,-1.866,0.28,0.788,-1.773
2299.0,-10.79,5.063,-1.905,0.129,0.739,-1.616
2303.0,-10.79,5.063,-1.905,0.129,0.739,-1.616
2307.0,-10.433,4.829,-1.885,-0.014,0.69,-1.46
2311.0,-10.433,4.829,-1.885,-0.014,0.69,-1.46
2316.0,-10.433,4.679,-1.847,-0.014,0.69,-1.46
2320.0,-10.26,4.679,-1.847,-0.154,0.648,-1.303
2324.0,-10.26,4.679,-1.847,-0.154,0.648,-1.303
2328.0,-10.164,4.43,-1.709,-0.296,0.612,-1.137
2332.0,-10.164,4.43,-1.709,-0.296,0.612,-1.137
2336.0,-10.225,4.136,-1.568,-0.296,0.568,-0.972
2340.0,-10.225,4.136,-1.568,-0.45,0.568,-0.972
2344.0,-10.225,4.136,-1.568,-0.45,0.568,-0.972
2348.0,-10.375,3.996,-1.515,-0.619,0.526,-0.811
2352.0,-10.375,3.996,-1.515,-0.619,0.526,-0.811
2356.0,-10.242,3.825,-1.362,-0.797,0.481,-0.642
2360.0,-10.242,3.825,-1.362,-0.797,0.481,-0.642
2365.0,-10.242,3.825,-1.362,-0.797,0.481,-0.642
2369.0,-10.049,3.608,-1.222,-0.985,0.416,-0.47
2373.0,-10.049,3.608,-1.222,-0.985,0.416,-0.47
2377.0,-9.89,3.401,-1.219,-1.166,0.338,-0.306
2381.0,-9.89,3.401,-1.219,-1.166,0.338,-0.306
2385.0,-9.89,3.075,-1.298,-1.166,0.338,-0.306
2389.0,-9.742,3.075,-1.298,-1.325,0.257,-0.152
2393.0,-9.742,3.075,-1.298,-1.325,0.257,-0.152
2397.0,-9.629,2.863,-1.33,-1.452,0.18,-0.019
2401.0,-9.629,2.863,-1.33,-1.452,0.18,-0.019
2405.0,-9.591,2.438,-1.32,-1.452,0.18,-0.019
2409.0,-9.591,2.438,-1.32,-1.549,0.108,0.097
2413.0,-9.591,2.438,-1.32,-1.549,0.108,0.097
2417.0,-9.824,2.045,-1.304,-1.622,0.044,0.18
2420.0,-9.824,2.045,-1.304,-1.622,0.044,0.18
2424.0,-10.198,1.682,-1.203,-1.622,0.044,0.18
2428.0,-10.198,1.682,-1.203,-1.679,-0.009,0.249
2432.0,-10.198,1.682,-1.203,-1.679,-0.009,0.249
2436.0,-10.598,1.387,-1.177,-1.722,-0.067,0.304
2441.0,-10.598,1.387,-1.177,-1.722,-0.067,0.304
2445.0,-10.91,1.231,-1.139,-1.763,-0.131,0.35
2449.0,-10.91,1.231,-1.139,-1.763,-0.131,0.35
2453.0,-10.91,1.231,-1.139,-1.763,-0.131,0.35
2457.0,-10.959,1.001,-1.099,-1.806,-0.202,0.396
2461.0,-10.959,1.001,-1.099,-1.806,-0.202,0.396
2465.0,-10.806,0.728,-1.132,-1.848,-0.278,0.438
2469.0,-10.806,0.728,-1.132,-1.848,-0.278,0.438
2473.0,-10.806,0.728,-1.132,-1.848,-0.278,0.438
2477.0,-10.448,0.371,-1.177,-1.873,-0.333,0.466
2481.0,-10.448,0.371,-1.177,-1.873,-0.333,0.466
2485.0,-10.093,0.067,-1.16,-1.861,-0.357,0.468
2490.0,-10.093,0.067,-1.16,-1.861,-0.357,0.468
2494.0,-9.791,-0.132,-1.043,-1.861,-0.357,0.45
2498.0,-9.791,-0.132,-1.043,-1.797,-0.365,0.45
2502.0,-9.791,-0.132,-1.043,-1.797,-0.365,0.45
2506.0,-9.565,-0.237,-0.823,-1.68,-0.368,0.424
2510.0,-9.565,-0.237,-0.823,-1.68,-0.368,0.424
2514.0,-9.433,-0.308,-0.61,-1.519,-0.382,0.409
2518.0,-9.433,-0.308,-0.61,-1.519,-0.382,0.409
2522.0,-9.433,-0.308,-0.61,-1.519,-0.382,0.409
2526.0,-9.388,-0.294,-0.602,-1.328,-0.413,0.418
2530.0,-9.388,-0.294,-0.602,-1.328,-0.413,0.418
2534.0,-9.257,-0.26,-0.65,-1.131,-0.452,0.458
2538.0,-9.257,-0.26,-0.65,-1.131,-0.452,0.458
2543.0,-9.257,-0.26,-0.793,-1.131,-0.452,0.458
2547.0,-8.996,-0.278,-0.793,-0.949,-0.495,0.517
2551.0,-8.996,-0.278,-0.793,-0.949,-0.495,0.517
2555.0,-8.68,-0.33,-1.055,-0.791,-0.526,0.577
2559.0,-8.68,-0.33,-1.055,-0.791,-0.526,0.577
2563.0,-8.359,-0.373,-1.199,-0.791,-0.528,0.633
2567.0,-8.359,-0.373,-1.199,-0.652,-0.528,0.633
2571.0,-8.359,-0.373,-1.199,-0.652,-0.528,0.633
2575.0,-8.148,-0.555,-1.291,-0.521,-0.513,0.687
2579.0,-8.148,-0.555,-1.291,-0.521,-0.513,0.687
2583.0,-8.243,-0.689,-1.379,-0.392,-0.492,0.735
2587.0,-8.243,-0.689,-1.379,-0.392,-0.492,0.735
2591.0,-8.243,-0.689,-1.379,-0.392,-0.492,0.735
2596.0,-8.487,-0.769,-1.353,-0.267,-0.468,0.783
2600.0,-8.487,-0.769,-1.353,-0.267,-0.468,0.783
2604.0,-8.775,-0.872,-1.34,-0.155,-0.455,0.831
2608.0,-8.775,-0.872,-1.34,-0.155,-0.455,0.831
2612.0,-9.147,-0.919,-1.341,-0.155,-0.455,0.831
2616.0,-9.147,-0.919,-1.341,-0.06,-0.451,0.874
2620.0,-9.147,-0.919,-1.341,-0.06,-0.451,0.874
2624.0,-9.568,-0.983,-1.415,0.018,-0.454,0.908
2628.0,-9.568,-0.983,-1.415,0.018,-0.454,0.908
2632.0,-10.094,-0.962,-1.632,0.018,-0.452,0.927
2636.0,-10.094,-0.962,-1.632,0.075,-0.452,0.927
2640.0,-10.094,-0.962,-1.632,0.075,-0.452,0.927
2644.0,-10.696,-0.864,-1.785,0.108,-0.441,0.938
2648.0,-10.696,-0.864,-1.785,0.108,-0.441,0.938
2653.0,-11.033,-0.779,-1.909,0.122,-0.44,0.95
2657.0,-11.033,-0.779,-1.909,0.122,-0.44,0.95
2661.0,-11.033,-0.779,-1.909,0.122,-0.44,0.95
2665.0,-11.127,-0.784,-1.985,0.133,-0.461,0.957
2669.0,-11.127,-0.784,-1.985,0.133,-0.461,0.957
2673.0,-11.051,-0.848,-2.002,0.166,-0.495,0.947
2677.0,-11.051,-0.848,-2.002,0.166,-0.495,0.947
2681.0,-10.917,-0.935,-2.136,0.166,-0.495,0.947
2685.0,-10.917,-0.935,-2.136,0.23,-0.543,0.906
2689.0,-10.917,-0.935,-2.136,0.23,-0.543,0.906
2693.0,-10.903,-0.869,-2.389,0.315,-0.584,0.833
2697.0,-10.903,-0.869,-2.389,0.315,-0.584,0.833
2701.0,-10.747,-0.695,-2.573,0.405,-0.594,0.743
2706.0,-10.747,-0.695,-2.573,0.405,-0.594,0.743
2710.0,-10.747,-0.695,-2.573,0.405,-0.594,0.743
2714.0,-10.339,-0.537,-2.665,0.493,-0.587,0.65
2718.0,-10.339,-0.537,-2.665,0.493,-0.587,0.65
2722.0,-9.91,-0.339,-2.626,0.579,-0.562,0.562
2726.0,-9.91,-0.339,-2.626,0.579,-0.562,0.562
2730.0,-9.91,-0.339,-2.626,0.579,-0.562,0.562
2734.0,-9.567,-0.173,-2.386,0.667,-0.528,0.482
2738.0,-9.567,-0.173,-2.386,0.667,-0.528,0.482
2742.0,-9.496,-0.144,-2.316,0.753,-0.51,0.414
2746.0,-9.496,-0.144,-2.316,0.753,-0.51,0.414
2750.0,-9.496,-0.144,-2.407,0.753,-0.51,0.414
2754.0,-9.615,-0.048,-2.407,0.829,-0.512,0.363
2758.0,-9.615,-0.048,-2.407,0.829,-0.512,0.363
2762.0,-9.511,0.092,-2.514,0.886,-0.517,0.345
2766.0,-9.511,0.092,-2.514,0.886,-0.517,0.345
2770.0,-9.511,0.18,-2.52,0.886,-0.517,0.345
2774.0,-9.136,0.18,-2.52,0.908,-0.52,0.359
2777.0,-9.136,0.18,-2.52,0.908,-0.52,0.359
2781.0,-8.748,0.207,-2.475,0.9,-0.508,0.389
2785.0,-8.748,0.207,-2.475,0.9,-0.508,0.389
2789.0,-8.748,0.207,-2.299,0.9,-0.508,0.389
2793.0,-8.566,0.258,-2.299,0.867,-0.473,0.416
2797.0,-8.566,0.258,-2.299,0.867,-0.473,0.416
2801.0,-8.547,0.223,-2.158,0.818,-0.434,0.438
2805.0,-8.547,0.223,-2.158,0.818,-0.434,0.438
2809.0,-8.547,0.223,-2.158,0.818,-0.434,0.438
2813.0,-8.595,0.258,-2.026,0.756,-0.393,0.453
2816.0,-8.595,0.258,-2.026,0.756,-0.393,0.453
2820.0,-8.675,0.301,-1.752,0.686,-0.343,0.466
2824.0,-8.675,0.301,-1.752,0.686,-0.343,0.466
2828.0,-8.675,0.301,-1.752,0.686,-0.343,0.466
2832.0,-8.748,0.31,-1.366,0.617,-0.297,0.477
2836.0,-8.748,0.31,-1.366,0.617,-0.297,0.477
2840.0,-8.833,0.224,-1.12,0.558,-0.262,0.487
2844.0,-8.833,0.224,-1.12,0.558,-0.262,0.487
2848.0,-8.833,0.224,-1.12,0.558,-0.262,0.487
2852.0,-9.113,0.133,-1.25,0.506,-0.232,0.49
2856.0,-9.113,0.133,-1.25,0.506,-0.232,0.49
2859.0,-9.628,0.039,-1.432,0.466,-0.199,0.497
2863.0,-9.628,0.039,-1.432,0.466,-0.199,0.497
2867.0,-9.628,0.039,-1.432,0.466,-0.199,0.497
2871.0,-9.96,-0.117,-1.496,0.442,-0.178,0.513
2875.0,-9.96,-0.117,-1.496,0.442,-0.178,0.513
2879.0,-10.013,-0.218,-1.408,0.44,-0.178,0.529
2883.0,-10.013,-0.218,-1.408,0.44,-0.178,0.529
2887.0,-10.013,-0.218,-1.408,0.44,-0.178,0.529
2891.0,-9.904,-0.354,-1.323,0.463,-0.194,0.539
2895.0,-9.904,-0.354,-1.323,0.463,-0.194,0.539
2899.0,-9.881,-0.322,-1.309,0.509,-0.214,0.529
2903.0,-9.881,-0.322,-1.309,0.509,-0.214,0.529
2907.0,-9.881,-0.322,-1.309,0.509,-0.214,0.529
2911.0,-9.9,-0.209,-1.216,0.571,-0.233,0.502
2915.0,-9.9,-0.209,-1.216,0.571,-0.233,0.502
2919.0,-9.782,-0.068,-1.088,0.634,-0.266,0.47
2923.0,-9.782,-0.068,-1.088,0.634,-0.266,0.47
2927.0,-9.782,-0.068,-1.092,0.634,-0.266,0.47
2931.0,-9.562,0.132,-1.092,0.684,-0.312,0.434
2935.0,-9.562,0.132,-1.092,0.684,-0.312,0.434
2939.0,-9.3,0.312,-1.123,0.717,-0.347,0.398
2943.0,-9.3,0.312,-1.123,0.717,-0.347,0.398
2947.0,-9.3,0.312,-1.123,0.717,-0.347,0.398
2951.0,-9.114,0.424,-1.065,0.732,-0.366,0.359
2955.0,-9.114,0.424,-1.065,0.732,-0.366,0.359
2959.0,-8.974,0.501,-0.964,0.73,-0.377,0.32
2963.0,-8.974,0.501,-0.964,0.73,-0.377,0.32
2966.0,-8.974,0.501,-0.964,0.73,-0.377,0.32
2970.0,-8.898,0.528,-0.824,0.706,-0.391,0.284
2974.0,-8.898,0.528,-0.824,0.706,-0.391,0.284
2978.0,-8.93,0.613,-0.717,0.66,-0.408,0.256
2982.0,-8.93,0.613,-0.717,0.66,-0.408,0.256
2986.0,-8.93,0.613,-0.717,0.66,-0.408,0.256
2990.0,-9.022,0.696,-0.651,0.591,-0.433,0.24
2994.0,-9.022,0.696,-0.651,0.591,-0.433,0.24
2998.0,-9.196,0.787,-0.603,0.498,-0.459,0.238
