deltaTime,Acc_X,Acc_Y,Acc_Z,Gyro_X,Gyro_Y,Gyro_Z
0.0,-9.353,-4.153,2.837,-0.325,0.186,0.127
3.0,-9.353,-4.153,2.837,-0.325,0.186,0.127
6.0,-8.872,-3.831,3.785,-0.154,0.201,0.019
9.0,-8.872,-3.831,3.785,-0.154,0.201,0.019
12.0,-8.872,-3.831,3.785,-0.154,0.201,0.019
15.0,-9.165,-3.298,4.629,-0.154,0.201,-0.12
18.0,-9.165,-3.298,4.629,0.036,0.188,-0.12
21.0,-9.165,-3.298,4.629,0.036,0.188,-0.12
24.0,-9.165,-3.298,4.629,0.036,0.188,-0.12
27.0,-9.875,-2.94,5.21,0.184,0.106,-0.228
30.0,-9.875,-2.94,5.21,0.184,0.106,-0.228
33.0,-9.875,-2.94,5.21,0.184,0.106,-0.228
36.0,-10.471,-2.7,4.956,0.293,-0.026,-0.283
40.0,-10.471,-2.7,4.956,0.293,-0.026,-0.283
44.0,-10.471,-2.7,4.956,0.293,-0.026,-0.283
48.0,-10.367,-2.571,4.276,0.363,-0.149,-0.296
52.0,-10.367,-2.571,4.276,0.363,-0.149,-0.296
56.0,-10.107,-2.512,3.555,0.39,-0.214,-0.282
60.0,-10.107,-2.512,3.555,0.39,-0.214,-0.282
64.0,-10.107,-2.512,3.555,0.39,-0.214,-0.282
68.0,-9.666,-2.136,2.999,0.35,-0.227,-0.259
71.0,-9.666,-2.136,2.999,0.35,-0.227,-0.259
75.0,-9.441,-1.949,2.493,0.224,-0.227,-0.233
79.0,-9.441,-1.949,2.493,0.224,-0.227,-0.233
83.0,-9.441,-1.949,2.493,0.224,-0.227,-0.233
87.0,-9.472,-1.871,2.481,0.068,-0.213,-0.208
91.0,-9.472,-1.871,2.481,0.068,-0.213,-0.208
94.0,-9.449,-1.92,2.629,0.068,-0.213,-0.183
98.0,-9.449,-1.92,2.629,-0.066,-0.194,-0.183
102.0,-9.449,-1.92,2.629,-0.066,-0.194,-0.183
106.0,-9.38,-1.955,3.033,-0.148,-0.168,-0.161
110.0,-9.38,-1.955,3.033,-0.148,-0.168,-0.161
114.0,-9.345,-1.988,3.454,-0.148,-0.168,-0.147
118.0,-9.345,-1.988,3.454,-0.172,-0.161,-0.147
122.0,-9.345,-1.988,3.454,-0.172,-0.161,-0.147
126.0,-9.602,-2.28,3.471,-0.15,-0.181,-0.135
130.0,-9.602,-2.28,3.471,-0.15,-0.181,-0.135
134.0,-9.955,-2.459,3.156,-0.15,-0.206,-0.112
138.0,-9.955,-2.459,3.156,-0.076,-0.206,-0.112
142.0,-9.955,-2.459,3.156,-0.076,-0.206,-0.112
146.0,-10.0,-2.415,2.85,0.006,-0.215,-0.075
150.0,-10.0,-2.415,2.85,0.006,-0.215,-0.075
154.0,-10.098,-2.35,2.346,0.033,-0.206,-0.028
158.0,-10.098,-2.35,2.346,0.033,-0.206,-0.028
162.0,-10.098,-2.35,2.346,0.033,-0.206,-0.028
166.0,-10.111,-2.396,2.231,-0.0,-0.138,0.035
170.0,-10.111,-2.396,2.231,-0.0,-0.138,0.035
174.0,-9.817,-2.434,2.679,-0.053,-0.045,0.078
178.0,-9.817,-2.434,2.679,-0.053,-0.045,0.078
182.0,-9.817,-2.434,2.679,-0.053,-0.045,0.078
186.0,-9.971,-2.43,3.406,-0.116,0.02,0.089
189.0,-9.971,-2.43,3.406,-0.116,0.02,0.089
193.0,-10.146,-2.573,4.055,-0.181,0.042,0.083
197.0,-10.146,-2.573,4.055,-0.181,0.042,0.083
201.0,-10.146,-2.573,4.055,-0.181,0.042,0.083
205.0,-10.101,-2.973,4.335,-0.181,0.007,0.056
209.0,-10.101,-2.973,4.335,-0.181,0.007,0.056
213.0,-10.19,-2.936,3.812,-0.181,0.007,0.014
217.0,-10.19,-2.936,3.812,-0.085,-0.071,0.014
221.0,-10.19,-2.936,3.812,-0.085,-0.071,0.014
225.0,-10.139,-2.849,3.373,0.036,-0.112,-0.013
229.0,-10.139,-2.849,3.373,0.036,-0.112,-0.013
233.0,-9.611,-2.73,3.301,0.036,-0.125,-0.015
237.0,-9.611,-2.73,3.301,0.184,-0.125,-0.015
241.0,-9.611,-2.73,3.301,0.184,-0.125,-0.015
244.0,-9.132,-2.341,3.203,0.343,-0.166,-0.016
248.0,-9.132,-2.341,3.203,0.343,-0.166,-0.016
252.0,-8.483,-1.871,3.252,0.343,-0.166,-0.026
256.0,-8.483,-1.871,3.252,0.453,-0.226,-0.026
260.0,-8.483,-1.871,3.252,0.453,-0.226,-0.026
264.0,-7.635,-1.783,3.288,0.509,-0.29,-0.026
268.0,-7.635,-1.783,3.288,0.509,-0.29,-0.026
272.0,-7.336,-1.86,2.898,0.509,-0.29,-0.026
276.0,-7.336,-1.86,2.898,0.543,-0.355,-0.023
280.0,-7.336,-1.86,2.898,0.543,-0.355,-0.023
283.0,-7.171,-1.752,2.284,0.557,-0.422,-0.035
287.0,-7.171,-1.752,2.284,0.557,-0.422,-0.035
291.0,-7.171,-1.487,1.777,0.557,-0.422,-0.035
295.0,-6.868,-1.487,1.777,0.51,-0.456,-0.051
299.0,-6.868,-1.487,1.777,0.51,-0.456,-0.051
303.0,-6.686,-1.348,1.398,0.375,-0.422,-0.044
307.0,-6.686,-1.348,1.398,0.375,-0.422,-0.044
311.0,-6.686,-1.348,1.319,0.375,-0.422,-0.044
315.0,-7.124,-1.493,1.319,0.186,-0.311,-0.011
319.0,-7.124,-1.493,1.319,0.186,-0.311,-0.011
323.0,-8.082,-1.613,1.551,0.007,-0.169,0.034
326.0,-8.082,-1.613,1.551,0.007,-0.169,0.034
330.0,-8.082,-1.613,1.551,0.007,-0.169,0.034
334.0,-8.962,-1.717,2.003,-0.148,-0.035,0.085
338.0,-8.962,-1.717,2.003,-0.148,-0.035,0.085
342.0,-9.7,-2.029,2.664,-0.286,0.074,0.14
346.0,-9.7,-2.029,2.664,-0.286,0.074,0.14
349.0,-9.7,-2.029,2.664,-0.286,0.074,0.14
353.0,-10.274,-2.52,3.194,-0.389,0.134,0.19
357.0,-10.274,-2.52,3.194,-0.389,0.134,0.19
361.0,-10.652,-2.901,3.464,-0.434,0.141,0.21
365.0,-10.652,-2.901,3.464,-0.434,0.141,0.21
369.0,-10.652,-2.901,3.464,-0.434,0.141,0.21
373.0,-10.783,-3.085,3.502,-0.432,0.117,0.2
377.0,-10.783,-3.085,3.502,-0.432,0.117,0.2
381.0,-10.692,-3.129,3.352,-0.432,0.117,0.172
385.0,-10.692,-3.129,3.352,-0.399,0.09,0.172
388.0,-10.692,-3.129,3.352,-0.399,0.09,0.172
392.0,-10.479,-3.106,3.056,-0.337,0.075,0.137
396.0,-10.479,-3.106,3.056,-0.337,0.075,0.137
400.0,-10.287,-2.985,2.685,-0.337,0.075,0.137
404.0,-10.287,-2.985,2.685,-0.263,0.079,0.104
408.0,-10.287,-2.985,2.685,-0.263,0.079,0.104
412.0,-9.95,-2.878,2.57,-0.192,0.1,0.075
416.0,-9.95,-2.878,2.57,-0.192,0.1,0.075
420.0,-9.95,-2.878,2.562,-0.192,0.1,0.075
423.0,-9.461,-2.916,2.562,-0.11,0.115,0.049
427.0,-9.461,-2.916,2.562,-0.11,0.115,0.049
431.0,-9.028,-2.889,2.643,-0.009,0.116,0.016
435.0,-9.028,-2.889,2.643,-0.009,0.116,0.016
439.0,-9.028,-2.889,2.643,-0.009,0.116,0.016
442.0,-8.797,-2.868,2.662,0.099,0.106,-0.032
446.0,-8.797,-2.868,2.662,0.099,0.106,-0.032
450.0,-8.794,-2.745,2.68,0.196,0.095,-0.082
454.0,-8.794,-2.745,2.68,0.196,0.095,-0.082
458.0,-8.794,-2.745,2.68,0.196,0.095,-0.082
462.0,-8.971,-2.572,2.715,0.265,0.086,-0.116
465.0,-8.971,-2.572,2.715,0.265,0.086,-0.116
469.0,-9.12,-2.368,2.88,0.265,0.086,-0.116
473.0,-9.12,-2.368,2.88,0.299,0.068,-0.118
477.0,-9.12,-2.368,2.88,0.299,0.068,-0.118
481.0,-9.096,-2.132,3.245,0.295,0.022,-0.095
484.0,-9.096,-2.132,3.245,0.295,0.022,-0.095
488.0,-9.096,-2.132,3.245,0.295,0.022,-0.095
492.0,-8.798,-2.045,3.51,0.263,-0.061,-0.065
496.0,-8.798,-2.045,3.51,0.263,-0.061,-0.065
500.0,-8.429,-2.037,3.56,0.227,-0.156,-0.047
504.0,-8.429,-2.037,3.56,0.227,-0.156,-0.047
508.0,-8.429,-2.037,3.56,0.227,-0.156,-0.047
512.0,-8.399,-2.073,3.433,0.193,-0.223,-0.047
516.0,-8.399,-2.073,3.433,0.193,-0.223,-0.047
519.0,-8.503,-2.14,3.296,0.159,-0.244,-0.052
523.0,-8.503,-2.14,3.296,0.159,-0.244,-0.052
527.0,-8.503,-2.14,3.296,0.159,-0.244,-0.052
531.0,-8.8,-2.161,3.179,0.112,-0.22,-0.052
535.0,-8.8,-2.161,3.179,0.112,-0.22,-0.052
539.0,-9.516,-2.43,3.281,0.058,-0.167,-0.042
543.0,-9.516,-2.43,3.281,0.058,-0.167,-0.042
547.0,-9.516,-2.43,3.281,0.058,-0.167,-0.042
551.0,-10.165,-2.609,3.37,0.034,-0.115,-0.01
555.0,-10.165,-2.609,3.37,0.034,-0.115,-0.01
559.0,-10.776,-2.763,3.597,0.027,-0.078,0.032
563.0,-10.776,-2.763,3.597,0.027,-0.078,0.032
566.0,-10.776,-2.763,3.597,0.027,-0.078,0.032
570.0,-11.012,-2.812,3.688,0.034,-0.075,0.075
574.0,-11.012,-2.812,3.688,0.034,-0.075,0.075
578.0,-10.813,-2.85,3.729,0.034,-0.104,0.109
582.0,-10.813,-2.85,3.729,0.05,-0.104,0.109
586.0,-10.813,-2.85,3.729,0.05,-0.104,0.109
590.0,-10.306,-2.938,3.711,0.081,-0.167,0.117
594.0,-10.306,-2.938,3.711,0.081,-0.167,0.117
598.0,-9.753,-2.895,3.566,0.081,-0.167,0.09
602.0,-9.753,-2.895,3.566,0.133,-0.239,0.09
605.0,-9.753,-2.895,3.566,0.133,-0.239,0.09
609.0,-9.498,-2.666,3.455,0.184,-0.272,0.039
613.0,-9.498,-2.666,3.455,0.184,-0.272,0.039
617.0,-9.498,-2.666,3.301,0.184,-0.272,0.039
621.0,-9.458,-2.469,3.301,0.216,-0.255,-0.004
625.0,-9.458,-2.469,3.301,0.216,-0.255,-0.004
628.0,-9.608,-2.515,3.208,0.235,-0.204,-0.016
632.0,-9.608,-2.515,3.208,0.235,-0.204,-0.016
636.0,-9.608,-2.515,3.208,0.235,-0.204,-0.016
640.0,-9.604,-2.729,3.303,0.268,-0.148,0.004
644.0,-9.604,-2.729,3.303,0.268,-0.148,0.004
648.0,-9.885,-2.901,3.58,0.337,-0.124,0.036
652.0,-9.885,-2.901,3.58,0.337,-0.124,0.036
655.0,-9.885,-2.901,3.58,0.337,-0.124,0.036
659.0,-9.694,-2.711,3.67,0.418,-0.157,0.046
663.0,-9.694,-2.711,3.67,0.418,-0.157,0.046
667.0,-9.083,-2.411,3.612,0.418,-0.205,0.029
671.0,-9.083,-2.411,3.612,0.461,-0.205,0.029
675.0,-9.083,-2.411,3.612,0.461,-0.205,0.029
678.0,-8.608,-2.307,3.502,0.472,-0.232,-0.001
682.0,-8.608,-2.307,3.502,0.472,-0.232,-0.001
686.0,-8.608,-2.294,3.462,0.472,-0.232,-0.001
690.0,-8.695,-2.294,3.462,0.479,-0.231,-0.02
694.0,-8.695,-2.294,3.462,0.479,-0.231,-0.02
698.0,-8.917,-2.364,3.519,0.498,-0.22,-0.017
702.0,-8.917,-2.364,3.519,0.498,-0.22,-0.017
706.0,-8.917,-2.364,3.538,0.498,-0.22,-0.017
710.0,-8.935,-2.498,3.538,0.526,-0.214,0.005
713.0,-8.935,-2.498,3.538,0.526,-0.214,0.005
717.0,-8.862,-2.632,3.577,0.552,-0.208,0.029
721.0,-8.862,-2.632,3.577,0.552,-0.208,0.029
725.0,-8.862,-2.632,3.577,0.552,-0.208,0.029
729.0,-8.754,-2.703,3.528,0.579,-0.207,0.042
733.0,-8.754,-2.703,3.528,0.579,-0.207,0.042
736.0,-8.673,-2.736,3.538,0.607,-0.207,0.047
740.0,-8.673,-2.736,3.538,0.607,-0.207,0.047
744.0,-8.673,-2.736,3.538,0.607,-0.207,0.047
748.0,-8.501,-2.704,3.664,0.644,-0.201,0.043
752.0,-8.501,-2.704,3.664,0.644,-0.201,0.043
755.0,-8.381,-2.644,3.822,0.644,-0.201,0.043
759.0,-8.381,-2.644,3.822,0.695,-0.18,0.037
763.0,-8.381,-2.644,3.822,0.695,-0.18,0.037
767.0,-8.436,-2.661,4.027,0.756,-0.148,0.027
771.0,-8.436,-2.661,4.027,0.756,-0.148,0.027
775.0,-8.436,-2.661,4.027,0.756,-0.148,0.027
778.0,-8.643,-2.599,4.056,0.824,-0.124,0.017
782.0,-8.643,-2.599,4.056,0.824,-0.124,0.017
786.0,-8.936,-2.355,4.283,0.878,-0.122,0.019
790.0,-8.936,-2.355,4.283,0.878,-0.122,0.019
794.0,-8.936,-2.355,4.283,0.878,-0.122,0.019
797.0,-9.095,-2.123,4.63,0.912,-0.145,0.04
801.0,-9.095,-2.123,4.63,0.912,-0.145,0.04
805.0,-9.036,-2.041,4.865,0.912,-0.188,0.061
809.0,-9.036,-2.041,4.865,0.922,-0.188,0.061
813.0,-9.036,-2.041,4.865,0.922,-0.188,0.061
817.0,-9.029,-2.204,4.912,0.912,-0.257,0.061
820.0,-9.029,-2.204,4.912,0.912,-0.257,0.061
824.0,-9.029,-2.204,4.82,0.912,-0.257,0.061
828.0,-9.072,-2.399,4.82,0.91,-0.336,0.043
832.0,-9.072,-2.399,4.82,0.91,-0.336,0.043
836.0,-9.081,-2.544,4.714,0.92,-0.396,0.029
839.0,-9.081,-2.544,4.714,0.92,-0.396,0.029
843.0,-9.081,-2.544,4.714,0.92,-0.396,0.029
847.0,-9.186,-2.639,4.689,0.94,-0.417,0.037
851.0,-9.186,-2.639,4.689,0.94,-0.417,0.037
855.0,-9.238,-2.614,4.773,0.961,-0.407,0.061
859.0,-9.238,-2.614,4.773,0.961,-0.407,0.061
862.0,-9.238,-2.614,4.773,0.961,-0.407,0.061
866.0,-9.13,-2.511,4.597,0.979,-0.4,0.084
870.0,-9.13,-2.511,4.597,0.979,-0.4,0.084
874.0,-9.287,-2.518,4.661,0.979,-0.4,0.084
878.0,-9.287,-2.518,4.661,0.987,-0.396,0.111
881.0,-9.287,-2.518,4.661,0.987,-0.396,0.111
885.0,-9.27,-2.529,4.518,1.008,-0.402,0.128
889.0,-9.27,-2.529,4.518,1.008,-0.402,0.128
893.0,-9.27,-2.529,4.518,1.008,-0.402,0.128
897.0,-9.238,-2.327,4.27,1.048,-0.401,0.135
901.0,-9.238,-2.327,4.27,1.048,-0.401,0.135
904.0,-9.182,-2.076,4.272,1.071,-0.387,0.143
908.0,-9.182,-2.076,4.272,1.071,-0.387,0.143
912.0,-9.182,-2.076,4.272,1.071,-0.387,0.143
916.0,-8.929,-1.908,4.198,1.075,-0.384,0.129
920.0,-8.929,-1.908,4.198,1.075,-0.384,0.129
924.0,-8.567,-1.832,4.017,1.075,-0.384,0.086
927.0,-8.567,-1.832,4.017,1.065,-0.385,0.086
931.0,-8.567,-1.832,4.017,1.065,-0.385,0.086
935.0,-8.664,-1.911,4.019,1.034,-0.365,0.062
939.0,-8.664,-1.911,4.019,1.034,-0.365,0.062
943.0,-8.664,-1.911,3.952,1.034,-0.365,0.062
946.0,-8.937,-2.107,3.952,0.997,-0.323,0.075
950.0,-8.937,-2.107,3.952,0.997,-0.323,0.075
954.0,-8.716,-2.431,4.141,0.994,-0.282,0.094
958.0,-8.716,-2.431,4.141,0.994,-0.282,0.094
962.0,-8.716,-2.431,4.141,0.994,-0.282,0.094
966.0,-8.161,-2.536,4.278,1.055,-0.276,0.089
969.0,-8.161,-2.536,4.278,1.055,-0.276,0.089
973.0,-7.988,-2.252,4.121,1.113,-0.292,0.065
977.0,-7.988,-2.252,4.121,1.113,-0.292,0.065
981.0,-7.988,-2.252,4.121,1.113,-0.292,0.065
985.0,-8.218,-1.929,3.826,1.091,-0.287,0.055
988.0,-8.218,-1.929,3.826,1.091,-0.287,0.055
992.0,-8.386,-1.753,3.636,1.091,-0.287,0.055
996.0,-8.386,-1.753,3.636,1.011,-0.262,0.081
1000.0,-8.386,-1.753,3.636,1.011,-0.262,0.081
1004.0,-8.293,-1.562,3.564,0.92,-0.233,0.119
1008.0,-8.293,-1.562,3.564,0.92,-0.233,0.119
1012.0,-8.293,-1.562,3.623,0.92,-0.233,0.119
1016.0,-8.299,-1.429,3.623,0.814,-0.206,0.143
1019.0,-8.299,-1.429,3.623,0.814,-0.206,0.143
1023.0,-8.265,-1.345,3.679,0.694,-0.194,0.135
1027.0,-8.265,-1.345,3.679,0.694,-0.194,0.135
1031.0,-8.265,-1.345,3.679,0.694,-0.194,0.135
1035.0,-8.168,-1.273,3.633,0.575,-0.205,0.099
1039.0,-8.168,-1.273,3.633,0.575,-0.205,0.099
1043.0,-8.241,-1.354,3.746,0.454,-0.205,0.059
1047.0,-8.241,-1.354,3.746,0.454,-0.205,0.059
1051.0,-8.241,-1.354,3.746,0.454,-0.205,0.059
1055.0,-8.384,-1.61,3.845,0.358,-0.184,0.033
1058.0,-8.384,-1.61,3.845,0.358,-0.184,0.033
1062.0,-8.618,-1.906,4.029,0.311,-0.155,0.024
1066.0,-8.618,-1.906,4.029,0.311,-0.155,0.024
1070.0,-8.618,-1.906,4.029,0.311,-0.155,0.024
1074.0,-8.844,-2.051,4.012,0.308,-0.144,0.024
1078.0,-8.844,-2.051,4.012,0.308,-0.144,0.024
1082.0,-9.101,-1.959,3.69,0.299,-0.147,0.034
1086.0,-9.101,-1.959,3.69,0.299,-0.147,0.034
1090.0,-9.101,-1.959,3.69,0.299,-0.147,0.034
0.0,-9.313,-1.828,3.304,0.231,-0.125,0.073
3.0,-9.313,-1.828,3.304,0.231,-0.125,0.073
7.0,-9.266,-1.914,3.209,0.231,-0.125,0.073
11.0,-9.266,-1.914,3.209,0.117,-0.058,0.132
14.0,-9.266,-1.914,3.209,0.117,-0.058,0.132
18.0,-9.163,-2.119,3.655,0.011,0.032,0.168
22.0,-9.163,-2.119,3.655,0.011,0.032,0.168
25.0,-9.163,-2.119,3.655,0.011,0.032,0.168
29.0,-9.194,-2.25,4.092,-0.057,0.094,0.148
33.0,-9.194,-2.25,4.092,-0.057,0.094,0.148
36.0,-9.262,-2.487,4.396,-0.057,0.094,0.148
40.0,-9.262,-2.487,4.396,-0.087,0.131,0.089
44.0,-9.262,-2.487,4.396,-0.087,0.131,0.089
48.0,-9.305,-2.76,4.683,-0.057,0.158,0.026
51.0,-9.305,-2.76,4.683,-0.057,0.158,0.026
55.0,-9.305,-2.76,4.683,-0.057,0.158,0.026
59.0,-9.285,-2.707,4.926,0.025,0.16,-0.054
63.0,-9.285,-2.707,4.926,0.025,0.16,-0.054
66.0,-9.081,-2.594,5.132,0.025,0.16,-0.154
70.0,-9.081,-2.594,5.132,0.12,0.121,-0.154
74.0,-9.081,-2.594,5.132,0.12,0.121,-0.154
78.0,-8.609,-2.557,5.265,0.244,0.05,-0.249
81.0,-8.609,-2.557,5.265,0.244,0.05,-0.249
85.0,-8.609,-2.557,5.265,0.244,0.05,-0.249
89.0,-8.094,-2.363,5.14,0.395,-0.028,-0.323
93.0,-8.094,-2.363,5.14,0.395,-0.028,-0.323
96.0,-7.613,-2.15,4.824,0.524,-0.091,-0.361
100.0,-7.613,-2.15,4.824,0.524,-0.091,-0.361
104.0,-7.613,-2.15,4.824,0.524,-0.091,-0.361
108.0,-6.995,-1.804,4.312,0.608,-0.126,-0.372
112.0,-6.995,-1.804,4.312,0.608,-0.126,-0.372
116.0,-6.393,-1.543,3.784,0.608,-0.126,-0.367
120.0,-6.393,-1.543,3.784,0.624,-0.126,-0.367
124.0,-6.393,-1.543,3.784,0.624,-0.126,-0.367
128.0,-6.195,-1.071,3.379,0.559,-0.087,-0.368
131.0,-6.195,-1.071,3.379,0.559,-0.087,-0.368
135.0,-6.39,-0.607,3.324,0.559,-0.087,-0.368
139.0,-6.39,-0.607,3.324,0.391,-0.027,-0.382
143.0,-6.39,-0.607,3.324,0.391,-0.027,-0.382
147.0,-6.782,-0.462,3.544,0.147,0.031,-0.399
151.0,-6.782,-0.462,3.544,0.147,0.031,-0.399
155.0,-6.782,-0.462,3.915,0.147,0.031,-0.399
158.0,-7.167,-0.632,3.915,-0.104,0.072,-0.41
162.0,-7.167,-0.632,3.915,-0.104,0.072,-0.41
166.0,-7.46,-0.942,4.33,-0.293,0.085,-0.416
170.0,-7.46,-0.942,4.33,-0.293,0.085,-0.416
174.0,-7.46,-0.942,4.33,-0.293,0.085,-0.416
178.0,-7.689,-1.119,4.613,-0.419,0.08,-0.42
182.0,-7.689,-1.119,4.613,-0.419,0.08,-0.42
186.0,-7.844,-1.404,4.659,-0.506,0.08,-0.391
190.0,-7.844,-1.404,4.659,-0.506,0.08,-0.391
194.0,-7.844,-1.404,4.659,-0.506,0.08,-0.391
198.0,-8.118,-1.857,4.72,-0.549,0.106,-0.329
201.0,-8.118,-1.857,4.72,-0.549,0.106,-0.329
205.0,-8.691,-2.23,4.716,-0.533,0.138,-0.252
209.0,-8.691,-2.23,4.716,-0.533,0.138,-0.252
213.0,-8.691,-2.23,4.716,-0.533,0.138,-0.252
217.0,-9.305,-2.38,4.706,-0.483,0.162,-0.166
221.0,-9.305,-2.38,4.706,-0.483,0.162,-0.166
225.0,-9.77,-2.455,4.953,-0.427,0.17,-0.085
229.0,-9.77,-2.455,4.953,-0.427,0.17,-0.085
233.0,-9.77,-2.455,4.953,-0.427,0.17,-0.085
237.0,-9.769,-2.556,5.144,-0.37,0.141,-0.038
241.0,-9.769,-2.556,5.144,-0.37,0.141,-0.038
244.0,-9.476,-2.49,5.141,-0.299,0.096,-0.024
248.0,-9.476,-2.49,5.141,-0.299,0.096,-0.024
252.0,-9.476,-2.49,5.141,-0.299,0.096,-0.024
256.0,-8.947,-2.471,5.121,-0.225,0.073,-0.016
260.0,-8.947,-2.471,5.121,-0.225,0.073,-0.016
264.0,-8.474,-2.589,5.189,-0.225,0.078,-0.015
268.0,-8.474,-2.589,5.189,-0.118,0.078,-0.015
272.0,-8.474,-2.589,5.189,-0.118,0.078,-0.015
276.0,-8.222,-2.597,5.432,0.039,0.093,-0.027
280.0,-8.222,-2.597,5.432,0.039,0.093,-0.027
283.0,-8.183,-2.623,5.722,0.039,0.093,-0.027
287.0,-8.183,-2.623,5.722,0.216,0.099,-0.043
291.0,-8.183,-2.623,5.722,0.216,0.099,-0.043
295.0,-8.16,-2.632,5.855,0.391,0.086,-0.054
299.0,-8.16,-2.632,5.855,0.391,0.086,-0.054
302.0,-8.16,-2.632,5.855,0.391,0.086,-0.054
306.0,-8.205,-2.46,6.003,0.537,0.065,-0.05
310.0,-8.205,-2.46,6.003,0.537,0.065,-0.05
314.0,-8.294,-2.356,6.15,0.616,0.038,-0.024
318.0,-8.294,-2.356,6.15,0.616,0.038,-0.024
322.0,-8.294,-2.356,6.15,0.616,0.038,-0.024
325.0,-8.314,-2.316,6.301,0.669,-0.006,-0.008
329.0,-8.314,-2.316,6.301,0.669,-0.006,-0.008
333.0,-8.237,-2.129,6.55,0.669,-0.054,-0.007
337.0,-8.237,-2.129,6.55,0.705,-0.054,-0.007
341.0,-8.237,-2.129,6.55,0.705,-0.054,-0.007
345.0,-8.358,-1.895,7.034,0.689,-0.097,-0.003
349.0,-8.358,-1.895,7.034,0.689,-0.097,-0.003
353.0,-8.451,-1.744,7.616,0.689,-0.097,-0.006
357.0,-8.451,-1.744,7.616,0.629,-0.145,-0.006
360.0,-8.451,-1.744,7.616,0.629,-0.145,-0.006
364.0,-8.649,-2.045,7.896,0.539,-0.184,-0.007
368.0,-8.649,-2.045,7.896,0.539,-0.184,-0.007
372.0,-9.481,-2.868,8.089,0.539,-0.184,-0.007
376.0,-9.481,-2.868,8.089,0.528,-0.221,0.017
380.0,-9.481,-2.868,8.089,0.528,-0.221,0.017
384.0,-10.035,-2.86,8.197,0.682,-0.282,0.014
388.0,-10.035,-2.86,8.197,0.682,-0.282,0.014
392.0,-10.035,-2.86,8.297,0.682,-0.282,0.014
395.0,-10.196,-2.484,8.297,0.865,-0.365,-0.017
399.0,-10.196,-2.484,8.297,0.865,-0.365,-0.017
403.0,-10.222,-2.142,8.612,0.993,-0.44,-0.043
407.0,-10.222,-2.142,8.612,0.993,-0.44,-0.043
411.0,-10.222,-1.887,8.915,0.993,-0.44,-0.043
415.0,-10.417,-1.887,8.915,1.074,-0.504,-0.067
419.0,-10.417,-1.887,8.915,1.074,-0.504,-0.067
423.0,-10.432,-1.851,9.356,1.108,-0.561,-0.102
427.0,-10.432,-1.851,9.356,1.108,-0.561,-0.102
431.0,-10.388,-2.133,9.708,1.108,-0.561,-0.102
435.0,-10.388,-2.133,9.708,1.15,-0.625,-0.119
439.0,-10.388,-2.133,9.708,1.15,-0.625,-0.119
443.0,-10.446,-2.284,9.776,1.247,-0.703,-0.11
447.0,-10.446,-2.284,9.776,1.247,-0.703,-0.11
451.0,-10.705,-2.367,9.72,1.247,-0.703,-0.08
455.0,-10.705,-2.367,9.72,1.371,-0.785,-0.08
459.0,-10.705,-2.367,9.72,1.371,-0.785,-0.08
463.0,-10.51,-2.142,9.577,1.46,-0.88,-0.058
467.0,-10.51,-2.142,9.577,1.46,-0.88,-0.058
471.0,-10.165,-2.379,9.452,1.46,-1.021,-0.051
475.0,-10.165,-2.379,9.452,1.512,-1.021,-0.051
479.0,-10.165,-2.379,9.452,1.512,-1.021,-0.051
483.0,-9.485,-2.157,9.156,1.606,-1.212,-0.049
487.0,-9.485,-2.157,9.156,1.606,-1.212,-0.049
491.0,-9.041,-1.769,8.644,1.719,-1.406,-0.062
495.0,-9.041,-1.769,8.644,1.719,-1.406,-0.062
499.0,-9.041,-1.769,8.644,1.719,-1.406,-0.062
503.0,-8.977,-1.464,8.186,1.808,-1.562,-0.07
507.0,-8.977,-1.464,8.186,1.808,-1.562,-0.07
511.0,-8.92,-1.382,7.848,1.808,-1.658,-0.054
515.0,-8.92,-1.382,7.848,1.865,-1.658,-0.054
518.0,-8.92,-1.382,7.848,1.865,-1.658,-0.054
522.0,-8.678,-1.587,7.61,1.902,-1.719,-0.008
526.0,-8.678,-1.587,7.61,1.902,-1.719,-0.008
530.0,-8.445,-2.013,7.633,1.902,-1.719,-0.008
534.0,-8.445,-2.013,7.633,1.942,-1.767,0.05
538.0,-8.445,-2.013,7.633,1.942,-1.767,0.05
542.0,-8.329,-2.36,7.646,2.011,-1.819,0.094
546.0,-8.329,-2.36,7.646,2.011,-1.819,0.094
549.0,-8.329,-2.36,7.675,2.011,-1.819,0.094
553.0,-8.19,-2.536,7.675,2.097,-1.865,0.099
557.0,-8.19,-2.536,7.675,2.097,-1.865,0.099
561.0,-8.157,-2.693,7.821,2.201,-1.894,0.079
565.0,-8.157,-2.693,7.821,2.201,-1.894,0.079
568.0,-8.157,-2.693,7.821,2.201,-1.894,0.079
572.0,-8.454,-2.938,7.822,2.348,-1.892,0.052
576.0,-8.454,-2.938,7.822,2.348,-1.892,0.052
580.0,-9.029,-2.614,7.647,2.529,-1.857,0.033
584.0,-9.029,-2.614,7.647,2.529,-1.857,0.033
588.0,-9.029,-2.614,7.647,2.529,-1.857,0.033
591.0,-9.409,-2.328,7.28,2.664,-1.825,0.039
595.0,-9.409,-2.328,7.28,2.664,-1.825,0.039
599.0,-9.409,-2.101,7.125,2.664,-1.825,0.039
603.0,-9.309,-2.101,7.125,2.745,-1.822,0.078
607.0,-9.309,-2.101,7.125,2.745,-1.822,0.078
610.0,-8.724,-1.783,7.394,2.802,-1.854,0.124
614.0,-8.724,-1.783,7.394,2.802,-1.854,0.124
618.0,-8.724,-1.783,7.394,2.802,-1.854,0.124
622.0,-7.982,-1.37,7.829,2.864,-1.907,0.14
626.0,-7.982,-1.37,7.829,2.864,-1.907,0.14
630.0,-7.405,-1.164,8.161,2.96,-1.952,0.097
633.0,-7.405,-1.164,8.161,2.96,-1.952,0.097
637.0,-7.405,-1.164,8.161,2.96,-1.952,0.097
641.0,-7.114,-0.832,8.203,3.073,-1.971,0.012
645.0,-7.114,-0.832,8.203,3.073,-1.971,0.012
649.0,-6.969,-0.492,7.886,3.073,-1.971,-0.065
653.0,-6.969,-0.492,7.886,3.154,-1.984,-0.065
656.0,-6.969,-0.492,7.886,3.154,-1.984,-0.065
660.0,-6.896,-0.178,7.795,3.185,-2.003,-0.104
664.0,-6.896,-0.178,7.795,3.185,-2.003,-0.104
668.0,-6.793,0.284,8.051,3.185,-2.003,-0.104
672.0,-6.793,0.284,8.051,3.179,-2.03,-0.098
676.0,-6.793,0.284,8.051,3.179,-2.03,-0.098
680.0,-6.625,0.468,8.422,3.162,-2.07,-0.05
683.0,-6.625,0.468,8.422,3.162,-2.07,-0.05
687.0,-6.625,0.468,8.422,3.162,-2.07,-0.05
691.0,-6.416,0.364,8.75,3.166,-2.123,0.013
695.0,-6.416,0.364,8.75,3.166,-2.123,0.013
699.0,-6.12,0.304,8.782,3.202,-2.195,0.07
702.0,-6.12,0.304,8.782,3.202,-2.195,0.07
706.0,-6.12,0.304,8.782,3.202,-2.195,0.07
710.0,-5.733,0.361,8.746,3.274,-2.278,0.122
714.0,-5.733,0.361,8.746,3.274,-2.278,0.122
717.0,-5.733,0.361,8.426,3.274,-2.278,0.122
721.0,-5.414,0.174,8.426,3.383,-2.347,0.159
725.0,-5.414,0.174,8.426,3.383,-2.347,0.159
728.0,-5.052,0.382,7.909,3.545,-2.386,0.187
732.0,-5.052,0.382,7.909,3.545,-2.386,0.187
736.0,-5.052,0.382,7.909,3.545,-2.386,0.187
740.0,-4.835,1.061,7.945,3.717,-2.389,0.206
743.0,-4.835,1.061,7.945,3.717,-2.389,0.206
747.0,-4.835,1.912,8.263,3.717,-2.389,0.206
751.0,-5.026,1.912,8.263,3.753,-2.364,0.191
755.0,-5.026,1.912,8.263,3.753,-2.364,0.191
758.0,-4.853,2.354,8.404,3.638,-2.361,0.133
762.0,-4.853,2.354,8.404,3.638,-2.361,0.133
766.0,-4.853,2.354,8.404,3.638,-2.361,0.133
770.0,-4.397,2.651,8.582,3.504,-2.399,0.043
773.0,-4.397,2.651,8.582,3.504,-2.399,0.043
777.0,-4.076,2.876,8.91,3.504,-2.399,0.043
781.0,-4.076,2.876,8.91,3.366,-2.436,-0.043
785.0,-4.076,2.876,8.91,3.366,-2.436,-0.043
788.0,-4.047,3.252,9.099,3.216,-2.46,-0.094
792.0,-4.047,3.252,9.099,3.216,-2.46,-0.094
796.0,-4.047,3.252,9.099,3.216,-2.46,-0.094
800.0,-4.141,3.443,9.23,3.061,-2.489,-0.11
804.0,-4.141,3.443,9.23,3.061,-2.489,-0.11
807.0,-4.279,3.636,9.196,2.929,-2.539,-0.147
811.0,-4.279,3.636,9.196,2.929,-2.539,-0.147
815.0,-4.279,3.636,9.196,2.929,-2.539,-0.147
819.0,-4.098,3.767,8.937,2.842,-2.615,-0.218
823.0,-4.098,3.767,8.937,2.842,-2.615,-0.218
827.0,-3.683,3.811,8.852,2.842,-2.677,-0.282
830.0,-3.683,3.811,8.852,2.784,-2.677,-0.282
834.0,-3.683,3.811,8.852,2.784,-2.677,-0.282
838.0,-3.271,3.762,8.733,2.747,-2.705,-0.312
842.0,-3.271,3.762,8.733,2.747,-2.705,-0.312
846.0,-3.271,3.762,9.111,2.747,-2.705,-0.312
849.0,-2.906,3.421,9.111,2.762,-2.697,-0.328
853.0,-2.906,3.421,9.111,2.762,-2.697,-0.328
857.0,-2.722,3.186,9.464,2.847,-2.689,-0.364
861.0,-2.722,3.186,9.464,2.847,-2.689,-0.364
865.0,-2.722,3.186,9.464,2.847,-2.689,-0.364
869.0,-2.518,3.176,9.738,2.971,-2.703,-0.409
872.0,-2.518,3.176,9.738,2.971,-2.703,-0.409
876.0,-2.569,3.272,9.851,3.105,-2.744,-0.475
880.0,-2.569,3.272,9.851,3.105,-2.744,-0.475
884.0,-2.569,3.272,9.851,3.105,-2.744,-0.475
888.0,-2.582,3.494,9.513,3.226,-2.825,-0.571
891.0,-2.582,3.494,9.513,3.226,-2.825,-0.571
895.0,-2.431,3.985,8.886,3.226,-2.825,-0.571
899.0,-2.431,3.985,8.886,3.311,-2.912,-0.69
903.0,-2.431,3.985,8.886,3.311,-2.912,-0.69
907.0,-2.151,4.374,8.167,3.317,-2.971,-0.779
911.0,-2.151,4.374,8.167,3.317,-2.971,-0.779
914.0,-2.151,4.374,8.167,3.317,-2.971,-0.779
918.0,-1.797,4.437,7.493,3.238,-2.993,-0.832
922.0,-1.797,4.437,7.493,3.238,-2.993,-0.832
926.0,-1.552,4.202,7.022,3.1,-2.982,-0.891
930.0,-1.552,4.202,7.022,3.1,-2.982,-0.891
933.0,-1.552,4.202,7.022,3.1,-2.982,-0.891
937.0,-1.659,4.005,6.647,2.93,-2.968,-0.979
941.0,-1.659,4.005,6.647,2.93,-2.968,-0.979
945.0,-1.675,3.712,6.22,2.93,-2.968,-1.076
949.0,-1.675,3.712,6.22,2.749,-2.976,-1.076
953.0,-1.675,3.712,6.22,2.749,-2.976,-1.076
956.0,-1.811,3.532,5.596,2.576,-2.978,-1.179
960.0,-1.811,3.532,5.596,2.576,-2.978,-1.179
964.0,-1.811,3.532,4.68,2.576,-2.978,-1.179
968.0,-1.855,3.425,4.68,2.43,-2.972,-1.274
972.0,-1.855,3.425,4.68,2.43,-2.972,-1.274
976.0,-1.724,3.43,3.708,2.325,-2.954,-1.355
979.0,-1.724,3.43,3.708,2.325,-2.954,-1.355
983.0,-1.724,3.43,3.708,2.325,-2.954,-1.355
987.0,-1.667,3.668,2.859,2.261,-2.917,-1.418
991.0,-1.667,3.668,2.859,2.261,-2.917,-1.418
995.0,-1.82,4.174,2.049,2.222,-2.854,-1.453
998.0,-1.82,4.174,2.049,2.222,-2.854,-1.453
1002.0,-1.82,4.174,2.049,2.222,-2.854,-1.453
1006.0,-1.989,4.872,1.359,2.186,-2.776,-1.434
1010.0,-1.989,4.872,1.359,2.186,-2.776,-1.434
1014.0,-2.262,5.756,0.843,2.186,-2.776,-1.354
1018.0,-2.262,5.756,0.843,2.123,-2.682,-1.354
1022.0,-2.262,5.756,0.843,2.123,-2.682,-1.354
1026.0,-2.472,6.639,0.371,2.007,-2.58,-1.217
1030.0,-2.472,6.639,0.371,2.007,-2.58,-1.217
1033.0,-2.519,7.211,-0.061,2.007,-2.58,-1.217
1037.0,-2.519,7.211,-0.061,1.83,-2.48,-1.035
1041.0,-2.519,7.211,-0.061,1.83,-2.48,-1.035
1045.0,-2.478,7.467,-0.364,1.593,-2.367,-0.837
1049.0,-2.478,7.467,-0.364,1.593,-2.367,-0.837
1053.0,-2.402,7.759,-0.485,1.593,-2.367,-0.672
1057.0,-2.402,7.759,-0.485,1.319,-2.248,-0.672
1061.0,-2.402,7.759,-0.485,1.319,-2.248,-0.672
1065.0,-2.334,8.15,-0.574,1.025,-2.138,-0.526
1069.0,-2.334,8.15,-0.574,1.025,-2.138,-0.526
1073.0,-2.228,8.56,-0.505,1.025,-2.022,-0.364
1077.0,-2.228,8.56,-0.505,0.707,-2.022,-0.364
1081.0,-2.228,8.56,-0.505,0.707,-2.022,-0.364
1085.0,-2.354,9.073,-0.346,0.391,-1.897,-0.207
1089.0,-2.354,9.073,-0.346,0.391,-1.897,-0.207
1093.0,-2.632,9.568,-0.276,0.114,-1.783,-0.069
1097.0,-2.632,9.568,-0.276,0.114,-1.783,-0.069
1101.0,-2.632,9.568,-0.276,0.114,-1.783,-0.069
1105.0,-2.671,9.857,-0.273,-0.111,-1.669,0.067
1109.0,-2.671,9.857,-0.273,-0.111,-1.669,0.067
1113.0,-2.618,10.089,-0.035,-0.264,-1.531,0.195
1117.0,-2.618,10.089,-0.035,-0.264,-1.531,0.195
1122.0,-2.618,10.089,-0.035,-0.264,-1.531,0.195
1126.0,-2.698,10.355,0.135,-0.328,-1.393,0.306
1130.0,-2.698,10.355,0.135,-0.328,-1.393,0.306
1134.0,-2.599,10.522,0.199,-0.33,-1.264,0.459
1138.0,-2.599,10.522,0.199,-0.33,-1.264,0.459
1142.0,-2.599,10.522,0.199,-0.33,-1.264,0.459
1146.0,-2.517,10.461,0.229,-0.309,-1.119,0.651
1150.0,-2.517,10.461,0.229,-0.309,-1.119,0.651
1154.0,-2.438,10.381,0.162,-0.292,-0.975,0.826
1158.0,-2.438,10.381,0.162,-0.292,-0.975,0.826
1162.0,-2.438,10.381,0.162,-0.292,-0.975,0.826
1166.0,-2.235,10.509,0.162,-0.311,-0.841,0.959
1170.0,-2.235,10.509,0.162,-0.311,-0.841,0.959
1174.0,-2.127,10.807,0.227,-0.369,-0.703,1.069
1177.0,-2.127,10.807,0.227,-0.369,-0.703,1.069
1181.0,-1.951,11.07,0.495,-0.369,-0.703,1.069
1185.0,-1.951,11.07,0.495,-0.467,-0.554,1.179
1189.0,-1.951,11.07,0.495,-0.467,-0.554,1.179
1193.0,-1.862,11.37,0.857,-0.567,-0.399,1.243
1197.0,-1.862,11.37,0.857,-0.567,-0.399,1.243
1201.0,-1.767,11.813,1.195,-0.567,-0.399,1.274
1205.0,-1.767,11.813,1.195,-0.643,-0.247,1.274
1209.0,-1.767,11.813,1.195,-0.643,-0.247,1.274
1213.0,-1.591,12.125,1.675,-0.68,-0.086,1.317
1217.0,-1.591,12.125,1.675,-0.68,-0.086,1.317
1221.0,-1.778,12.358,2.161,-0.68,0.076,1.38
1225.0,-1.778,12.358,2.161,-0.654,0.076,1.38
1229.0,-1.778,12.358,2.161,-0.654,0.076,1.38
1233.0,-2.235,12.493,2.556,-0.58,0.217,1.509
1237.0,-2.235,12.493,2.556,-0.58,0.217,1.509
1241.0,-2.802,12.424,2.926,-0.58,0.217,1.709
1245.0,-2.802,12.424,2.926,-0.489,0.333,1.709
1249.0,-2.802,12.424,2.926,-0.489,0.333,1.709
1253.0,-3.401,12.316,3.151,-0.412,0.41,1.946
1257.0,-3.401,12.316,3.151,-0.412,0.41,1.946
1260.0,-3.846,12.222,3.322,-0.412,0.41,1.946
1264.0,-3.846,12.222,3.322,-0.388,0.449,2.218
1268.0,-3.846,12.222,3.322,-0.388,0.449,2.218
1272.0,-4.108,12.222,3.364,-0.442,0.453,2.517
1276.0,-4.108,12.222,3.364,-0.442,0.453,2.517
1280.0,-4.108,12.222,3.475,-0.442,0.453,2.517
1284.0,-4.134,12.304,3.475,-0.58,0.437,2.829
1288.0,-4.134,12.304,3.475,-0.58,0.437,2.829
1292.0,-3.878,12.52,3.684,-0.76,0.408,3.113
1296.0,-3.878,12.52,3.684,-0.76,0.408,3.113
1300.0,-3.878,12.52,3.684,-0.76,0.408,3.113
1303.0,-3.251,12.861,4.108,-0.939,0.365,3.371
1307.0,-3.251,12.861,4.108,-0.939,0.365,3.371
1311.0,-2.546,13.012,4.452,-1.08,0.311,3.633
1315.0,-2.546,13.012,4.452,-1.08,0.311,3.633
1319.0,-2.546,13.012,4.452,-1.08,0.311,3.633
1323.0,-1.892,12.85,4.856,-1.174,0.259,3.914
1327.0,-1.892,12.85,4.856,-1.174,0.259,3.914
1331.0,-1.294,12.377,5.164,-1.216,0.212,4.206
1335.0,-1.294,12.377,5.164,-1.216,0.212,4.206
1339.0,-1.294,12.377,5.164,-1.216,0.212,4.206
1343.0,-0.803,11.754,5.608,-1.213,0.185,4.472
1346.0,-0.803,11.754,5.608,-1.213,0.185,4.472
1350.0,-0.469,11.103,6.071,-1.162,0.16,4.687
1354.0,-0.469,11.103,6.071,-1.162,0.16,4.687
1358.0,-0.469,11.103,6.071,-1.162,0.16,4.687
1362.0,-0.13,10.656,6.577,-1.069,0.124,4.848
1366.0,-0.13,10.656,6.577,-1.069,0.124,4.848
1370.0,0.216,10.212,6.928,-0.955,0.073,4.966
1374.0,0.216,10.212,6.928,-0.955,0.073,4.966
1377.0,0.216,10.212,6.928,-0.955,0.073,4.966
1381.0,0.629,9.784,7.226,-0.844,0.018,5.008
1385.0,0.629,9.784,7.226,-0.844,0.018,5.008
1389.0,1.049,9.376,7.295,-0.844,0.018,5.008
1393.0,1.049,9.376,7.295,-0.759,-0.049,5.001
1396.0,1.049,9.376,7.295,-0.759,-0.049,5.001
1400.0,1.388,8.946,7.233,-0.73,-0.116,4.951
1404.0,1.388,8.946,7.233,-0.73,-0.116,4.951
1408.0,1.388,8.946,7.233,-0.73,-0.116,4.951
1412.0,1.445,8.754,7.268,-0.76,-0.176,4.879
1415.0,1.445,8.754,7.268,-0.76,-0.176,4.879
1419.0,1.362,8.544,7.332,-0.828,-0.24,4.853
1423.0,1.362,8.544,7.332,-0.828,-0.24,4.853
1427.0,1.362,8.544,7.332,-0.828,-0.24,4.853
1431.0,1.312,8.154,7.276,-0.907,-0.313,4.866
1435.0,1.312,8.154,7.276,-0.907,-0.313,4.866
1438.0,1.303,7.645,7.011,-0.907,-0.313,4.89
1442.0,1.303,7.645,7.011,-0.976,-0.385,4.89
1446.0,1.303,7.645,7.011,-0.976,-0.385,4.89
1450.0,1.533,7.131,6.569,-1.042,-0.453,4.942
1454.0,1.533,7.131,6.569,-1.042,-0.453,4.942
1457.0,1.533,7.131,6.569,-1.042,-0.453,4.942
1461.0,1.878,6.622,6.046,-1.102,-0.506,5.002
1465.0,1.878,6.622,6.046,-1.102,-0.506,5.002
1469.0,2.398,5.961,5.526,-1.163,-0.535,5.013
1473.0,2.398,5.961,5.526,-1.163,-0.535,5.013
1477.0,2.398,5.961,5.526,-1.163,-0.535,5.013
1480.0,3.144,5.003,5.048,-1.226,-0.531,5.013
1484.0,3.144,5.003,5.048,-1.226,-0.531,5.013
1488.0,3.862,4.167,4.746,-1.226,-0.496,5.013
1492.0,3.862,4.167,4.746,-1.292,-0.496,5.013
1496.0,3.862,4.167,4.746,-1.292,-0.496,5.013
1499.0,4.184,3.395,4.478,-1.37,-0.436,5.013
1503.0,4.184,3.395,4.478,-1.37,-0.436,5.013
1507.0,4.184,2.684,4.067,-1.37,-0.436,5.013
1511.0,4.173,2.684,4.067,-1.482,-0.362,5.013
1515.0,4.173,2.684,4.067,-1.482,-0.362,5.013
1519.0,3.833,2.026,3.594,-1.633,-0.258,5.013
1522.0,3.833,2.026,3.594,-1.633,-0.258,5.013
1526.0,3.833,2.026,3.594,-1.633,-0.258,5.013
1530.0,3.188,1.478,3.183,-1.808,-0.145,5.013
1534.0,3.188,1.478,3.183,-1.808,-0.145,5.013
1538.0,2.577,0.733,2.637,-1.993,-0.041,5.013
1541.0,2.577,0.733,2.637,-1.993,-0.041,5.013
1545.0,2.577,0.733,2.637,-1.993,-0.041,5.013
1549.0,2.088,-0.019,2.11,-2.181,0.06,5.013
1553.0,2.088,-0.019,2.11,-2.181,0.06,5.013
1557.0,1.797,-0.809,1.634,-2.181,0.06,5.013
1561.0,1.797,-0.809,1.634,-2.361,0.164,5.013
1564.0,1.797,-0.809,1.634,-2.361,0.164,5.013
1568.0,1.417,-1.759,1.406,-2.527,0.277,5.013
1572.0,1.417,-1.759,1.406,-2.527,0.277,5.013
1576.0,1.417,-1.759,1.406,-2.527,0.277,5.013
1580.0,0.753,-2.993,1.294,-2.681,0.373,5.013
1583.0,0.753,-2.993,1.294,-2.681,0.373,5.013
1587.0,0.035,-4.498,1.254,-2.815,0.459,5.013
1591.0,0.035,-4.498,1.254,-2.815,0.459,5.013
1595.0,0.035,-4.498,1.254,-2.815,0.459,5.013
1599.0,-0.818,-6.042,1.415,-2.889,0.559,5.013
1603.0,-0.818,-6.042,1.415,-2.889,0.559,5.013
1607.0,-1.972,-7.057,1.417,-2.868,0.637,5.012
1610.0,-1.972,-7.057,1.417,-2.868,0.637,5.012
1614.0,-1.972,-7.057,1.417,-2.868,0.637,5.012
1618.0,-3.365,-7.542,1.038,-2.778,0.665,4.963
1622.0,-3.365,-7.542,1.038,-2.778,0.665,4.963
1626.0,-4.539,-7.737,0.46,-2.778,0.636,4.829
1630.0,-4.539,-7.737,0.46,-2.7,0.636,4.829
1634.0,-4.539,-7.737,0.46,-2.7,0.636,4.829
1638.0,-4.953,-8.049,0.247,-2.7,0.55,4.701
1642.0,-4.953,-8.049,0.247,-2.7,0.55,4.701
1646.0,-4.594,-8.928,0.482,-2.7,0.55,4.572
1650.0,-4.594,-8.928,0.482,-2.756,0.417,4.572
1653.0,-4.594,-8.928,0.482,-2.756,0.417,4.572
1657.0,-3.939,-10.418,1.051,-2.779,0.226,4.413
1661.0,-3.939,-10.418,1.051,-2.779,0.226,4.413
1665.0,-3.373,-11.972,1.472,-2.779,0.226,4.413
1669.0,-3.373,-11.972,1.472,-2.658,-0.027,4.201
1673.0,-3.373,-11.972,1.472,-2.658,-0.027,4.201
1677.0,-2.99,-13.235,1.599,-2.335,-0.291,3.955
1682.0,-2.99,-13.235,1.599,-2.335,-0.291,3.955
1686.0,-2.852,-14.048,1.635,-1.853,-0.528,3.717
1690.0,-2.852,-14.048,1.635,-1.853,-0.528,3.717
1694.0,-2.852,-14.048,1.635,-1.853,-0.528,3.717
1698.0,-2.589,-14.254,1.262,-1.323,-0.736,3.48
1702.0,-2.589,-14.254,1.262,-1.323,-0.736,3.48
1706.0,-1.855,-14.032,1.107,-0.869,-0.876,3.221
1710.0,-1.855,-14.032,1.107,-0.869,-0.876,3.221
1714.0,-1.855,-14.032,1.248,-0.869,-0.876,3.221
1718.0,-0.474,-13.647,1.248,-0.551,-0.947,2.916
1722.0,-0.474,-13.647,1.248,-0.551,-0.947,2.916
1726.0,1.366,-13.284,1.701,-0.367,-0.978,2.573
1730.0,1.366,-13.284,1.701,-0.367,-0.978,2.573
1734.0,3.473,-13.18,2.162,-0.367,-0.978,2.573
1738.0,3.473,-13.18,2.162,-0.25,-0.977,2.203
1742.0,3.473,-13.18,2.162,-0.25,-0.977,2.203
1746.0,5.231,-13.028,2.309,-0.142,-0.924,1.841
1750.0,5.231,-13.028,2.309,-0.142,-0.924,1.841
1754.0,6.252,-12.804,2.297,-0.142,-0.811,1.519
1758.0,6.252,-12.804,2.297,-0.038,-0.811,1.519
1762.0,6.252,-12.804,2.297,-0.038,-0.811,1.519
1766.0,6.739,-12.657,2.383,0.05,-0.677,1.25
1770.0,6.739,-12.657,2.383,0.05,-0.677,1.25
1774.0,6.86,-12.692,2.619,0.05,-0.55,1.048
1778.0,6.86,-12.692,2.619,0.128,-0.55,1.048
1782.0,6.86,-12.692,2.619,0.128,-0.55,1.048
1786.0,6.611,-12.817,2.754,0.206,-0.447,0.908
1790.0,6.611,-12.817,2.754,0.206,-0.447,0.908
1794.0,6.074,-12.891,2.824,0.206,-0.447,0.804
1798.0,6.074,-12.891,2.824,0.291,-0.378,0.804
1802.0,6.074,-12.891,2.824,0.291,-0.378,0.804
1805.0,5.459,-12.818,2.75,0.368,-0.339,0.724
1809.0,5.459,-12.818,2.75,0.368,-0.339,0.724
1813.0,4.978,-12.555,2.816,0.368,-0.339,0.724
1817.0,4.978,-12.555,2.816,0.419,-0.313,0.661
1821.0,4.978,-12.555,2.816,0.419,-0.313,0.661
1825.0,4.777,-12.194,2.875,0.425,-0.299,0.611
1829.0,4.777,-12.194,2.875,0.425,-0.299,0.611
1833.0,4.777,-12.194,3.074,0.425,-0.299,0.611
1837.0,4.704,-11.777,3.074,0.391,-0.28,0.565
1841.0,4.704,-11.777,3.074,0.391,-0.28,0.565
1845.0,4.844,-11.402,3.22,0.328,-0.262,0.519
1848.0,4.844,-11.402,3.22,0.328,-0.262,0.519
1852.0,4.844,-11.402,3.22,0.328,-0.262,0.519
1856.0,5.018,-11.033,3.16,0.244,-0.245,0.47
1860.0,5.018,-11.033,3.16,0.244,-0.245,0.47
1864.0,5.012,-10.634,3.12,0.15,-0.205,0.405
1868.0,5.012,-10.634,3.12,0.15,-0.205,0.405
1872.0,5.012,-10.634,3.12,0.15,-0.205,0.405
1876.0,4.942,-10.284,3.196,0.055,-0.146,0.33
1880.0,4.942,-10.284,3.196,0.055,-0.146,0.33
1884.0,4.912,-10.02,3.315,-0.032,-0.092,0.26
1888.0,4.912,-10.02,3.315,-0.032,-0.092,0.26
1892.0,4.912,-10.02,3.315,-0.032,-0.092,0.26
1896.0,4.799,-9.84,3.31,-0.103,-0.054,0.193
1899.0,4.799,-9.84,3.31,-0.103,-0.054,0.193
1903.0,4.429,-9.702,3.326,-0.143,-0.018,0.126
1907.0,4.429,-9.702,3.326,-0.143,-0.018,0.126
1911.0,4.429,-9.702,3.326,-0.143,-0.018,0.126
1915.0,4.094,-9.58,3.323,-0.145,0.006,0.07
1919.0,4.094,-9.58,3.323,-0.145,0.006,0.07
1923.0,3.866,-9.416,3.354,-0.11,0.016,0.031
1927.0,3.866,-9.416,3.354,-0.11,0.016,0.031
1930.0,3.866,-9.416,3.354,-0.11,0.016,0.031
1934.0,3.701,-9.187,3.403,-0.038,0.025,-0.0
1938.0,3.701,-9.187,3.403,-0.038,0.025,-0.0
1942.0,3.53,-8.833,3.313,-0.038,0.028,-0.032
1946.0,3.53,-8.833,3.313,0.071,0.028,-0.032
1950.0,3.53,-8.833,3.313,0.071,0.028,-0.032
1954.0,3.295,-8.347,3.057,0.203,0.043,-0.062
1957.0,3.295,-8.347,3.057,0.203,0.043,-0.062
1961.0,3.295,-7.721,2.932,0.203,0.043,-0.062
1965.0,3.082,-7.721,2.932,0.344,0.09,-0.077
1969.0,3.082,-7.721,2.932,0.344,0.09,-0.077
1973.0,3.069,-6.967,3.147,0.488,0.152,-0.062
1976.0,3.069,-6.967,3.147,0.488,0.152,-0.062
1980.0,3.069,-6.967,3.147,0.488,0.152,-0.062
1984.0,3.259,-6.215,3.479,0.637,0.198,-0.008
1988.0,3.259,-6.215,3.479,0.637,0.198,-0.008
1992.0,3.607,-5.291,3.622,0.797,0.217,0.091
1995.0,3.607,-5.291,3.622,0.797,0.217,0.091
1999.0,3.607,-5.291,3.622,0.797,0.217,0.091
2003.0,4.138,-4.267,3.474,0.962,0.235,0.26
2007.0,4.138,-4.267,3.474,0.962,0.235,0.26
2010.0,4.138,-4.267,3.24,0.962,0.235,0.26
2014.0,4.757,-3.424,3.24,1.127,0.291,0.524
2018.0,4.757,-3.424,3.24,1.127,0.291,0.524
2022.0,5.202,-2.909,2.969,1.282,0.411,0.872
2025.0,5.202,-2.909,2.969,1.282,0.411,0.872
2029.0,5.202,-2.909,2.969,1.282,0.411,0.872
2033.0,5.134,-2.837,2.533,1.423,0.583,1.253
2037.0,5.134,-2.837,2.533,1.423,0.583,1.253
2040.0,4.719,-3.079,2.026,1.423,0.583,1.253
2044.0,4.719,-3.079,2.026,1.551,0.796,1.605
2048.0,4.719,-3.079,2.026,1.551,0.796,1.605
2051.0,4.242,-3.356,1.85,1.666,1.045,1.886
2055.0,4.242,-3.356,1.85,1.666,1.045,1.886
2059.0,4.242,-3.356,1.85,1.666,1.045,1.886
2063.0,3.541,-3.492,1.772,1.776,1.296,2.092
2066.0,3.541,-3.492,1.772,1.776,1.296,2.092
2070.0,2.687,-3.522,1.819,1.776,1.296,2.253
2074.0,2.687,-3.522,1.819,1.887,1.545,2.253
2078.0,2.687,-3.522,1.819,1.887,1.545,2.253
2081.0,1.74,-3.706,2.078,2.003,1.801,2.41
2085.0,1.74,-3.706,2.078,2.003,1.801,2.41
2089.0,1.74,-3.706,2.078,2.003,1.801,2.41
2093.0,0.772,-4.119,2.392,2.141,2.03,2.563
2096.0,0.772,-4.119,2.392,2.141,2.03,2.563
2100.0,-0.08,-4.56,2.402,2.141,2.22,2.693
2104.0,-0.08,-4.56,2.402,2.311,2.22,2.693
2108.0,-0.08,-4.56,2.402,2.311,2.22,2.693
2111.0,-0.958,-4.977,2.48,2.527,2.405,2.785
2115.0,-0.958,-4.977,2.48,2.527,2.405,2.785
2119.0,-0.958,-5.125,3.295,2.527,2.405,2.785
2123.0,-2.2,-5.125,3.295,2.804,2.562,2.831
2127.0,-2.2,-5.125,3.295,2.804,2.562,2.831
2131.0,-3.663,-4.953,3.971,3.138,2.594,2.845
2134.0,-3.663,-4.953,3.971,3.138,2.594,2.845
2138.0,-3.663,-4.953,3.971,3.138,2.594,2.845
2142.0,-5.07,-4.505,4.0,3.488,2.505,2.843
2146.0,-5.07,-4.505,4.0,3.488,2.505,2.843
2150.0,-5.731,-4.391,3.694,3.799,2.378,2.823
2153.0,-5.731,-4.391,3.694,3.799,2.378,2.823
2157.0,-5.731,-4.391,3.694,3.799,2.378,2.823
2161.0,-5.478,-4.178,2.914,4.032,2.285,2.776
2165.0,-5.478,-4.178,2.914,4.032,2.285,2.776
2169.0,-4.688,-4.03,1.898,4.032,2.285,2.776
2173.0,-4.688,-4.03,1.898,4.181,2.313,2.711
2176.0,-4.688,-4.03,1.898,4.181,2.313,2.711
2180.0,-3.762,-3.886,1.035,4.249,2.495,2.621
2184.0,-3.762,-3.886,1.035,4.249,2.495,2.621
2188.0,-3.762,-3.886,1.035,4.249,2.495,2.621
2192.0,-2.961,-3.705,0.693,4.248,2.807,2.491
2195.0,-2.961,-3.705,0.693,4.248,2.807,2.491
2199.0,-2.469,-3.682,0.864,4.221,3.19,2.297
2203.0,-2.469,-3.682,0.864,4.221,3.19,2.297
2207.0,-2.469,-3.682,0.864,4.221,3.19,2.297
2211.0,-2.93,-3.593,1.731,4.211,3.556,2.022
2215.0,-2.93,-3.593,1.731,4.211,3.556,2.022
2218.0,-4.038,-3.37,2.206,4.211,3.823,1.716
2222.0,-4.038,-3.37,2.206,4.225,3.823,1.716
2226.0,-4.038,-3.37,2.206,4.225,3.823,1.716
2230.0,-5.305,-3.224,2.341,4.243,4.045,1.433
2234.0,-5.305,-3.224,2.341,4.243,4.045,1.433
2237.0,-5.305,-3.224,2.47,4.243,4.045,1.433
2241.0,-6.428,-3.129,2.47,4.279,4.273,1.177
2245.0,-6.428,-3.129,2.47,4.279,4.273,1.177
2249.0,-7.212,-3.157,2.751,4.356,4.504,0.943
2253.0,-7.212,-3.157,2.751,4.356,4.504,0.943
2257.0,-7.212,-3.157,2.751,4.356,4.504,0.943
2260.0,-7.895,-3.252,3.244,4.488,4.72,0.717
2264.0,-7.895,-3.252,3.244,4.488,4.72,0.717
2268.0,-8.663,-3.274,4.302,4.668,4.897,0.486
2272.0,-8.663,-3.274,4.302,4.668,4.897,0.486
2276.0,-8.663,-3.274,4.302,4.668,4.897,0.486
2279.0,-9.485,-3.098,5.121,4.863,4.969,0.258
2283.0,-9.485,-3.098,5.121,4.863,4.969,0.258
2287.0,-10.227,-2.793,5.116,4.863,4.969,0.258
2291.0,-10.227,-2.793,5.116,4.98,4.96,0.048
2295.0,-10.227,-2.793,5.116,4.98,4.96,0.048
2299.0,-10.93,-2.374,4.653,4.995,4.964,-0.151
2303.0,-10.93,-2.374,4.653,4.995,4.964,-0.151
2307.0,-11.305,-1.965,3.892,4.995,4.964,-0.151
2311.0,-11.305,-1.965,3.892,4.97,4.996,-0.344
2315.0,-11.305,-1.965,3.892,4.97,4.996,-0.344
2319.0,-11.52,-1.596,3.342,4.831,5.015,-0.542
2323.0,-11.52,-1.596,3.342,4.831,5.015,-0.542
2327.0,-12.043,-1.332,3.928,4.831,5.015,-0.771
2331.0,-12.043,-1.332,3.928,4.625,5.015,-0.771
2335.0,-12.043,-1.332,3.928,4.625,5.015,-0.771
2339.0,-13.077,-0.977,5.073,4.424,5.015,-1.038
2343.0,-13.077,-0.977,5.073,4.424,5.015,-1.038
2347.0,-14.071,-0.545,5.026,4.424,5.015,-1.304
2351.0,-14.071,-0.545,5.026,4.208,5.015,-1.304
2355.0,-14.071,-0.545,5.026,4.208,5.015,-1.304
2359.0,-14.658,-0.052,4.385,3.931,5.013,-1.539
2363.0,-14.658,-0.052,4.385,3.931,5.013,-1.539
2367.0,-14.888,0.245,4.089,3.586,4.97,-1.751
2371.0,-14.888,0.245,4.089,3.586,4.97,-1.751
2375.0,-14.888,0.245,4.089,3.586,4.97,-1.751
2378.0,-14.84,0.214,3.911,3.21,4.905,-1.958
2382.0,-14.84,0.214,3.911,3.21,4.905,-1.958
2386.0,-14.763,0.065,3.91,3.21,4.871,-2.16
2390.0,-14.763,0.065,3.91,2.85,4.871,-2.16
2394.0,-14.763,0.065,3.91,2.85,4.871,-2.16
2398.0,-14.84,-0.144,4.327,2.543,4.852,-2.348
2402.0,-14.84,-0.144,4.327,2.543,4.852,-2.348
2406.0,-15.118,-0.31,4.914,2.543,4.812,-2.509
2410.0,-15.118,-0.31,4.914,2.304,4.812,-2.509
2414.0,-15.118,-0.31,4.914,2.304,4.812,-2.509
2418.0,-15.903,-0.559,6.431,2.141,4.699,-2.623
2422.0,-15.903,-0.559,6.431,2.141,4.699,-2.623
2426.0,-17.09,-0.939,7.535,2.074,4.412,-2.682
2430.0,-17.09,-0.939,7.535,2.074,4.412,-2.682
2434.0,-17.09,-0.939,7.535,2.074,4.412,-2.682
2438.0,-18.244,-0.748,7.688,2.085,3.978,-2.658
2442.0,-18.244,-0.748,7.688,2.085,3.978,-2.658
2446.0,-18.647,0.001,7.425,2.102,3.491,-2.517
2450.0,-18.647,0.001,7.425,2.102,3.491,-2.517
2454.0,-18.647,0.001,7.425,2.102,3.491,-2.517
2458.0,-18.029,0.821,6.99,2.034,3.025,-2.292
2462.0,-18.029,0.821,6.99,2.034,3.025,-2.292
2465.0,-16.863,1.489,6.769,1.839,2.637,-2.059
2469.0,-16.863,1.489,6.769,1.839,2.637,-2.059
2473.0,-16.863,1.489,6.769,1.839,2.637,-2.059
2477.0,-15.733,1.996,6.724,1.532,2.334,-1.882
2481.0,-15.733,1.996,6.724,1.532,2.334,-1.882
2485.0,-14.871,2.397,6.641,1.532,2.108,-1.792
2489.0,-14.871,2.397,6.641,1.166,2.108,-1.792
2493.0,-14.871,2.397,6.641,1.166,2.108,-1.792
2497.0,-14.235,2.665,6.511,0.795,1.94,-1.792
2501.0,-14.235,2.665,6.511,0.795,1.94,-1.792
2504.0,-13.864,2.804,6.392,0.795,1.94,-1.848
2508.0,-13.864,2.804,6.392,0.452,1.799,-1.848
2512.0,-13.864,2.804,6.392,0.452,1.799,-1.848
2516.0,-13.729,2.816,6.346,0.155,1.661,-1.915
2520.0,-13.729,2.816,6.346,0.155,1.661,-1.915
2524.0,-13.725,2.701,6.348,0.155,1.661,-1.915
2528.0,-13.725,2.701,6.348,-0.097,1.501,-1.957
2532.0,-13.725,2.701,6.348,-0.097,1.501,-1.957
2536.0,-13.626,2.492,6.119,-0.312,1.313,-1.953
2540.0,-13.626,2.492,6.119,-0.312,1.313,-1.953
2544.0,-13.371,2.293,5.789,-0.312,1.313,-1.953
2548.0,-13.371,2.293,5.789,-0.51,1.118,-1.906
2552.0,-13.371,2.293,5.789,-0.51,1.118,-1.906
2556.0,-12.992,2.069,5.37,-0.707,0.932,-1.824
2560.0,-12.992,2.069,5.37,-0.707,0.932,-1.824
2564.0,-12.641,1.823,4.899,-0.707,0.762,-1.715
2568.0,-12.641,1.823,4.899,-0.905,0.762,-1.715
2572.0,-12.641,1.823,4.899,-0.905,0.762,-1.715
2576.0,-12.249,1.585,4.475,-1.097,0.607,-1.577
2580.0,-12.249,1.585,4.475,-1.097,0.607,-1.577
2584.0,-11.794,1.345,4.186,-1.269,0.458,-1.418
2588.0,-11.794,1.345,4.186,-1.269,0.458,-1.418
2592.0,-11.794,1.345,4.186,-1.269,0.458,-1.418
2596.0,-11.598,1.151,3.927,-1.409,0.32,-1.247
2600.0,-11.598,1.151,3.927,-1.409,0.32,-1.247
2604.0,-11.624,1.08,3.711,-1.516,0.202,-1.064
2608.0,-11.624,1.08,3.711,-1.516,0.202,-1.064
2612.0,-11.624,1.08,3.711,-1.516,0.202,-1.064
2616.0,-12.135,1.037,3.736,-1.57,0.103,-0.843
2620.0,-12.135,1.037,3.736,-1.57,0.103,-0.843
2624.0,-12.877,1.079,3.852,-1.547,0.014,-0.584
2628.0,-12.877,1.079,3.852,-1.547,0.014,-0.584
2632.0,-12.877,1.079,3.852,-1.547,0.014,-0.584
2636.0,-13.417,1.55,3.98,-1.443,-0.089,-0.281
2640.0,-13.417,1.55,3.98,-1.443,-0.089,-0.281
2644.0,-13.464,1.643,4.06,-1.271,-0.209,0.06
2648.0,-13.464,1.643,4.06,-1.271,-0.209,0.06
2652.0,-13.464,1.643,4.06,-1.271,-0.209,0.06
2656.0,-12.598,0.913,3.491,-1.039,-0.307,0.347
2660.0,-12.598,0.913,3.491,-1.039,-0.307,0.347
2664.0,-11.189,-0.054,2.347,-0.834,-0.35,0.511
2668.0,-11.189,-0.054,2.347,-0.834,-0.35,0.511
2672.0,-10.101,-0.458,1.53,-0.834,-0.35,0.511
2676.0,-10.101,-0.458,1.53,-0.726,-0.323,0.576
2680.0,-10.101,-0.458,1.53,-0.726,-0.323,0.576
2684.0,-9.553,-0.552,1.12,-0.705,-0.239,0.612
2688.0,-9.553,-0.552,1.12,-0.705,-0.239,0.612
2692.0,-9.642,-0.593,0.859,-0.705,-0.13,0.649
2696.0,-9.642,-0.593,0.859,-0.774,-0.13,0.649
2700.0,-9.642,-0.593,0.859,-0.774,-0.13,0.649
2704.0,-10.106,-0.662,0.819,-0.912,-0.007,0.69
2708.0,-10.106,-0.662,0.819,-0.912,-0.007,0.69
2712.0,-10.529,-0.881,0.787,-1.086,0.088,0.73
2716.0,-10.529,-0.881,0.787,-1.086,0.088,0.73
2720.0,-10.529,-0.881,0.787,-1.086,0.088,0.73
2724.0,-10.732,-1.22,0.769,-1.262,0.138,0.757
2728.0,-10.732,-1.22,0.769,-1.262,0.138,0.757
2732.0,-10.621,-1.524,0.873,-1.41,0.141,0.765
2736.0,-10.621,-1.524,0.873,-1.41,0.141,0.765
2740.0,-10.621,-1.524,0.873,-1.41,0.141,0.765
2744.0,-10.26,-1.702,0.921,-1.524,0.097,0.769
2748.0,-10.26,-1.702,0.921,-1.524,0.097,0.769
2752.0,-9.979,-1.779,0.83,-1.598,0.03,0.79
2756.0,-9.979,-1.779,0.83,-1.598,0.03,0.79
2760.0,-9.979,-1.779,0.83,-1.598,0.03,0.79
2764.0,-9.808,-1.881,0.454,-1.656,-0.034,0.827
2768.0,-9.808,-1.881,0.454,-1.656,-0.034,0.827
2772.0,-10.023,-1.872,0.133,-1.711,-0.066,0.873
2776.0,-10.023,-1.872,0.133,-1.711,-0.066,0.873
2780.0,-10.023,-1.872,0.133,-1.711,-0.066,0.873
2784.0,-10.11,-1.933,-0.048,-1.751,-0.076,0.933
2788.0,-10.11,-1.933,-0.048,-1.751,-0.076,0.933
2793.0,-10.077,-2.051,-0.194,-1.775,-0.092,0.99
2797.0,-10.077,-2.051,-0.194,-1.775,-0.092,0.99
2801.0,-10.051,-2.169,-0.276,-1.777,-0.116,1.02
2805.0,-10.051,-2.169,-0.276,-1.777,-0.116,1.02
2809.0,-10.051,-2.169,-0.276,-1.777,-0.116,1.02
2813.0,-10.195,-2.286,-0.303,-1.741,-0.145,1.006
2818.0,-10.195,-2.286,-0.303,-1.741,-0.145,1.006
2822.0,-10.404,-2.378,-0.286,-1.665,-0.182,0.95
2826.0,-10.404,-2.378,-0.286,-1.665,-0.182,0.95
2830.0,-10.344,-2.4,-0.179,-1.665,-0.182,0.95
2834.0,-10.344,-2.4,-0.179,-1.553,-0.221,0.879
2838.0,-10.344,-2.4,-0.179,-1.553,-0.221,0.879
2843.0,-10.096,-2.427,-0.203,-1.414,-0.257,0.814
2847.0,-10.096,-2.427,-0.203,-1.414,-0.257,0.814
2851.0,-9.855,-2.463,-0.293,-1.258,-0.271,0.757
2855.0,-9.855,-2.463,-0.293,-1.258,-0.271,0.757
2859.0,-9.855,-2.463,-0.293,-1.258,-0.271,0.757
2863.0,-9.868,-2.508,-0.396,-1.09,-0.259,0.705
2867.0,-9.868,-2.508,-0.396,-1.09,-0.259,0.705
2871.0,-10.205,-2.459,-0.48,-0.92,-0.225,0.656
2875.0,-10.205,-2.459,-0.48,-0.92,-0.225,0.656
2880.0,-10.293,-2.371,-0.359,-0.92,-0.225,0.621
2884.0,-10.293,-2.371,-0.359,-0.762,-0.189,0.621
2888.0,-10.293,-2.371,-0.359,-0.762,-0.189,0.621
2892.0,-10.038,-2.401,-0.204,-0.621,-0.17,0.595
2896.0,-10.038,-2.401,-0.204,-0.621,-0.17,0.595
2900.0,-9.806,-2.316,-0.142,-0.491,-0.163,0.553
2905.0,-9.806,-2.316,-0.142,-0.491,-0.163,0.553
2909.0,-9.806,-2.316,-0.153,-0.491,-0.163,0.553
2913.0,-9.66,-2.304,-0.153,-0.366,-0.152,0.503
2917.0,-9.66,-2.304,-0.153,-0.366,-0.152,0.503
2921.0,-9.567,-2.315,-0.244,-0.247,-0.13,0.441
2925.0,-9.567,-2.315,-0.244,-0.247,-0.13,0.441
2929.0,-9.474,-2.294,-0.32,-0.247,-0.13,0.369
2933.0,-9.474,-2.294,-0.32,-0.137,-0.096,0.369
2937.0,-9.474,-2.294,-0.32,-0.137,-0.096,0.369
2941.0,-9.383,-2.235,-0.296,-0.038,-0.051,0.296
2945.0,-9.383,-2.235,-0.296,-0.038,-0.051,0.296
2949.0,-9.31,-2.197,-0.196,0.05,-0.004,0.228
2953.0,-9.31,-2.197,-0.196,0.05,-0.004,0.228
2957.0,-9.31,-2.197,-0.196,0.05,-0.004,0.228
2961.0,-9.348,-2.142,-0.05,0.128,0.033,0.164
2965.0,-9.348,-2.142,-0.05,0.128,0.033,0.164
2969.0,-9.49,-2.085,0.051,0.206,0.058,0.104
2973.0,-9.49,-2.085,0.051,0.206,0.058,0.104
2977.0,-9.49,-2.085,0.051,0.206,0.058,0.104
2981.0,-9.684,-2.063,0.077,0.288,0.068,0.054
2985.0,-9.684,-2.063,0.077,0.288,0.068,0.054
2988.0,-9.884,-2.085,0.023,0.288,0.068,0.013
2992.0,-9.884,-2.085,0.023,0.37,0.068,0.013
2996.0,-9.884,-2.085,0.023,0.37,0.068,0.013
3000.0,-10.074,-2.1,-0.1,0.448,0.067,-0.024
