deltaTime,Acc_X,Acc_Y,Acc_Z,Gyro_X,Gyro_Y,Gyro_Z
0.0,-9.511,-2.657,0.592,0.138,-0.153,0.119
3.0,-9.511,-2.657,0.592,0.138,-0.153,0.119
6.0,-9.285,-2.536,0.633,0.138,-0.153,0.119
9.0,-9.285,-2.536,0.633,0.117,-0.122,0.128
12.0,-9.285,-2.536,0.633,0.117,-0.122,0.128
15.0,-9.285,-2.536,0.633,0.117,-0.122,0.128
18.0,-9.114,-2.495,0.76,0.07,-0.087,0.134
21.0,-9.114,-2.495,0.76,0.07,-0.087,0.134
24.0,-9.114,-2.495,0.76,0.07,-0.087,0.134
27.0,-9.109,-2.438,0.896,0.009,-0.052,0.148
30.0,-9.109,-2.438,0.896,0.009,-0.052,0.148
33.0,-9.109,-2.438,0.896,0.009,-0.052,0.148
36.0,-8.955,-2.378,1.113,0.009,-0.027,0.173
39.0,-8.955,-2.378,1.113,-0.059,-0.027,0.173
43.0,-8.955,-2.378,1.113,-0.059,-0.027,0.173
47.0,-8.668,-2.265,1.367,-0.138,-0.02,0.188
51.0,-8.668,-2.265,1.367,-0.138,-0.02,0.188
55.0,-8.668,-2.265,1.461,-0.138,-0.02,0.188
58.0,-8.852,-2.22,1.461,-0.253,-0.016,0.204
62.0,-8.852,-2.22,1.461,-0.253,-0.016,0.204
66.0,-9.252,-2.404,1.584,-0.388,-0.005,0.231
70.0,-9.252,-2.404,1.584,-0.388,-0.005,0.231
74.0,-9.252,-2.404,1.584,-0.388,-0.005,0.231
78.0,-9.684,-2.558,1.634,-0.497,0.006,0.271
81.0,-9.684,-2.558,1.634,-0.497,0.006,0.271
85.0,-9.886,-2.885,1.981,-0.497,0.02,0.316
89.0,-9.886,-2.885,1.981,-0.562,0.02,0.316
93.0,-9.886,-2.885,1.981,-0.562,0.02,0.316
96.0,-9.638,-3.083,2.408,-0.562,0.011,0.333
100.0,-9.638,-3.083,2.408,-0.562,0.011,0.333
104.0,-9.638,-3.083,2.408,-0.562,0.011,0.333
108.0,-9.532,-3.018,2.572,-0.521,-0.024,0.319
112.0,-9.532,-3.018,2.572,-0.521,-0.024,0.319
115.0,-9.748,-3.033,2.817,-0.478,-0.06,0.301
119.0,-9.748,-3.033,2.817,-0.478,-0.06,0.301
123.0,-9.748,-3.033,2.817,-0.478,-0.06,0.301
127.0,-10.105,-3.057,2.876,-0.428,-0.094,0.283
131.0,-10.105,-3.057,2.876,-0.428,-0.094,0.283
135.0,-10.884,-3.039,3.091,-0.379,-0.117,0.283
139.0,-10.884,-3.039,3.091,-0.379,-0.117,0.283
143.0,-10.884,-3.039,3.091,-0.379,-0.117,0.283
147.0,-10.854,-3.36,3.491,-0.296,-0.15,0.283
151.0,-10.854,-3.36,3.491,-0.296,-0.15,0.283
155.0,-10.275,-3.689,3.268,-0.135,-0.22,0.26
159.0,-10.275,-3.689,3.268,-0.135,-0.22,0.26
163.0,-10.275,-3.689,2.901,-0.135,-0.22,0.26
167.0,-9.949,-3.45,2.901,0.049,-0.293,0.219
171.0,-9.949,-3.45,2.901,0.049,-0.293,0.219
175.0,-9.748,-3.214,2.533,0.203,-0.33,0.174
179.0,-9.748,-3.214,2.533,0.203,-0.33,0.174
182.0,-9.748,-3.214,2.533,0.203,-0.33,0.174
186.0,-9.342,-2.852,2.393,0.323,-0.356,0.13
190.0,-9.342,-2.852,2.393,0.323,-0.356,0.13
194.0,-8.886,-2.642,2.427,0.373,-0.367,0.09
198.0,-8.886,-2.642,2.427,0.373,-0.367,0.09
201.0,-8.886,-2.642,2.427,0.373,-0.367,0.09
205.0,-8.491,-2.672,2.282,0.386,-0.364,0.043
209.0,-8.491,-2.672,2.282,0.386,-0.364,0.043
213.0,-8.271,-2.713,2.102,0.386,-0.364,0.043
217.0,-8.271,-2.713,2.102,0.42,-0.346,0.002
221.0,-8.271,-2.713,2.102,0.42,-0.346,0.002
224.0,-8.265,-2.689,2.035,0.472,-0.307,-0.024
228.0,-8.265,-2.689,2.035,0.472,-0.307,-0.024
232.0,-8.265,-2.689,2.084,0.472,-0.307,-0.024
236.0,-8.562,-2.646,2.084,0.514,-0.267,-0.035
240.0,-8.562,-2.646,2.084,0.514,-0.267,-0.035
244.0,-8.811,-2.514,2.179,0.532,-0.25,-0.034
248.0,-8.811,-2.514,2.179,0.532,-0.25,-0.034
252.0,-8.811,-2.514,2.179,0.532,-0.25,-0.034
256.0,-8.814,-2.408,2.216,0.509,-0.251,-0.029
260.0,-8.814,-2.408,2.216,0.509,-0.251,-0.029
263.0,-8.927,-2.417,2.146,0.449,-0.263,-0.023
267.0,-8.927,-2.417,2.146,0.449,-0.263,-0.023
271.0,-8.927,-2.417,2.146,0.449,-0.263,-0.023
275.0,-9.181,-2.471,1.962,0.381,-0.284,-0.01
279.0,-9.181,-2.471,1.962,0.381,-0.284,-0.01
283.0,-9.483,-2.597,1.79,0.32,-0.302,0.018
287.0,-9.483,-2.597,1.79,0.32,-0.302,0.018
291.0,-9.483,-2.597,1.79,0.32,-0.302,0.018
294.0,-9.642,-2.754,1.764,0.275,-0.306,0.057
298.0,-9.642,-2.754,1.764,0.275,-0.306,0.057
302.0,-9.631,-2.876,1.764,0.275,-0.312,0.092
306.0,-9.631,-2.876,1.764,0.249,-0.312,0.092
310.0,-9.631,-2.876,1.764,0.249,-0.312,0.092
314.0,-9.677,-2.925,1.78,0.241,-0.318,0.117
317.0,-9.677,-2.925,1.78,0.241,-0.318,0.117
321.0,-9.677,-2.925,1.866,0.241,-0.318,0.117
325.0,-9.72,-2.943,1.866,0.244,-0.325,0.136
329.0,-9.72,-2.943,1.866,0.244,-0.325,0.136
333.0,-9.802,-3.063,1.914,0.263,-0.338,0.154
336.0,-9.802,-3.063,1.914,0.263,-0.338,0.154
340.0,-9.802,-3.063,1.914,0.263,-0.338,0.154
344.0,-9.695,-3.08,1.95,0.302,-0.351,0.16
348.0,-9.695,-3.08,1.95,0.302,-0.351,0.16
352.0,-9.509,-3.219,1.964,0.359,-0.354,0.151
356.0,-9.509,-3.219,1.964,0.359,-0.354,0.151
359.0,-9.509,-3.219,1.964,0.359,-0.354,0.151
363.0,-9.495,-3.354,1.982,0.442,-0.345,0.137
367.0,-9.495,-3.354,1.982,0.442,-0.345,0.137
371.0,-9.41,-3.404,2.076,0.442,-0.345,0.137
375.0,-9.41,-3.404,2.076,0.557,-0.327,0.121
378.0,-9.41,-3.404,2.076,0.557,-0.327,0.121
382.0,-9.252,-3.386,2.185,0.683,-0.312,0.1
386.0,-9.252,-3.386,2.185,0.683,-0.312,0.1
390.0,-9.252,-3.386,2.185,0.683,-0.312,0.1
394.0,-9.315,-3.299,2.188,0.801,-0.313,0.079
398.0,-9.315,-3.299,2.188,0.801,-0.313,0.079
401.0,-9.31,-3.141,2.215,0.897,-0.321,0.063
405.0,-9.31,-3.141,2.215,0.897,-0.321,0.063
409.0,-9.31,-3.141,2.215,0.897,-0.321,0.063
413.0,-9.355,-3.0,2.179,0.964,-0.327,0.055
417.0,-9.355,-3.0,2.179,0.964,-0.327,0.055
420.0,-9.474,-2.872,2.1,0.964,-0.327,0.052
424.0,-9.474,-2.872,2.1,0.996,-0.338,0.052
428.0,-9.474,-2.872,2.1,0.996,-0.338,0.052
432.0,-9.3,-2.645,1.992,0.988,-0.357,0.044
436.0,-9.3,-2.645,1.992,0.988,-0.357,0.044
440.0,-9.3,-2.645,1.963,0.988,-0.357,0.044
443.0,-9.139,-2.503,1.963,0.93,-0.363,0.035
447.0,-9.139,-2.503,1.963,0.93,-0.363,0.035
451.0,-9.092,-2.496,1.951,0.848,-0.355,0.027
455.0,-9.092,-2.496,1.951,0.848,-0.355,0.027
459.0,-9.092,-2.496,1.951,0.848,-0.355,0.027
462.0,-9.176,-2.551,1.987,0.767,-0.342,0.021
466.0,-9.176,-2.551,1.987,0.767,-0.342,0.021
470.0,-9.353,-2.663,2.089,0.701,-0.335,0.026
474.0,-9.353,-2.663,2.089,0.701,-0.335,0.026
478.0,-9.353,-2.663,2.089,0.701,-0.335,0.026
482.0,-9.364,-2.725,2.219,0.66,-0.335,0.038
485.0,-9.364,-2.725,2.219,0.66,-0.335,0.038
489.0,-9.191,-2.76,2.273,0.66,-0.335,0.038
493.0,-9.191,-2.76,2.273,0.635,-0.337,0.044
497.0,-9.191,-2.76,2.273,0.635,-0.337,0.044
501.0,-9.01,-2.755,2.288,0.613,-0.332,0.041
504.0,-9.01,-2.755,2.288,0.613,-0.332,0.041
508.0,-9.01,-2.755,2.288,0.613,-0.332,0.041
512.0,-8.867,-2.741,2.305,0.59,-0.316,0.034
516.0,-8.867,-2.741,2.305,0.59,-0.316,0.034
520.0,-8.85,-2.728,2.344,0.572,-0.295,0.024
524.0,-8.85,-2.728,2.344,0.572,-0.295,0.024
527.0,-8.85,-2.728,2.344,0.572,-0.295,0.024
531.0,-8.803,-2.727,2.41,0.557,-0.277,0.019
535.0,-8.803,-2.727,2.41,0.557,-0.277,0.019
539.0,-8.732,-2.822,2.434,0.557,-0.277,0.017
543.0,-8.732,-2.822,2.434,0.55,-0.26,0.017
546.0,-8.732,-2.822,2.434,0.55,-0.26,0.017
550.0,-8.653,-2.919,2.503,0.56,-0.25,0.014
554.0,-8.653,-2.919,2.503,0.56,-0.25,0.014
558.0,-8.653,-2.919,2.56,0.56,-0.25,0.014
562.0,-8.508,-2.91,2.56,0.582,-0.249,0.004
566.0,-8.508,-2.91,2.56,0.582,-0.249,0.004
569.0,-8.367,-2.834,2.467,0.597,-0.249,-0.009
573.0,-8.367,-2.834,2.467,0.597,-0.249,-0.009
577.0,-8.367,-2.834,2.467,0.597,-0.249,-0.009
581.0,-8.288,-2.767,2.362,0.594,-0.247,-0.019
585.0,-8.288,-2.767,2.362,0.594,-0.247,-0.019
589.0,-8.197,-2.774,2.215,0.582,-0.245,-0.025
593.0,-8.197,-2.774,2.215,0.582,-0.245,-0.025
597.0,-8.197,-2.774,2.215,0.582,-0.245,-0.025
601.0,-8.292,-2.807,2.177,0.568,-0.227,-0.031
605.0,-8.292,-2.807,2.177,0.568,-0.227,-0.031
608.0,-8.609,-2.866,2.148,0.553,-0.197,-0.032
612.0,-8.609,-2.866,2.148,0.553,-0.197,-0.032
616.0,-8.609,-2.866,2.148,0.553,-0.197,-0.032
620.0,-8.959,-2.912,2.281,0.544,-0.174,-0.019
624.0,-8.959,-2.912,2.281,0.544,-0.174,-0.019
628.0,-9.09,-2.93,2.455,0.534,-0.179,-0.01
632.0,-9.09,-2.93,2.455,0.534,-0.179,-0.01
636.0,-9.09,-2.93,2.455,0.534,-0.179,-0.01
640.0,-8.938,-3.084,2.458,0.527,-0.199,-0.016
644.0,-8.938,-3.084,2.458,0.527,-0.199,-0.016
648.0,-8.697,-3.287,2.529,0.527,-0.199,-0.038
651.0,-8.697,-3.287,2.529,0.554,-0.229,-0.038
655.0,-8.697,-3.287,2.529,0.554,-0.229,-0.038
659.0,-8.578,-3.25,2.572,0.621,-0.259,-0.082
663.0,-8.578,-3.25,2.572,0.621,-0.259,-0.082
667.0,-8.627,-3.041,2.5,0.621,-0.259,-0.082
671.0,-8.627,-3.041,2.5,0.69,-0.276,-0.14
675.0,-8.627,-3.041,2.5,0.69,-0.276,-0.14
679.0,-8.715,-2.795,2.46,0.725,-0.271,-0.186
683.0,-8.715,-2.795,2.46,0.725,-0.271,-0.186
687.0,-8.807,-3.065,2.685,0.725,-0.271,-0.186
691.0,-8.807,-3.065,2.685,0.725,-0.238,-0.212
694.0,-8.807,-3.065,2.685,0.725,-0.238,-0.212
698.0,-8.796,-2.799,2.728,0.761,-0.209,-0.231
702.0,-8.796,-2.799,2.728,0.761,-0.209,-0.231
706.0,-8.796,-2.799,2.763,0.761,-0.209,-0.231
0.0,-8.938,-2.824,2.763,0.758,-0.189,-0.262
4.0,-8.938,-2.824,2.763,0.758,-0.189,-0.262
8.0,-9.061,-3.023,2.848,0.744,-0.181,-0.268
11.0,-9.061,-3.023,2.848,0.744,-0.181,-0.268
15.0,-9.061,-3.023,2.848,0.744,-0.181,-0.268
19.0,-9.032,-3.199,2.767,0.765,-0.188,-0.286
23.0,-9.032,-3.199,2.767,0.765,-0.188,-0.286
27.0,-9.004,-3.242,2.544,0.765,-0.192,-0.316
30.0,-9.004,-3.242,2.544,0.81,-0.192,-0.316
34.0,-9.004,-3.242,2.544,0.81,-0.192,-0.316
38.0,-9.254,-3.135,2.413,0.835,-0.194,-0.351
42.0,-9.254,-3.135,2.413,0.835,-0.194,-0.351
46.0,-9.254,-3.49,2.17,0.835,-0.194,-0.351
49.0,-9.075,-3.49,2.17,0.863,-0.249,-0.404
53.0,-9.075,-3.49,2.17,0.863,-0.249,-0.404
57.0,-8.149,-2.516,2.782,0.935,-0.2,-0.436
61.0,-8.149,-2.516,2.782,0.935,-0.2,-0.436
65.0,-8.149,-2.516,2.782,0.935,-0.2,-0.436
69.0,-10.009,-4.07,1.193,0.889,-0.316,-0.442
72.0,-10.009,-4.07,1.193,0.889,-0.316,-0.442
76.0,-9.201,-2.649,1.928,1.004,-0.11,-0.471
80.0,-9.201,-2.649,1.928,1.004,-0.11,-0.471
84.0,-9.201,-2.649,1.928,1.004,-0.11,-0.471
88.0,-8.75,-2.508,1.972,0.886,-0.063,-0.501
92.0,-8.75,-2.508,1.972,0.886,-0.063,-0.501
95.0,-8.629,-2.351,1.934,0.886,-0.063,-0.524
99.0,-8.629,-2.351,1.934,0.757,-0.043,-0.524
103.0,-8.629,-2.351,1.934,0.757,-0.043,-0.524
107.0,-8.517,-1.881,1.932,0.615,-0.017,-0.544
111.0,-8.517,-1.881,1.932,0.615,-0.017,-0.544
115.0,-8.465,-1.421,1.949,0.615,-0.017,-0.544
119.0,-8.465,-1.421,1.949,0.399,0.012,-0.554
123.0,-8.465,-1.421,1.949,0.399,0.012,-0.554
126.0,-8.553,-1.338,2.115,0.113,0.048,-0.549
130.0,-8.553,-1.338,2.115,0.113,0.048,-0.549
134.0,-8.553,-1.338,2.115,0.113,0.048,-0.549
138.0,-8.637,-1.597,2.465,-0.164,0.082,-0.534
142.0,-8.637,-1.597,2.465,-0.164,0.082,-0.534
146.0,-8.684,-1.92,2.835,-0.369,0.1,-0.527
150.0,-8.684,-1.92,2.835,-0.369,0.1,-0.527
153.0,-8.684,-1.92,2.835,-0.369,0.1,-0.527
157.0,-8.952,-2.219,3.053,-0.497,0.104,-0.51
161.0,-8.952,-2.219,3.053,-0.497,0.104,-0.51
165.0,-9.24,-2.498,3.272,-0.562,0.102,-0.476
169.0,-9.24,-2.498,3.272,-0.562,0.102,-0.476
173.0,-9.24,-2.498,3.272,-0.562,0.102,-0.476
177.0,-9.289,-2.729,3.462,-0.566,0.088,-0.442
181.0,-9.289,-2.729,3.462,-0.566,0.088,-0.442
185.0,-9.434,-2.861,3.36,-0.524,0.057,-0.402
189.0,-9.434,-2.861,3.36,-0.524,0.057,-0.402
192.0,-9.434,-2.861,3.36,-0.524,0.057,-0.402
196.0,-9.542,-3.122,3.302,-0.458,0.035,-0.34
200.0,-9.542,-3.122,3.302,-0.458,0.035,-0.34
204.0,-9.141,-3.441,3.45,-0.458,0.022,-0.29
208.0,-9.141,-3.441,3.45,-0.346,0.022,-0.29
212.0,-9.141,-3.441,3.45,-0.346,0.022,-0.29
216.0,-8.736,-3.492,3.486,-0.182,0.005,-0.268
220.0,-8.736,-3.492,3.486,-0.182,0.005,-0.268
224.0,-8.42,-3.383,3.438,-0.182,0.005,-0.249
228.0,-8.42,-3.383,3.438,-0.004,-0.0,-0.249
232.0,-8.42,-3.383,3.438,-0.004,-0.0,-0.249
236.0,-8.167,-3.208,3.418,0.163,0.018,-0.226
239.0,-8.167,-3.208,3.418,0.163,0.018,-0.226
243.0,-8.063,-3.112,3.574,0.163,0.018,-0.226
247.0,-8.063,-3.112,3.574,0.301,0.067,-0.194
251.0,-8.063,-3.112,3.574,0.301,0.067,-0.194
255.0,-8.178,-2.965,3.719,0.415,0.13,-0.162
259.0,-8.178,-2.965,3.719,0.415,0.13,-0.162
262.0,-8.178,-2.965,3.719,0.415,0.13,-0.162
266.0,-8.353,-2.843,4.094,0.487,0.202,-0.12
270.0,-8.353,-2.843,4.094,0.487,0.202,-0.12
274.0,-8.187,-3.064,4.445,0.531,0.258,-0.086
278.0,-8.187,-3.064,4.445,0.531,0.258,-0.086
281.0,-8.187,-3.064,4.445,0.531,0.258,-0.086
285.0,-8.129,-3.182,4.523,0.603,0.283,-0.06
289.0,-8.129,-3.182,4.523,0.603,0.283,-0.06
293.0,-8.312,-3.115,4.521,0.603,0.295,-0.05
297.0,-8.312,-3.115,4.521,0.675,0.295,-0.05
301.0,-8.312,-3.115,4.521,0.675,0.295,-0.05
304.0,-8.401,-3.094,4.275,0.728,0.303,-0.046
308.0,-8.401,-3.094,4.275,0.728,0.303,-0.046
312.0,-8.401,-3.094,4.067,0.728,0.303,-0.046
316.0,-8.663,-3.12,4.067,0.765,0.321,-0.021
320.0,-8.663,-3.12,4.067,0.765,0.321,-0.021
323.0,-8.811,-3.057,3.967,0.787,0.353,0.019
327.0,-8.811,-3.057,3.967,0.787,0.353,0.019
331.0,-8.811,-3.057,3.967,0.787,0.353,0.019
335.0,-8.669,-3.19,3.9,0.798,0.393,0.053
338.0,-8.669,-3.19,3.9,0.798,0.393,0.053
342.0,-8.563,-3.425,3.811,0.798,0.393,0.059
346.0,-8.563,-3.425,3.811,0.833,0.42,0.059
350.0,-8.563,-3.425,3.811,0.833,0.42,0.059
353.0,-8.34,-3.572,3.735,0.904,0.457,0.084
357.0,-8.34,-3.572,3.735,0.904,0.457,0.084
361.0,-8.34,-3.572,3.735,0.904,0.457,0.084
365.0,-8.21,-3.641,3.59,0.996,0.52,0.109
368.0,-8.21,-3.641,3.59,0.996,0.52,0.109
372.0,-8.539,-3.375,3.709,0.996,0.603,0.11
376.0,-8.539,-3.375,3.709,1.078,0.603,0.11
379.0,-8.539,-3.375,3.709,1.078,0.603,0.11
383.0,-8.85,-2.932,3.671,1.078,0.667,0.072
387.0,-8.85,-2.932,3.671,1.078,0.667,0.072
391.0,-8.85,-2.932,3.671,1.078,0.667,0.072
394.0,-9.212,-2.791,3.525,0.973,0.685,0.02
398.0,-9.212,-2.791,3.525,0.973,0.685,0.02
402.0,-9.406,-2.814,3.34,0.837,0.66,0.005
406.0,-9.406,-2.814,3.34,0.837,0.66,0.005
409.0,-9.406,-2.814,3.34,0.837,0.66,0.005
413.0,-9.587,-2.898,3.225,0.713,0.604,0.022
417.0,-9.587,-2.898,3.225,0.713,0.604,0.022
421.0,-9.587,-2.898,3.175,0.713,0.604,0.022
424.0,-9.539,-3.141,3.175,0.618,0.522,0.054
428.0,-9.539,-3.141,3.175,0.618,0.522,0.054
432.0,-9.47,-3.334,3.164,0.564,0.427,0.091
435.0,-9.47,-3.334,3.164,0.564,0.427,0.091
439.0,-9.47,-3.334,3.164,0.564,0.427,0.091
443.0,-9.383,-3.455,3.176,0.538,0.336,0.123
447.0,-9.383,-3.455,3.176,0.538,0.336,0.123
450.0,-9.383,-3.484,3.225,0.538,0.336,0.123
454.0,-9.312,-3.484,3.225,0.533,0.263,0.136
458.0,-9.312,-3.484,3.225,0.533,0.263,0.136
462.0,-9.183,-3.48,3.239,0.53,0.209,0.123
465.0,-9.183,-3.48,3.239,0.53,0.209,0.123
469.0,-9.183,-3.48,3.239,0.53,0.209,0.123
473.0,-8.972,-3.508,3.34,0.53,0.172,0.092
477.0,-8.972,-3.508,3.34,0.53,0.172,0.092
480.0,-8.757,-3.608,3.624,0.53,0.172,0.092
484.0,-8.757,-3.608,3.624,0.541,0.14,0.046
488.0,-8.757,-3.608,3.624,0.541,0.14,0.046
491.0,-8.576,-3.785,3.934,0.569,0.104,-0.019
495.0,-8.576,-3.785,3.934,0.569,0.104,-0.019
499.0,-8.576,-3.785,3.934,0.569,0.104,-0.019
503.0,-8.516,-3.942,4.234,0.609,0.072,-0.108
507.0,-8.516,-3.942,4.234,0.609,0.072,-0.108
511.0,-8.602,-3.957,4.569,0.661,0.05,-0.207
514.0,-8.602,-3.957,4.569,0.661,0.05,-0.207
518.0,-8.602,-3.957,4.569,0.661,0.05,-0.207
522.0,-8.757,-3.885,4.754,0.718,0.038,-0.297
526.0,-8.757,-3.885,4.754,0.718,0.038,-0.297
530.0,-9.021,-3.931,4.986,0.718,0.038,-0.355
533.0,-9.021,-3.931,4.986,0.771,0.044,-0.355
537.0,-9.021,-3.931,4.986,0.771,0.044,-0.355
541.0,-9.246,-4.106,5.3,0.814,0.053,-0.379
545.0,-9.246,-4.106,5.3,0.814,0.053,-0.379
549.0,-9.246,-4.106,5.3,0.814,0.053,-0.379
553.0,-9.572,-4.426,5.701,0.844,0.051,-0.384
556.0,-9.572,-4.426,5.701,0.844,0.051,-0.384
560.0,-9.876,-4.813,6.072,0.861,0.023,-0.381
564.0,-9.876,-4.813,6.072,0.861,0.023,-0.381
568.0,-9.876,-4.813,6.072,0.861,0.023,-0.381
572.0,-9.921,-5.163,6.332,0.874,-0.037,-0.385
576.0,-9.921,-5.163,6.332,0.874,-0.037,-0.385
579.0,-9.775,-5.603,6.643,0.891,-0.125,-0.408
583.0,-9.775,-5.603,6.643,0.891,-0.125,-0.408
587.0,-9.775,-5.603,6.643,0.891,-0.125,-0.408
591.0,-9.633,-6.083,6.814,0.922,-0.234,-0.462
595.0,-9.633,-6.083,6.814,0.922,-0.234,-0.462
599.0,-9.397,-6.332,6.788,0.922,-0.348,-0.562
603.0,-9.397,-6.332,6.788,0.978,-0.348,-0.562
607.0,-9.397,-6.332,6.788,0.978,-0.348,-0.562
611.0,-9.13,-6.391,6.684,1.045,-0.453,-0.691
615.0,-9.13,-6.391,6.684,1.045,-0.453,-0.691
619.0,-9.04,-6.438,6.613,1.045,-0.453,-0.814
622.0,-9.04,-6.438,6.613,1.105,-0.529,-0.814
626.0,-9.04,-6.438,6.613,1.105,-0.529,-0.814
630.0,-9.124,-6.709,6.641,1.167,-0.566,-0.917
634.0,-9.124,-6.709,6.641,1.167,-0.566,-0.917
638.0,-9.059,-7.192,6.794,1.167,-0.566,-0.917
642.0,-9.059,-7.192,6.794,1.271,-0.575,-1.008
646.0,-9.059,-7.192,6.794,1.271,-0.575,-1.008
650.0,-9.092,-7.709,7.085,1.437,-0.6,-1.106
654.0,-9.092,-7.709,7.085,1.437,-0.6,-1.106
658.0,-9.092,-8.133,7.09,1.437,-0.6,-1.106
661.0,-9.285,-8.133,7.09,1.664,-0.662,-1.212
665.0,-9.285,-8.133,7.09,1.664,-0.662,-1.212
669.0,-9.432,-8.444,7.04,1.925,-0.742,-1.309
673.0,-9.432,-8.444,7.04,1.925,-0.742,-1.309
677.0,-9.432,-8.444,6.97,1.925,-0.742,-1.309
681.0,-9.351,-8.671,6.97,2.191,-0.837,-1.395
685.0,-9.351,-8.671,6.97,2.191,-0.837,-1.395
689.0,-9.197,-8.859,6.805,2.442,-0.943,-1.488
693.0,-9.197,-8.859,6.805,2.442,-0.943,-1.488
697.0,-9.197,-8.859,6.805,2.442,-0.943,-1.488
701.0,-9.153,-9.144,6.514,2.674,-1.034,-1.595
704.0,-9.153,-9.144,6.514,2.674,-1.034,-1.595
708.0,-9.182,-9.476,6.249,2.886,-1.091,-1.715
712.0,-9.182,-9.476,6.249,2.886,-1.091,-1.715
716.0,-9.182,-9.476,6.249,2.886,-1.091,-1.715
720.0,-9.184,-9.829,6.039,3.084,-1.135,-1.84
724.0,-9.184,-9.829,6.039,3.084,-1.135,-1.84
728.0,-9.214,-10.065,5.868,3.269,-1.186,-1.968
732.0,-9.214,-10.065,5.868,3.269,-1.186,-1.968
736.0,-9.214,-10.065,5.868,3.269,-1.186,-1.968
740.0,-9.257,-10.075,5.95,3.423,-1.255,-2.089
744.0,-9.257,-10.075,5.95,3.423,-1.255,-2.089
748.0,-9.164,-10.01,6.202,3.532,-1.337,-2.204
752.0,-9.164,-10.01,6.202,3.532,-1.337,-2.204
756.0,-9.164,-10.01,6.202,3.532,-1.337,-2.204
760.0,-9.034,-9.875,6.53,3.608,-1.421,-2.314
764.0,-9.034,-9.875,6.53,3.608,-1.421,-2.314
768.0,-8.844,-9.8,6.631,3.674,-1.504,-2.413
772.0,-8.844,-9.8,6.631,3.674,-1.504,-2.413
775.0,-8.844,-9.8,6.631,3.674,-1.504,-2.413
779.0,-8.566,-9.743,6.545,3.741,-1.578,-2.501
783.0,-8.566,-9.743,6.545,3.741,-1.578,-2.501
787.0,-8.32,-9.692,6.55,3.809,-1.651,-2.574
791.0,-8.32,-9.692,6.55,3.809,-1.651,-2.574
795.0,-8.32,-9.692,6.55,3.809,-1.651,-2.574
799.0,-8.235,-9.872,6.552,3.894,-1.728,-2.638
803.0,-8.235,-9.872,6.552,3.894,-1.728,-2.638
807.0,-8.243,-10.124,6.52,4.021,-1.8,-2.696
811.0,-8.243,-10.124,6.52,4.021,-1.8,-2.696
815.0,-8.243,-10.124,6.52,4.021,-1.8,-2.696
819.0,-8.176,-10.301,6.475,4.203,-1.864,-2.742
823.0,-8.176,-10.301,6.475,4.203,-1.864,-2.742
827.0,-8.096,-10.382,6.452,4.433,-1.924,-2.776
831.0,-8.096,-10.382,6.452,4.433,-1.924,-2.776
835.0,-8.096,-10.382,6.452,4.433,-1.924,-2.776
839.0,-7.97,-10.269,6.334,4.7,-1.981,-2.8
843.0,-7.97,-10.269,6.334,4.7,-1.981,-2.8
847.0,-7.828,-10.169,6.235,4.942,-2.027,-2.814
851.0,-7.828,-10.169,6.235,4.942,-2.027,-2.814
855.0,-7.828,-10.169,6.235,4.942,-2.027,-2.814
859.0,-7.769,-9.863,6.133,4.995,-2.067,-2.823
863.0,-7.769,-9.863,6.133,4.995,-2.067,-2.823
866.0,-7.728,-9.388,6.114,4.995,-2.111,-2.817
870.0,-7.728,-9.388,6.114,4.995,-2.111,-2.817
874.0,-7.728,-9.388,6.114,4.995,-2.111,-2.817
878.0,-7.706,-8.771,6.084,4.995,-2.168,-2.799
882.0,-7.706,-8.771,6.084,4.995,-2.168,-2.799
886.0,-7.571,-7.962,5.928,4.995,-2.234,-2.771
890.0,-7.571,-7.962,5.928,4.995,-2.234,-2.771
894.0,-7.571,-7.962,5.928,4.995,-2.234,-2.771
898.0,-7.345,-7.217,5.847,4.995,-2.301,-2.732
902.0,-7.345,-7.217,5.847,4.995,-2.301,-2.732
905.0,-7.139,-6.598,5.806,4.995,-2.369,-2.694
909.0,-7.139,-6.598,5.806,4.995,-2.369,-2.694
913.0,-7.139,-6.598,5.806,4.995,-2.369,-2.694
917.0,-6.864,-5.959,5.701,4.995,-2.436,-2.667
921.0,-6.864,-5.959,5.701,4.995,-2.436,-2.667
925.0,-6.657,-5.273,5.712,4.995,-2.495,-2.642
929.0,-6.657,-5.273,5.712,4.995,-2.495,-2.642
933.0,-6.657,-5.273,5.712,4.995,-2.495,-2.642
937.0,-6.654,-4.915,5.873,4.995,-2.561,-2.63
941.0,-6.654,-4.915,5.873,4.995,-2.561,-2.63
945.0,-6.772,-4.509,5.84,4.995,-2.642,-2.645
948.0,-6.772,-4.509,5.84,4.995,-2.642,-2.645
952.0,-6.772,-4.509,5.84,4.995,-2.642,-2.645
956.0,-6.705,-4.001,5.445,4.995,-2.727,-2.671
960.0,-6.705,-4.001,5.445,4.995,-2.727,-2.671
964.0,-6.363,-3.418,5.02,4.995,-2.727,-2.682
968.0,-6.363,-3.418,5.02,4.995,-2.803,-2.682
972.0,-6.363,-3.418,5.02,4.995,-2.803,-2.682
976.0,-6.112,-2.752,4.793,4.995,-2.869,-2.667
980.0,-6.112,-2.752,4.793,4.995,-2.869,-2.667
984.0,-5.927,-2.027,4.563,4.995,-2.869,-2.667
988.0,-5.927,-2.027,4.563,4.995,-2.925,-2.64
991.0,-5.927,-2.027,4.563,4.995,-2.925,-2.64
995.0,-5.788,-1.283,4.398,4.995,-2.971,-2.625
999.0,-5.788,-1.283,4.398,4.995,-2.971,-2.625
1003.0,-5.788,-0.389,4.031,4.995,-2.971,-2.625
1007.0,-5.504,-0.389,4.031,4.995,-3.013,-2.638
1011.0,-5.504,-0.389,4.031,4.995,-3.013,-2.638
1015.0,-5.039,0.57,3.627,4.993,-3.037,-2.67
1019.0,-5.039,0.57,3.627,4.993,-3.037,-2.67
1023.0,-4.585,1.478,3.293,4.993,-3.037,-2.67
1027.0,-4.585,1.478,3.293,4.825,-3.036,-2.712
1031.0,-4.585,1.478,3.293,4.825,-3.036,-2.712
1035.0,-4.184,2.301,3.049,4.342,-3.014,-2.755
1039.0,-4.184,2.301,3.049,4.342,-3.014,-2.755
1042.0,-4.184,2.301,2.87,4.342,-3.014,-2.755
1046.0,-3.85,2.985,2.87,3.783,-2.973,-2.804
1050.0,-3.85,2.985,2.87,3.783,-2.973,-2.804
1054.0,-3.469,3.478,2.757,3.208,-2.914,-2.849
1058.0,-3.469,3.478,2.757,3.208,-2.914,-2.849
1062.0,-3.469,3.478,2.757,3.208,-2.914,-2.849
1066.0,-3.12,3.788,2.729,2.648,-2.834,-2.877
1070.0,-3.12,3.788,2.729,2.648,-2.834,-2.877
1074.0,-2.832,4.078,2.69,2.137,-2.734,-2.875
1078.0,-2.832,4.078,2.69,2.137,-2.734,-2.875
1082.0,-2.832,4.078,2.69,2.137,-2.734,-2.875
1085.0,-2.608,4.221,2.706,1.708,-2.616,-2.833
1089.0,-2.608,4.221,2.706,1.708,-2.616,-2.833
1093.0,-2.465,4.309,2.705,1.379,-2.491,-2.766
1097.0,-2.465,4.309,2.705,1.379,-2.491,-2.766
1101.0,-2.465,4.309,2.705,1.379,-2.491,-2.766
1105.0,-2.389,4.659,2.807,1.151,-2.362,-2.676
1109.0,-2.389,4.659,2.807,1.151,-2.362,-2.676
1113.0,-2.52,5.056,2.945,0.999,-2.234,-2.543
1117.0,-2.52,5.056,2.945,0.999,-2.234,-2.543
1121.0,-2.52,5.056,2.945,0.999,-2.234,-2.543
1125.0,-2.732,5.44,3.127,0.898,-2.113,-2.378
1128.0,-2.732,5.44,3.127,0.898,-2.113,-2.378
1132.0,-2.839,5.946,3.263,0.841,-2.004,-2.213
1136.0,-2.839,5.946,3.263,0.841,-2.004,-2.213
1140.0,-2.839,5.946,3.263,0.841,-2.004,-2.213
1144.0,-2.749,6.514,3.404,0.813,-1.904,-2.062
1148.0,-2.749,6.514,3.404,0.813,-1.904,-2.062
1152.0,-2.499,7.299,3.565,0.813,-1.794,-1.914
1156.0,-2.499,7.299,3.565,0.791,-1.794,-1.914
1160.0,-2.499,7.299,3.565,0.791,-1.794,-1.914
1164.0,-2.22,8.189,3.774,0.758,-1.671,-1.729
1167.0,-2.22,8.189,3.774,0.758,-1.671,-1.729
1171.0,-2.194,9.033,4.183,0.758,-1.671,-1.507
1175.0,-2.194,9.033,4.183,0.711,-1.541,-1.507
1179.0,-2.194,9.033,4.183,0.711,-1.541,-1.507
1183.0,-2.36,9.851,4.497,0.661,-1.427,-1.268
1187.0,-2.36,9.851,4.497,0.661,-1.427,-1.268
1191.0,-2.234,10.377,4.92,0.661,-1.427,-1.268
1195.0,-2.234,10.377,4.92,0.59,-1.336,-1.001
1199.0,-2.234,10.377,4.92,0.59,-1.336,-1.001
1203.0,-1.97,10.564,5.291,0.502,-1.243,-0.722
1207.0,-1.97,10.564,5.291,0.502,-1.243,-0.722
1211.0,-1.631,10.445,5.6,0.502,-1.243,-0.458
1215.0,-1.631,10.445,5.6,0.405,-1.137,-0.458
1219.0,-1.631,10.445,5.6,0.405,-1.137,-0.458
1223.0,-1.413,10.204,5.972,0.298,-1.017,-0.249
1227.0,-1.413,10.204,5.972,0.298,-1.017,-0.249
1231.0,-1.333,10.178,6.288,0.298,-0.907,-0.112
1235.0,-1.333,10.178,6.288,0.196,-0.907,-0.112
1239.0,-1.333,10.178,6.288,0.196,-0.907,-0.112
1243.0,-1.226,10.274,6.564,0.107,-0.824,0.01
1247.0,-1.226,10.274,6.564,0.107,-0.824,0.01
1251.0,-1.116,10.273,6.901,0.042,-0.75,0.151
1255.0,-1.116,10.273,6.901,0.042,-0.75,0.151
1258.0,-1.116,10.273,6.901,0.042,-0.75,0.151
1262.0,-1.069,10.203,7.228,0.01,-0.675,0.309
1266.0,-1.069,10.203,7.228,0.01,-0.675,0.309
1270.0,-0.937,10.012,7.445,0.01,-0.603,0.479
1274.0,-0.937,10.012,7.445,0.0,-0.603,0.479
1278.0,-0.937,10.012,7.445,0.0,-0.603,0.479
1282.0,-0.921,9.648,7.625,0.002,-0.531,0.642
1286.0,-0.921,9.648,7.625,0.002,-0.531,0.642
1290.0,-0.985,9.389,7.659,0.002,-0.531,0.642
1293.0,-0.985,9.389,7.659,0.014,-0.47,0.79
1297.0,-0.985,9.389,7.659,0.014,-0.47,0.79
1301.0,-0.925,9.032,7.679,0.016,-0.411,0.962
1305.0,-0.925,9.032,7.679,0.016,-0.411,0.962
1309.0,-0.925,9.032,7.679,0.016,-0.411,0.962
1312.0,-0.989,8.682,7.677,-0.007,-0.344,1.145
1316.0,-0.989,8.682,7.677,-0.007,-0.344,1.145
1320.0,-1.432,8.464,7.622,-0.061,-0.287,1.323
1324.0,-1.432,8.464,7.622,-0.061,-0.287,1.323
1328.0,-1.432,8.464,7.622,-0.061,-0.287,1.323
1332.0,-1.909,8.323,7.504,-0.163,-0.25,1.503
1336.0,-1.909,8.323,7.504,-0.163,-0.25,1.503
1340.0,-1.98,8.208,7.766,-0.296,-0.223,1.67
1344.0,-1.98,8.208,7.766,-0.296,-0.223,1.67
1348.0,-1.98,8.208,7.766,-0.296,-0.223,1.67
1352.0,-2.026,8.276,8.131,-0.415,-0.201,1.797
1355.0,-2.026,8.276,8.131,-0.415,-0.201,1.797
1359.0,-2.094,8.543,8.585,-0.488,-0.186,1.875
1363.0,-2.094,8.543,8.585,-0.488,-0.186,1.875
1367.0,-2.094,8.543,8.585,-0.488,-0.186,1.875
1371.0,-2.265,8.911,9.24,-0.495,-0.185,1.91
1375.0,-2.265,8.911,9.24,-0.495,-0.185,1.91
1379.0,-2.435,9.409,9.722,-0.495,-0.212,1.938
1383.0,-2.435,9.409,9.722,-0.441,-0.212,1.938
1387.0,-2.435,9.409,9.722,-0.441,-0.212,1.938
1391.0,-2.42,9.932,10.027,-0.338,-0.254,1.992
1395.0,-2.42,9.932,10.027,-0.338,-0.254,1.992
1399.0,-2.286,10.442,10.19,-0.338,-0.301,2.074
1403.0,-2.286,10.442,10.19,-0.185,-0.301,2.074
1407.0,-2.286,10.442,10.19,-0.185,-0.301,2.074
1411.0,-2.044,11.054,10.236,-0.005,-0.342,2.185
1415.0,-2.044,11.054,10.236,-0.005,-0.342,2.185
1419.0,-1.808,11.683,10.114,0.173,-0.381,2.351
1423.0,-1.808,11.683,10.114,0.173,-0.381,2.351
1427.0,-1.808,11.683,10.114,0.173,-0.381,2.351
1431.0,-1.374,12.12,10.107,0.318,-0.41,2.58
1435.0,-1.374,12.12,10.107,0.318,-0.41,2.58
1439.0,-1.081,12.479,10.158,0.44,-0.429,2.831
1443.0,-1.081,12.479,10.158,0.44,-0.429,2.831
1447.0,-1.081,12.479,10.158,0.44,-0.429,2.831
1451.0,-0.989,12.846,10.225,0.53,-0.455,3.106
1455.0,-0.989,12.846,10.225,0.53,-0.455,3.106
1459.0,-0.826,13.081,10.238,0.568,-0.489,3.424
1463.0,-0.826,13.081,10.238,0.568,-0.489,3.424
1467.0,-0.826,13.081,10.358,0.568,-0.489,3.424
1471.0,-0.744,13.007,10.358,0.555,-0.526,3.779
1475.0,-0.744,13.007,10.358,0.555,-0.526,3.779
1479.0,-0.991,12.691,10.251,0.504,-0.579,4.134
1483.0,-0.991,12.691,10.251,0.504,-0.579,4.134
1487.0,-0.991,12.209,10.052,0.504,-0.579,4.134
1491.0,-1.363,12.209,10.052,0.415,-0.641,4.47
1495.0,-1.363,12.209,10.052,0.415,-0.641,4.47
1499.0,-1.871,11.522,9.711,0.316,-0.695,4.768
1503.0,-1.871,11.522,9.711,0.316,-0.695,4.768
1507.0,-1.871,10.831,9.35,0.316,-0.695,4.768
1511.0,-2.468,10.831,9.35,0.236,-0.729,4.977
1514.0,-2.468,10.831,9.35,0.236,-0.729,4.977
1518.0,-2.982,10.277,9.092,0.189,-0.727,5.013
1522.0,-2.982,10.277,9.092,0.189,-0.727,5.013
1526.0,-2.982,10.277,8.911,0.189,-0.727,5.013
1530.0,-3.355,9.596,8.911,0.194,-0.689,5.013
1534.0,-3.355,9.596,8.911,0.194,-0.689,5.013
1538.0,-3.334,8.882,8.737,0.264,-0.635,5.013
1542.0,-3.334,8.882,8.737,0.264,-0.635,5.013
1545.0,-3.334,8.882,8.737,0.264,-0.635,5.013
1549.0,-2.797,8.14,8.617,0.387,-0.601,5.013
1553.0,-2.797,8.14,8.617,0.387,-0.601,5.013
1557.0,-2.203,7.446,8.646,0.539,-0.585,5.013
1561.0,-2.203,7.446,8.646,0.539,-0.585,5.013
1564.0,-2.203,7.446,8.646,0.539,-0.585,5.013
1568.0,-1.872,6.692,8.646,0.691,-0.577,5.013
1572.0,-1.872,6.692,8.646,0.691,-0.577,5.013
1576.0,-1.796,6.047,8.954,0.691,-0.577,5.013
1580.0,-1.796,6.047,8.954,0.822,-0.573,5.013
1584.0,-1.796,6.047,8.954,0.822,-0.573,5.013
1587.0,-1.848,5.556,9.247,0.921,-0.578,5.013
1591.0,-1.848,5.556,9.247,0.921,-0.578,5.013
1595.0,-1.848,5.556,9.247,0.921,-0.578,5.013
1599.0,-1.886,5.056,9.294,0.973,-0.58,5.013
1603.0,-1.886,5.056,9.294,0.973,-0.58,5.013
1606.0,-1.874,4.878,9.131,0.958,-0.572,5.013
1610.0,-1.874,4.878,9.131,0.958,-0.572,5.013
1614.0,-1.874,4.878,9.131,0.958,-0.572,5.013
1618.0,-1.848,4.804,8.631,0.872,-0.555,5.013
1622.0,-1.848,4.804,8.631,0.872,-0.555,5.013
1626.0,-1.778,4.631,8.006,0.872,-0.521,5.013
1629.0,-1.778,4.631,8.006,0.696,-0.521,5.013
1633.0,-1.778,4.631,8.006,0.696,-0.521,5.013
1637.0,-1.767,4.284,7.421,0.423,-0.467,5.013
1641.0,-1.767,4.284,7.421,0.423,-0.467,5.013
1645.0,-1.767,4.284,7.112,0.423,-0.467,5.013
1648.0,-1.802,3.543,7.112,0.059,-0.421,5.013
1652.0,-1.802,3.543,7.112,0.059,-0.421,5.013
1656.0,-1.95,2.487,7.1,-0.361,-0.403,5.013
1660.0,-1.95,2.487,7.1,-0.361,-0.403,5.013
1664.0,-1.95,2.487,7.1,-0.361,-0.403,5.013
1668.0,-2.285,0.799,7.451,-0.794,-0.431,5.013
1672.0,-2.285,0.799,7.451,-0.794,-0.431,5.013
1676.0,-2.624,-1.208,7.624,-1.2,-0.524,5.013
1680.0,-2.624,-1.208,7.624,-1.2,-0.524,5.013
1684.0,-2.624,-1.208,7.624,-1.2,-0.524,5.013
1688.0,-2.862,-2.979,7.247,-1.537,-0.637,5.013
1692.0,-2.862,-2.979,7.247,-1.537,-0.637,5.013
1696.0,-3.005,-4.659,6.731,-1.794,-0.716,5.013
1700.0,-3.005,-4.659,6.731,-1.794,-0.716,5.013
1704.0,-3.005,-4.659,6.731,-1.794,-0.716,5.013
1708.0,-2.931,-5.97,5.822,-1.986,-0.732,5.013
1712.0,-2.931,-5.97,5.822,-1.986,-0.732,5.013
1716.0,-2.824,-6.762,4.75,-2.156,-0.661,5.013
1720.0,-2.824,-6.762,4.75,-2.156,-0.661,5.013
1724.0,-2.824,-6.762,4.102,-2.156,-0.661,5.013
1728.0,-2.709,-7.406,4.102,-2.356,-0.531,5.013
1732.0,-2.709,-7.406,4.102,-2.356,-0.531,5.013
1736.0,-2.53,-8.222,3.802,-2.594,-0.398,4.99
1740.0,-2.53,-8.222,3.802,-2.594,-0.398,4.99
1744.0,-2.53,-9.14,3.272,-2.594,-0.398,4.99
1748.0,-2.334,-9.14,3.272,-2.82,-0.305,4.809
1751.0,-2.334,-9.14,3.272,-2.82,-0.305,4.809
1755.0,-1.9,-10.21,2.285,-3.024,-0.25,4.55
1760.0,-1.9,-10.21,2.285,-3.024,-0.25,4.55
1764.0,-1.175,-11.313,1.349,-3.024,-0.25,4.264
1768.0,-1.175,-11.313,1.349,-3.197,-0.226,4.264
1772.0,-1.175,-11.313,1.349,-3.197,-0.226,4.264
1776.0,-0.386,-12.185,0.642,-3.316,-0.253,3.948
1780.0,-0.386,-12.185,0.642,-3.316,-0.253,3.948
1784.0,0.016,-13.201,0.441,-3.359,-0.298,3.64
1788.0,0.016,-13.201,0.441,-3.359,-0.298,3.64
1792.0,0.016,-13.201,0.441,-3.359,-0.298,3.64
1796.0,-0.468,-14.092,0.605,-3.352,-0.35,3.356
1800.0,-0.468,-14.092,0.605,-3.352,-0.35,3.356
1804.0,-1.302,-14.563,0.622,-3.348,-0.442,3.077
1808.0,-1.302,-14.563,0.622,-3.348,-0.442,3.077
1812.0,-1.302,-14.563,0.463,-3.348,-0.442,3.077
1816.0,-1.382,-14.756,0.463,-3.384,-0.594,2.776
1821.0,-1.382,-14.756,0.463,-3.384,-0.594,2.776
1825.0,-0.385,-14.99,0.41,-3.432,-0.789,2.428
1829.0,-0.385,-14.99,0.41,-3.432,-0.789,2.428
1833.0,1.117,-15.4,0.435,-3.432,-0.789,2.036
1837.0,1.117,-15.4,0.435,-3.368,-0.976,2.036
1841.0,1.117,-15.4,0.435,-3.368,-0.976,2.036
1845.0,2.212,-15.586,0.387,-3.113,-1.096,1.612
1849.0,2.212,-15.586,0.387,-3.113,-1.096,1.612
1853.0,2.705,-15.077,0.246,-3.113,-1.147,1.198
1857.0,2.705,-15.077,0.246,-2.691,-1.147,1.198
1861.0,2.705,-15.077,0.246,-2.691,-1.147,1.198
1865.0,3.025,-14.213,0.08,-2.174,-1.147,0.864
1869.0,3.025,-14.213,0.08,-2.174,-1.147,0.864
1873.0,3.463,-13.28,0.068,-1.624,-1.101,0.626
1877.0,3.463,-13.28,0.068,-1.624,-1.101,0.626
1881.0,3.463,-13.28,0.068,-1.624,-1.101,0.626
1885.0,3.987,-12.33,0.213,-1.083,-1.015,0.466
1889.0,3.987,-12.33,0.213,-1.083,-1.015,0.466
1893.0,4.524,-11.415,0.396,-0.589,-0.903,0.355
1897.0,4.524,-11.415,0.396,-0.589,-0.903,0.355
1901.0,4.524,-11.415,0.396,-0.589,-0.903,0.355
1905.0,5.045,-10.584,0.681,-0.156,-0.789,0.281
1909.0,5.045,-10.584,0.681,-0.156,-0.789,0.281
1913.0,5.735,-10.051,1.041,0.223,-0.689,0.245
1917.0,5.735,-10.051,1.041,0.223,-0.689,0.245
1920.0,5.735,-10.051,1.041,0.223,-0.689,0.245
1924.0,6.252,-9.702,1.281,0.557,-0.595,0.244
1928.0,6.252,-9.702,1.281,0.557,-0.595,0.244
1932.0,6.331,-9.352,1.341,0.84,-0.516,0.269
1936.0,6.331,-9.352,1.341,0.84,-0.516,0.269
1940.0,6.331,-9.352,1.341,0.84,-0.516,0.269
1943.0,6.008,-8.81,1.171,1.042,-0.462,0.295
1947.0,6.008,-8.81,1.171,1.042,-0.462,0.295
1951.0,5.706,-8.25,1.125,1.042,-0.462,0.295
1955.0,5.706,-8.25,1.125,1.144,-0.406,0.322
1959.0,5.706,-8.25,1.125,1.144,-0.406,0.322
1963.0,5.668,-7.789,1.372,1.153,-0.35,0.353
1966.0,5.668,-7.789,1.372,1.153,-0.35,0.353
1970.0,5.668,-7.789,1.372,1.153,-0.35,0.353
1974.0,5.728,-7.357,1.778,1.097,-0.311,0.376
1978.0,5.728,-7.357,1.778,1.097,-0.311,0.376
1982.0,5.895,-6.955,2.264,1.004,-0.293,0.388
1985.0,5.895,-6.955,2.264,1.004,-0.293,0.388
1989.0,5.895,-6.955,2.264,1.004,-0.293,0.388
1993.0,6.008,-6.659,2.78,0.891,-0.292,0.393
1997.0,6.008,-6.659,2.78,0.891,-0.292,0.393
2001.0,5.913,-6.395,2.978,0.891,-0.313,0.383
2005.0,5.913,-6.395,2.978,0.77,-0.313,0.383
2008.0,5.913,-6.395,2.978,0.77,-0.313,0.383
2012.0,5.763,-6.2,3.014,0.645,-0.324,0.357
2016.0,5.763,-6.2,3.014,0.645,-0.324,0.357
2020.0,5.763,-6.063,2.911,0.645,-0.324,0.357
2024.0,5.622,-6.063,2.911,0.512,-0.314,0.327
2027.0,5.622,-6.063,2.911,0.512,-0.314,0.327
2031.0,5.629,-6.035,2.782,0.366,-0.273,0.302
2035.0,5.629,-6.035,2.782,0.366,-0.273,0.302
2039.0,5.629,-6.035,2.782,0.366,-0.273,0.302
2043.0,5.758,-6.072,2.836,0.217,-0.195,0.284
2047.0,5.758,-6.072,2.836,0.217,-0.195,0.284
2050.0,5.822,-6.138,3.03,0.085,-0.12,0.272
2054.0,5.822,-6.138,3.03,0.085,-0.12,0.272
2058.0,5.822,-6.138,3.03,0.085,-0.12,0.272
2062.0,5.768,-6.212,3.358,-0.017,-0.074,0.262
2066.0,5.768,-6.212,3.358,-0.017,-0.074,0.262
2070.0,5.598,-6.27,3.604,-0.017,-0.074,0.252
2074.0,5.598,-6.27,3.604,-0.08,-0.062,0.252
2077.0,5.598,-6.27,3.604,-0.08,-0.062,0.252
2081.0,5.37,-6.325,3.642,-0.114,-0.068,0.257
2085.0,5.37,-6.325,3.642,-0.114,-0.068,0.257
2089.0,5.219,-6.4,3.636,-0.114,-0.068,0.257
2093.0,5.219,-6.4,3.636,-0.124,-0.065,0.279
2097.0,5.219,-6.4,3.636,-0.124,-0.065,0.279
2101.0,5.32,-6.504,3.833,-0.112,-0.054,0.313
2105.0,5.32,-6.504,3.833,-0.112,-0.054,0.313
2109.0,5.32,-6.675,4.198,-0.112,-0.054,0.313
2113.0,5.637,-6.675,4.198,-0.077,-0.048,0.354
2117.0,5.637,-6.675,4.198,-0.077,-0.048,0.354
2120.0,5.952,-6.788,4.399,-0.018,-0.049,0.391
2124.0,5.952,-6.788,4.399,-0.018,-0.049,0.391
2128.0,5.952,-6.788,4.566,-0.018,-0.049,0.391
2132.0,6.173,-6.926,4.566,0.056,-0.048,0.424
2136.0,6.173,-6.926,4.566,0.056,-0.048,0.424
2140.0,6.307,-7.002,4.631,0.131,-0.049,0.45
2144.0,6.307,-7.002,4.631,0.131,-0.049,0.45
2147.0,6.307,-7.002,4.631,0.131,-0.049,0.45
2151.0,6.248,-6.956,4.536,0.198,-0.05,0.467
2155.0,6.248,-6.956,4.536,0.198,-0.05,0.467
2159.0,6.141,-6.822,4.362,0.247,-0.043,0.475
2163.0,6.141,-6.822,4.362,0.247,-0.043,0.475
2167.0,6.141,-6.822,4.362,0.247,-0.043,0.475
2170.0,6.234,-6.788,4.393,0.274,-0.021,0.48
2174.0,6.234,-6.788,4.393,0.274,-0.021,0.48
2178.0,6.295,-6.759,4.473,0.274,-0.021,0.48
2182.0,6.295,-6.759,4.473,0.298,0.003,0.484
2186.0,6.295,-6.759,4.473,0.298,0.003,0.484
2189.0,6.178,-6.686,4.539,0.327,0.02,0.483
2193.0,6.178,-6.686,4.539,0.327,0.02,0.483
2197.0,6.178,-6.686,4.539,0.327,0.02,0.483
2200.0,6.227,-6.692,4.689,0.353,0.035,0.484
2204.0,6.227,-6.692,4.689,0.353,0.035,0.484
2208.0,6.286,-6.718,4.717,0.353,0.04,0.485
2212.0,6.286,-6.718,4.717,0.377,0.04,0.485
2215.0,6.286,-6.718,4.717,0.377,0.04,0.485
2219.0,6.22,-6.663,4.716,0.394,0.042,0.482
2223.0,6.22,-6.663,4.716,0.394,0.042,0.482
2227.0,6.22,-6.663,4.716,0.394,0.042,0.482
2230.0,6.1,-6.585,4.743,0.398,0.053,0.477
2234.0,6.1,-6.585,4.743,0.398,0.053,0.477
2238.0,5.857,-6.489,4.767,0.389,0.058,0.481
2242.0,5.857,-6.489,4.767,0.389,0.058,0.481
2245.0,5.857,-6.489,4.767,0.389,0.058,0.481
2249.0,5.66,-6.424,4.816,0.369,0.058,0.494
2253.0,5.66,-6.424,4.816,0.369,0.058,0.494
2256.0,5.66,-6.424,4.816,0.369,0.058,0.494
2260.0,5.738,-6.42,4.953,0.341,0.051,0.511
2264.0,5.738,-6.42,4.953,0.341,0.051,0.511
2268.0,5.833,-6.395,4.979,0.315,0.03,0.528
2271.0,5.833,-6.395,4.979,0.315,0.03,0.528
2275.0,5.833,-6.395,4.979,0.315,0.03,0.528
2279.0,5.812,-6.322,4.904,0.291,0.008,0.536
2283.0,5.812,-6.322,4.904,0.291,0.008,0.536
2286.0,5.812,-6.322,4.758,0.291,0.008,0.536
2290.0,5.619,-6.184,4.758,0.268,-0.001,0.542
2294.0,5.619,-6.184,4.758,0.268,-0.001,0.542
2298.0,5.318,-5.996,4.536,0.241,0.003,0.559
2301.0,5.318,-5.996,4.536,0.241,0.003,0.559
2305.0,5.318,-5.996,4.536,0.241,0.003,0.559
2309.0,5.073,-5.817,4.397,0.208,0.026,0.582
2313.0,5.073,-5.817,4.397,0.208,0.026,0.582
2316.0,5.004,-5.659,4.447,0.208,0.026,0.605
2320.0,5.004,-5.659,4.447,0.175,0.058,0.605
2324.0,5.004,-5.659,4.447,0.175,0.058,0.605
2328.0,5.109,-5.547,4.652,0.15,0.072,0.623
2331.0,5.109,-5.547,4.652,0.15,0.072,0.623
2335.0,5.109,-5.547,4.652,0.15,0.072,0.623
2339.0,5.181,-5.347,4.583,0.141,0.064,0.636
2342.0,5.181,-5.347,4.583,0.141,0.064,0.636
2346.0,5.171,-5.115,4.432,0.141,0.064,0.656
2350.0,5.171,-5.115,4.432,0.15,0.064,0.656
2354.0,5.171,-5.115,4.432,0.15,0.064,0.656
2357.0,5.207,-4.917,4.199,0.17,0.085,0.7
2361.0,5.207,-4.917,4.199,0.17,0.085,0.7
2365.0,5.207,-4.917,4.199,0.17,0.085,0.7
2369.0,5.182,-4.674,3.89,0.203,0.13,0.774
2372.0,5.182,-4.674,3.89,0.203,0.13,0.774
2376.0,5.046,-4.369,3.595,0.238,0.208,0.872
2380.0,5.046,-4.369,3.595,0.238,0.208,0.872
2384.0,5.046,-4.369,3.595,0.238,0.208,0.872
2387.0,4.927,-4.073,3.51,0.275,0.309,0.993
2391.0,4.927,-4.073,3.51,0.275,0.309,0.993
2395.0,4.927,-4.073,3.611,0.275,0.309,0.993
2398.0,4.836,-3.787,3.611,0.322,0.401,1.139
2402.0,4.836,-3.787,3.611,0.322,0.401,1.139
2406.0,4.717,-3.594,3.527,0.379,0.482,1.316
2410.0,4.717,-3.594,3.527,0.379,0.482,1.316
2413.0,4.717,-3.594,3.527,0.379,0.482,1.316
2417.0,4.497,-3.581,3.454,0.437,0.583,1.532
2421.0,4.497,-3.581,3.454,0.437,0.583,1.532
2425.0,4.497,-3.701,3.59,0.437,0.583,1.532
2428.0,4.208,-3.701,3.59,0.5,0.712,1.775
2432.0,4.208,-3.701,3.59,0.5,0.712,1.775
2436.0,3.914,-3.865,3.92,0.577,0.838,2.014
2440.0,3.914,-3.865,3.92,0.577,0.838,2.014
2443.0,3.914,-3.865,3.92,0.577,0.838,2.014
2447.0,3.611,-3.923,4.171,0.668,0.937,2.224
2451.0,3.611,-3.923,4.171,0.668,0.937,2.224
2454.0,3.245,-3.812,4.099,0.668,0.937,2.224
2458.0,3.245,-3.812,4.099,0.756,1.026,2.404
2462.0,3.245,-3.812,4.099,0.756,1.026,2.404
2466.0,2.785,-3.674,3.884,0.824,1.139,2.575
2469.0,2.785,-3.674,3.884,0.824,1.139,2.575
2473.0,2.785,-3.674,3.884,0.824,1.139,2.575
2477.0,2.295,-3.528,3.866,0.871,1.284,2.747
2481.0,2.295,-3.528,3.866,0.871,1.284,2.747
2484.0,1.739,-3.461,3.925,0.871,1.284,2.914
2488.0,1.739,-3.461,3.925,0.907,1.43,2.914
2492.0,1.739,-3.461,3.925,0.907,1.43,2.914
2495.0,1.092,-3.386,3.964,0.942,1.562,3.063
2499.0,1.092,-3.386,3.964,0.942,1.562,3.063
2503.0,1.092,-3.386,3.964,0.942,1.562,3.063
2507.0,0.433,-3.327,3.733,0.979,1.691,3.193
2510.0,0.433,-3.327,3.733,0.979,1.691,3.193
2514.0,-0.115,-3.342,3.273,1.023,1.867,3.315
2518.0,-0.115,-3.342,3.273,1.023,1.867,3.315
2522.0,-0.115,-3.342,3.273,1.023,1.867,3.315
2526.0,-0.592,-3.505,2.732,1.086,2.124,3.434
2529.0,-0.592,-3.505,2.732,1.086,2.124,3.434
2533.0,-1.385,-4.01,2.809,1.086,2.124,3.434
2537.0,-1.385,-4.01,2.809,1.193,2.447,3.544
2541.0,-1.385,-4.01,2.809,1.193,2.447,3.544
2545.0,-2.343,-4.857,3.321,1.419,2.703,3.593
2549.0,-2.343,-4.857,3.321,1.419,2.703,3.593
2552.0,-2.343,-4.857,3.321,1.419,2.703,3.593
2556.0,-3.176,-5.584,3.852,1.793,2.815,3.551
2560.0,-3.176,-5.584,3.852,1.793,2.815,3.551
2564.0,-3.903,-5.865,3.986,2.275,2.821,3.442
2568.0,-3.903,-5.865,3.986,2.275,2.821,3.442
2571.0,-3.903,-5.865,3.986,2.275,2.821,3.442
2575.0,-4.444,-5.556,3.632,2.789,2.789,3.335
2579.0,-4.444,-5.556,3.632,2.789,2.789,3.335
2583.0,-4.741,-4.802,2.952,2.789,2.789,3.27
2587.0,-4.741,-4.802,2.952,3.262,2.802,3.27
2591.0,-4.741,-4.802,2.952,3.262,2.802,3.27
2594.0,-5.126,-3.907,2.678,3.667,2.92,3.255
2598.0,-5.126,-3.907,2.678,3.667,2.92,3.255
2602.0,-5.126,-3.907,2.691,3.667,2.92,3.255
2606.0,-5.532,-3.043,2.691,4.0,3.112,3.273
2610.0,-5.532,-3.043,2.691,4.0,3.112,3.273
2613.0,-5.744,-2.526,2.943,4.274,3.331,3.292
2617.0,-5.744,-2.526,2.943,4.274,3.331,3.292
2621.0,-5.744,-2.526,2.943,4.274,3.331,3.292
2625.0,-5.813,-2.367,3.301,4.512,3.557,3.275
2629.0,-5.813,-2.367,3.301,4.512,3.557,3.275
2633.0,-6.062,-2.396,3.938,4.741,3.768,3.195
2636.0,-6.062,-2.396,3.938,4.741,3.768,3.195
2640.0,-6.062,-2.396,3.938,4.741,3.768,3.195
2644.0,-6.574,-2.422,4.108,4.935,3.936,3.039
2648.0,-6.574,-2.422,4.108,4.935,3.936,3.039
2652.0,-6.574,-2.381,3.717,4.935,3.936,3.039
2655.0,-7.222,-2.381,3.717,4.994,4.09,2.81
2659.0,-7.222,-2.381,3.717,4.994,4.09,2.81
2663.0,-7.944,-2.316,3.031,4.995,4.266,2.522
2667.0,-7.944,-2.316,3.031,4.995,4.266,2.522
2671.0,-7.944,-2.316,3.031,4.995,4.266,2.522
2675.0,-8.696,-2.362,2.397,4.995,4.48,2.185
2678.0,-8.696,-2.362,2.397,4.995,4.48,2.185
2682.0,-9.58,-2.502,1.826,4.995,4.764,1.795
2686.0,-9.58,-2.502,1.826,4.995,4.764,1.795
2690.0,-9.58,-2.502,1.826,4.995,4.764,1.795
2694.0,-10.585,-2.802,1.368,4.995,4.991,1.356
2698.0,-10.585,-2.802,1.368,4.995,4.991,1.356
2701.0,-11.716,-3.208,1.326,4.995,5.015,0.878
2705.0,-11.716,-3.208,1.326,4.995,5.015,0.878
2709.0,-11.716,-3.208,1.326,4.995,5.015,0.878
2713.0,-12.782,-3.6,1.225,4.995,5.015,0.35
2717.0,-12.782,-3.6,1.225,4.995,5.015,0.35
2721.0,-13.796,-3.806,0.931,4.995,5.015,0.35
2725.0,-13.796,-3.806,0.931,4.995,5.015,-0.228
2729.0,-13.796,-3.806,0.931,4.995,5.015,-0.228
2733.0,-15.098,-3.856,0.606,4.995,5.015,-0.848
2737.0,-15.098,-3.856,0.606,4.995,5.015,-0.848
2741.0,-16.757,-3.551,0.047,4.995,5.015,-1.477
2745.0,-16.757,-3.551,0.047,4.995,5.015,-1.477
2749.0,-16.757,-3.551,0.047,4.995,5.015,-1.477
2753.0,-18.553,-3.058,-0.28,4.995,5.015,-2.065
2757.0,-18.553,-3.058,-0.28,4.995,5.015,-2.065
2761.0,-19.584,-2.466,-0.321,4.995,5.015,-2.584
2765.0,-19.584,-2.466,-0.321,4.995,5.015,-2.584
2769.0,-19.584,-2.466,-0.321,4.995,5.015,-2.584
2773.0,-19.6,-1.676,0.033,4.995,5.015,-3.025
2777.0,-19.6,-1.676,0.033,4.995,5.015,-3.025
2781.0,-19.6,-0.691,0.219,4.995,5.015,-3.353
2785.0,-19.6,-0.691,0.219,4.995,5.015,-3.353
2789.0,-19.6,-0.691,0.219,4.995,5.015,-3.353
2793.0,-19.6,0.307,0.109,4.995,5.015,-3.557
2797.0,-19.6,0.307,0.109,4.995,5.015,-3.557
2801.0,-19.6,1.443,0.169,4.995,4.888,-3.673
2805.0,-19.6,1.443,0.169,4.995,4.888,-3.673
2809.0,-19.6,1.443,0.169,4.995,4.888,-3.673
2813.0,-19.6,2.671,0.287,4.995,4.514,-3.748
2817.0,-19.6,2.671,0.287,4.995,4.514,-3.748
2821.0,-19.568,3.84,0.705,4.988,4.148,-3.789
2824.0,-19.568,3.84,0.705,4.988,4.148,-3.789
2828.0,-19.568,3.84,0.705,4.988,4.148,-3.789
2832.0,-19.164,4.794,0.961,4.658,3.806,-3.792
2836.0,-19.164,4.794,0.961,4.658,3.806,-3.792
2840.0,-19.113,5.856,1.203,3.864,3.487,-3.741
2844.0,-19.113,5.856,1.203,3.864,3.487,-3.741
2848.0,-19.113,5.856,1.203,3.864,3.487,-3.741
2852.0,-19.059,6.665,1.386,3.037,3.168,-3.61
2856.0,-19.059,6.665,1.386,3.037,3.168,-3.61
2860.0,-18.941,7.005,1.452,2.23,2.833,-3.424
2864.0,-18.941,7.005,1.452,2.23,2.833,-3.424
2867.0,-18.941,7.005,1.452,2.23,2.833,-3.424
2871.0,-18.754,7.185,1.497,1.453,2.495,-3.217
2875.0,-18.754,7.185,1.497,1.453,2.495,-3.217
2879.0,-18.309,7.071,1.415,1.453,2.168,-2.997
2883.0,-18.309,7.071,1.415,0.714,2.168,-2.997
2887.0,-18.309,7.071,1.415,0.714,2.168,-2.997
2891.0,-17.834,6.628,1.367,0.021,1.872,-2.777
2895.0,-17.834,6.628,1.367,0.021,1.872,-2.777
2899.0,-17.261,6.054,1.461,0.021,1.872,-2.777
2903.0,-17.261,6.054,1.461,-0.615,1.616,-2.561
2907.0,-17.261,6.054,1.461,-0.615,1.616,-2.561
2911.0,-16.605,5.35,1.647,-1.172,1.389,-2.333
2915.0,-16.605,5.35,1.647,-1.172,1.389,-2.333
2919.0,-16.116,4.623,1.788,-1.172,1.389,-2.101
2923.0,-16.116,4.623,1.788,-1.643,1.188,-2.101
2927.0,-16.116,4.623,1.788,-1.643,1.188,-2.101
2931.0,-15.575,4.031,1.912,-2.047,1.005,-1.876
2935.0,-15.575,4.031,1.912,-2.047,1.005,-1.876
2939.0,-15.055,3.417,1.929,-2.047,0.831,-1.659
2943.0,-15.055,3.417,1.929,-2.416,0.831,-1.659
2947.0,-15.055,3.417,1.929,-2.416,0.831,-1.659
2951.0,-14.754,2.805,1.944,-2.759,0.669,-1.46
2955.0,-14.754,2.805,1.944,-2.759,0.669,-1.46
2959.0,-14.232,2.306,1.938,-3.073,0.517,-1.275
2963.0,-14.232,2.306,1.938,-3.073,0.517,-1.275
2967.0,-14.232,2.306,1.938,-3.073,0.517,-1.275
2970.0,-13.555,1.801,1.917,-3.35,0.373,-1.103
2974.0,-13.555,1.801,1.917,-3.35,0.373,-1.103
2978.0,-13.084,1.46,1.891,-3.583,0.242,-0.949
2982.0,-13.084,1.46,1.891,-3.583,0.242,-0.949
2986.0,-13.084,1.46,1.891,-3.583,0.242,-0.949
2990.0,-12.532,1.324,1.805,-3.779,0.119,-0.802
2994.0,-12.532,1.324,1.805,-3.779,0.119,-0.802
2998.0,-12.083,1.084,1.711,-3.943,0.003,-0.653
