deltaTime,Acc_X,Acc_Y,Acc_Z,Gyro_X,Gyro_Y,Gyro_Z
0.0,-7.948,-2.502,1.88,-0.059,-0.567,-0.375
3.0,-7.948,-2.502,1.88,-0.059,-0.567,-0.375
6.0,-9.361,-2.787,1.43,-0.135,-0.358,-0.34
9.0,-9.361,-2.787,1.43,-0.135,-0.358,-0.34
12.0,-9.361,-2.787,1.43,-0.135,-0.358,-0.34
15.0,-9.642,-2.898,1.494,-0.174,-0.32,-0.271
18.0,-9.642,-2.898,1.494,-0.174,-0.32,-0.271
21.0,-9.642,-2.898,1.494,-0.174,-0.32,-0.271
24.0,-9.966,-3.213,1.61,-0.174,-0.276,-0.185
27.0,-9.966,-3.213,1.61,-0.221,-0.276,-0.185
30.0,-9.966,-3.213,1.61,-0.221,-0.276,-0.185
34.0,-10.189,-3.651,1.842,-0.273,-0.231,-0.105
38.0,-10.189,-3.651,1.842,-0.273,-0.231,-0.105
42.0,-10.189,-3.651,1.842,-0.273,-0.231,-0.105
46.0,-10.254,-4.052,2.095,-0.311,-0.2,-0.049
50.0,-10.254,-4.052,2.095,-0.311,-0.2,-0.049
54.0,-10.226,-4.158,2.268,-0.314,-0.181,-0.025
58.0,-10.226,-4.158,2.268,-0.314,-0.181,-0.025
62.0,-10.226,-4.158,2.268,-0.314,-0.181,-0.025
66.0,-10.08,-4.154,2.233,-0.285,-0.172,-0.025
70.0,-10.08,-4.154,2.233,-0.285,-0.172,-0.025
74.0,-10.036,-4.104,2.047,-0.238,-0.158,-0.031
78.0,-10.036,-4.104,2.047,-0.238,-0.158,-0.031
82.0,-10.036,-4.104,2.047,-0.238,-0.158,-0.031
86.0,-10.103,-3.998,1.898,-0.186,-0.13,-0.033
90.0,-10.103,-3.998,1.898,-0.186,-0.13,-0.033
94.0,-10.184,-3.808,1.866,-0.146,-0.105,-0.039
98.0,-10.184,-3.808,1.866,-0.146,-0.105,-0.039
102.0,-10.184,-3.808,1.866,-0.146,-0.105,-0.039
106.0,-10.22,-3.625,1.911,-0.122,-0.099,-0.048
110.0,-10.22,-3.625,1.911,-0.122,-0.099,-0.048
114.0,-10.171,-3.46,1.933,-0.114,-0.118,-0.061
118.0,-10.171,-3.46,1.933,-0.114,-0.118,-0.061
122.0,-9.992,-3.391,1.926,-0.114,-0.118,-0.061
126.0,-9.992,-3.391,1.926,-0.124,-0.152,-0.075
130.0,-9.992,-3.391,1.926,-0.124,-0.152,-0.075
134.0,-9.759,-3.366,1.892,-0.142,-0.186,-0.084
138.0,-9.759,-3.366,1.892,-0.142,-0.186,-0.084
142.0,-9.544,-3.291,1.911,-0.142,-0.186,-0.093
146.0,-9.544,-3.291,1.911,-0.169,-0.212,-0.093
150.0,-9.544,-3.291,1.911,-0.169,-0.212,-0.093
154.0,-9.276,-3.223,1.982,-0.212,-0.22,-0.098
158.0,-9.276,-3.223,1.982,-0.212,-0.22,-0.098
162.0,-9.078,-3.215,2.185,-0.264,-0.208,-0.093
166.0,-9.078,-3.215,2.185,-0.264,-0.208,-0.093
170.0,-9.078,-3.215,2.185,-0.264,-0.208,-0.093
174.0,-8.931,-3.273,2.451,-0.304,-0.194,-0.083
178.0,-8.931,-3.273,2.451,-0.304,-0.194,-0.083
182.0,-8.791,-3.286,2.709,-0.322,-0.192,-0.081
186.0,-8.791,-3.286,2.709,-0.322,-0.192,-0.081
190.0,-8.791,-3.286,2.709,-0.322,-0.192,-0.081
194.0,-8.695,-3.166,2.92,-0.332,-0.195,-0.088
198.0,-8.695,-3.166,2.92,-0.332,-0.195,-0.088
202.0,-8.592,-3.054,3.026,-0.345,-0.2,-0.096
206.0,-8.592,-3.054,3.026,-0.345,-0.2,-0.096
210.0,-8.592,-3.054,3.026,-0.345,-0.2,-0.096
214.0,-8.518,-2.935,3.156,-0.353,-0.209,-0.101
218.0,-8.518,-2.935,3.156,-0.353,-0.209,-0.101
222.0,-8.531,-2.789,3.105,-0.364,-0.224,-0.1
226.0,-8.531,-2.789,3.105,-0.364,-0.224,-0.1
230.0,-8.531,-2.789,3.105,-0.364,-0.224,-0.1
234.0,-8.648,-2.66,2.917,-0.403,-0.225,-0.095
238.0,-8.648,-2.66,2.917,-0.403,-0.225,-0.095
242.0,-8.914,-2.608,2.9,-0.475,-0.201,-0.082
246.0,-8.914,-2.608,2.9,-0.475,-0.201,-0.082
250.0,-8.914,-2.608,2.9,-0.475,-0.201,-0.082
254.0,-9.282,-2.602,3.09,-0.563,-0.172,-0.067
258.0,-9.282,-2.602,3.09,-0.563,-0.172,-0.067
262.0,-9.585,-2.714,3.369,-0.634,-0.157,-0.057
266.0,-9.585,-2.714,3.369,-0.634,-0.157,-0.057
270.0,-9.585,-2.714,3.631,-0.634,-0.157,-0.057
274.0,-9.756,-2.855,3.631,-0.661,-0.16,-0.05
278.0,-9.756,-2.855,3.631,-0.661,-0.16,-0.05
282.0,-9.739,-2.873,3.885,-0.636,-0.177,-0.053
286.0,-9.739,-2.873,3.885,-0.636,-0.177,-0.053
290.0,-9.535,-2.742,3.995,-0.636,-0.177,-0.053
294.0,-9.535,-2.742,3.995,-0.569,-0.206,-0.066
298.0,-9.535,-2.742,3.995,-0.569,-0.206,-0.066
302.0,-9.407,-2.633,4.063,-0.485,-0.23,-0.074
306.0,-9.407,-2.633,4.063,-0.485,-0.23,-0.074
310.0,-9.279,-2.766,4.22,-0.485,-0.23,-0.075
314.0,-9.279,-2.766,4.22,-0.385,-0.249,-0.075
318.0,-9.279,-2.766,4.22,-0.385,-0.249,-0.075
322.0,-8.924,-2.895,4.146,-0.237,-0.281,-0.077
326.0,-8.924,-2.895,4.146,-0.237,-0.281,-0.077
330.0,-8.697,-2.809,3.894,-0.237,-0.306,-0.079
334.0,-8.697,-2.809,3.894,-0.061,-0.306,-0.079
338.0,-8.697,-2.809,3.894,-0.061,-0.306,-0.079
342.0,-8.783,-2.666,3.662,0.092,-0.3,-0.056
346.0,-8.783,-2.666,3.662,0.092,-0.3,-0.056
350.0,-9.015,-2.62,3.557,0.092,-0.278,0.005
353.0,-9.015,-2.62,3.557,0.211,-0.278,0.005
357.0,-9.015,-2.62,3.557,0.211,-0.278,0.005
361.0,-8.92,-2.608,3.483,0.304,-0.272,0.077
365.0,-8.92,-2.608,3.483,0.304,-0.272,0.077
369.0,-8.92,-2.726,3.197,0.304,-0.272,0.077
373.0,-9.016,-2.726,3.197,0.395,-0.265,0.16
376.0,-9.016,-2.726,3.197,0.395,-0.265,0.16
380.0,-8.87,-2.523,3.025,0.467,-0.275,0.232
384.0,-8.87,-2.523,3.025,0.467,-0.275,0.232
388.0,-8.87,-2.523,3.025,0.467,-0.275,0.232
392.0,-8.844,-2.385,2.913,0.482,-0.27,0.303
395.0,-8.844,-2.385,2.913,0.482,-0.27,0.303
399.0,-8.754,-2.294,2.687,0.46,-0.253,0.373
403.0,-8.754,-2.294,2.687,0.46,-0.253,0.373
407.0,-8.754,-2.294,2.687,0.46,-0.253,0.373
411.0,-8.636,-2.447,2.478,0.414,-0.221,0.43
415.0,-8.636,-2.447,2.478,0.414,-0.221,0.43
418.0,-8.529,-2.596,2.41,0.414,-0.221,0.43
422.0,-8.529,-2.596,2.41,0.365,-0.177,0.465
426.0,-8.529,-2.596,2.41,0.365,-0.177,0.465
430.0,-8.436,-2.637,2.472,0.316,-0.129,0.472
434.0,-8.436,-2.637,2.472,0.316,-0.129,0.472
438.0,-8.436,-2.637,2.472,0.316,-0.129,0.472
441.0,-8.351,-2.696,2.56,0.268,-0.091,0.45
445.0,-8.351,-2.696,2.56,0.268,-0.091,0.45
449.0,-8.215,-2.7,2.715,0.227,-0.074,0.401
453.0,-8.215,-2.7,2.715,0.227,-0.074,0.401
457.0,-8.215,-2.7,2.715,0.227,-0.074,0.401
460.0,-8.079,-2.576,2.836,0.19,-0.076,0.328
464.0,-8.079,-2.576,2.836,0.19,-0.076,0.328
468.0,-7.973,-2.439,2.887,0.19,-0.089,0.246
472.0,-7.973,-2.439,2.887,0.149,-0.089,0.246
476.0,-7.973,-2.439,2.887,0.149,-0.089,0.246
480.0,-7.924,-2.345,2.989,0.109,-0.109,0.164
483.0,-7.924,-2.345,2.989,0.109,-0.109,0.164
487.0,-7.924,-2.358,3.039,0.109,-0.109,0.164
491.0,-7.822,-2.358,3.039,0.078,-0.13,0.095
495.0,-7.822,-2.358,3.039,0.078,-0.13,0.095
499.0,-7.768,-2.427,2.987,0.058,-0.142,0.04
502.0,-7.768,-2.427,2.987,0.058,-0.142,0.04
506.0,-7.768,-2.427,2.987,0.058,-0.142,0.04
510.0,-7.906,-2.454,2.919,0.035,-0.131,0.0
514.0,-7.906,-2.454,2.919,0.035,-0.131,0.0
518.0,-8.262,-2.502,2.885,-0.006,-0.097,-0.018
522.0,-8.262,-2.502,2.885,-0.006,-0.097,-0.018
526.0,-8.262,-2.502,2.885,-0.006,-0.097,-0.018
530.0,-8.74,-2.599,3.06,-0.06,-0.052,-0.005
534.0,-8.74,-2.599,3.06,-0.06,-0.052,-0.005
538.0,-9.196,-2.784,3.123,-0.103,-0.023,0.033
542.0,-9.196,-2.784,3.123,-0.103,-0.023,0.033
545.0,-9.196,-2.784,3.123,-0.103,-0.023,0.033
549.0,-9.718,-2.964,3.12,-0.121,-0.012,0.085
553.0,-9.718,-2.964,3.12,-0.121,-0.012,0.085
557.0,-10.049,-3.063,3.223,-0.117,-0.003,0.142
561.0,-10.049,-3.063,3.223,-0.117,-0.003,0.142
565.0,-10.049,-3.063,3.223,-0.117,-0.003,0.142
569.0,-10.299,-2.808,3.427,-0.104,0.008,0.19
573.0,-10.299,-2.808,3.427,-0.104,0.008,0.19
577.0,-10.12,-2.742,3.392,-0.112,0.003,0.222
581.0,-10.12,-2.742,3.392,-0.112,0.003,0.222
585.0,-10.12,-2.742,3.392,-0.112,0.003,0.222
589.0,-9.785,-2.744,3.287,-0.106,-0.008,0.24
593.0,-9.785,-2.744,3.287,-0.106,-0.008,0.24
597.0,-9.461,-2.763,3.246,-0.084,-0.004,0.234
600.0,-9.461,-2.763,3.246,-0.084,-0.004,0.234
604.0,-9.461,-2.763,3.246,-0.084,-0.004,0.234
608.0,-9.119,-2.776,3.124,-0.057,0.02,0.203
612.0,-9.119,-2.776,3.124,-0.057,0.02,0.203
616.0,-8.831,-2.774,2.956,-0.057,0.02,0.158
620.0,-8.831,-2.774,2.956,-0.025,0.056,0.158
624.0,-8.831,-2.774,2.956,-0.025,0.056,0.158
627.0,-8.744,-2.771,2.837,0.009,0.101,0.109
631.0,-8.744,-2.771,2.837,0.009,0.101,0.109
635.0,-8.744,-2.771,2.837,0.009,0.101,0.109
639.0,-8.797,-2.832,2.783,0.051,0.155,0.068
642.0,-8.797,-2.832,2.783,0.051,0.155,0.068
646.0,-8.866,-2.915,2.727,0.111,0.208,0.042
650.0,-8.866,-2.915,2.727,0.111,0.208,0.042
653.0,-8.866,-2.915,2.727,0.111,0.208,0.042
657.0,-8.875,-3.064,2.646,0.193,0.255,0.035
661.0,-8.875,-3.064,2.646,0.193,0.255,0.035
665.0,-8.875,-3.064,2.648,0.193,0.255,0.035
668.0,-8.797,-3.232,2.648,0.282,0.304,0.039
672.0,-8.797,-3.232,2.648,0.282,0.304,0.039
676.0,-8.7,-3.382,2.751,0.372,0.357,0.048
680.0,-8.7,-3.382,2.751,0.372,0.357,0.048
683.0,-8.7,-3.382,2.751,0.372,0.357,0.048
687.0,-8.649,-3.607,2.885,0.468,0.41,0.056
691.0,-8.649,-3.607,2.885,0.468,0.41,0.056
695.0,-8.649,-3.934,2.987,0.468,0.41,0.056
698.0,-8.606,-3.934,2.987,0.582,0.453,0.055
702.0,-8.606,-3.934,2.987,0.582,0.453,0.055
706.0,-8.579,-4.244,3.056,0.731,0.487,0.036
709.0,-8.579,-4.244,3.056,0.731,0.487,0.036
713.0,-8.579,-4.244,3.056,0.731,0.487,0.036
717.0,-8.502,-4.596,3.029,0.924,0.518,-0.003
721.0,-8.502,-4.596,3.029,0.924,0.518,-0.003
725.0,-8.364,-4.873,2.974,0.924,0.518,-0.066
728.0,-8.364,-4.873,2.974,1.145,0.556,-0.066
732.0,-8.364,-4.873,2.974,1.145,0.556,-0.066
736.0,-8.029,-5.0,2.891,1.373,0.612,-0.146
740.0,-8.029,-5.0,2.891,1.373,0.612,-0.146
744.0,-8.029,-5.0,2.935,1.373,0.612,-0.146
747.0,-7.571,-5.006,2.935,1.6,0.693,-0.233
751.0,-7.571,-5.006,2.935,1.6,0.693,-0.233
755.0,-7.261,-5.064,3.133,1.82,0.785,-0.317
759.0,-7.261,-5.064,3.133,1.82,0.785,-0.317
763.0,-7.261,-5.064,3.133,1.82,0.785,-0.317
767.0,-7.187,-5.197,3.307,2.021,0.869,-0.39
770.0,-7.187,-5.197,3.307,2.021,0.869,-0.39
774.0,-7.333,-5.326,3.391,2.194,0.935,-0.453
778.0,-7.333,-5.326,3.391,2.194,0.935,-0.453
782.0,-7.333,-5.326,3.391,2.194,0.935,-0.453
786.0,-7.546,-5.426,3.517,2.338,0.988,-0.51
789.0,-7.546,-5.426,3.517,2.338,0.988,-0.51
793.0,-7.77,-5.591,3.873,2.338,0.988,-0.51
797.0,-7.77,-5.591,3.873,2.462,1.022,-0.57
801.0,-7.77,-5.591,3.873,2.462,1.022,-0.57
805.0,-8.118,-5.697,4.357,2.57,1.027,-0.639
809.0,-8.118,-5.697,4.357,2.57,1.027,-0.639
812.0,-8.118,-5.697,4.357,2.57,1.027,-0.639
816.0,-8.523,-5.637,4.682,2.662,0.99,-0.712
820.0,-8.523,-5.637,4.682,2.662,0.99,-0.712
824.0,-9.094,-5.507,4.889,2.735,0.918,-0.777
828.0,-9.094,-5.507,4.889,2.735,0.918,-0.777
832.0,-9.094,-5.507,4.889,2.735,0.918,-0.777
835.0,-9.74,-5.371,5.064,2.789,0.8,-0.834
839.0,-9.74,-5.371,5.064,2.789,0.8,-0.834
843.0,-10.149,-5.094,5.283,2.789,0.8,-0.91
847.0,-10.149,-5.094,5.283,2.804,0.64,-0.91
851.0,-10.149,-5.094,5.283,2.804,0.64,-0.91
855.0,-10.225,-4.85,5.733,2.756,0.478,-1.021
859.0,-10.225,-4.85,5.733,2.756,0.478,-1.021
863.0,-10.259,-4.945,6.429,2.756,0.478,-1.021
866.0,-10.259,-4.945,6.429,2.628,0.315,-1.166
870.0,-10.259,-4.945,6.429,2.628,0.315,-1.166
874.0,-10.589,-5.3,7.241,2.446,0.127,-1.35
878.0,-10.589,-5.3,7.241,2.446,0.127,-1.35
882.0,-10.589,-5.801,7.898,2.446,0.127,-1.35
886.0,-11.182,-5.801,7.898,2.272,-0.114,-1.564
890.0,-11.182,-5.801,7.898,2.272,-0.114,-1.564
894.0,-11.713,-6.273,8.349,2.152,-0.393,-1.783
898.0,-11.713,-6.273,8.349,2.152,-0.393,-1.783
902.0,-12.036,-6.513,8.69,2.152,-0.393,-1.783
906.0,-12.036,-6.513,8.69,2.089,-0.673,-1.972
910.0,-12.036,-6.513,8.69,2.089,-0.673,-1.972
914.0,-12.237,-6.803,8.967,2.052,-0.925,-2.109
918.0,-12.237,-6.803,8.967,2.052,-0.925,-2.109
922.0,-12.508,-7.272,9.183,2.052,-0.925,-2.218
926.0,-12.508,-7.272,9.183,2.021,-1.144,-2.218
930.0,-12.508,-7.272,9.183,2.021,-1.144,-2.218
934.0,-12.8,-7.669,9.352,2.007,-1.36,-2.335
938.0,-12.8,-7.669,9.352,2.007,-1.36,-2.335
942.0,-12.976,-7.832,9.666,2.007,-1.588,-2.465
946.0,-12.976,-7.832,9.666,2.029,-1.588,-2.465
950.0,-12.976,-7.832,9.666,2.029,-1.588,-2.465
954.0,-12.942,-7.922,9.797,2.079,-1.828,-2.6
958.0,-12.942,-7.922,9.797,2.079,-1.828,-2.6
962.0,-12.763,-8.144,9.678,2.154,-2.067,-2.737
966.0,-12.763,-8.144,9.678,2.154,-2.067,-2.737
970.0,-12.763,-8.144,9.678,2.154,-2.067,-2.737
974.0,-12.592,-8.462,9.528,2.268,-2.283,-2.874
978.0,-12.592,-8.462,9.528,2.268,-2.283,-2.874
982.0,-12.449,-8.498,9.339,2.436,-2.482,-2.995
986.0,-12.449,-8.498,9.339,2.436,-2.482,-2.995
990.0,-12.449,-8.498,9.339,2.436,-2.482,-2.995
994.0,-12.347,-8.328,9.29,2.624,-2.677,-3.085
998.0,-12.347,-8.328,9.29,2.624,-2.677,-3.085
1002.0,-12.256,-8.176,9.126,2.788,-2.873,-3.14
1006.0,-12.256,-8.176,9.126,2.788,-2.873,-3.14
1010.0,-12.256,-8.176,9.126,2.788,-2.873,-3.14
1014.0,-12.139,-8.085,8.9,2.897,-3.064,-3.172
1018.0,-12.139,-8.085,8.9,2.897,-3.064,-3.172
1022.0,-11.854,-7.927,8.709,2.947,-3.249,-3.203
1026.0,-11.854,-7.927,8.709,2.947,-3.249,-3.203
1030.0,-11.436,-7.793,8.562,2.947,-3.249,-3.203
1034.0,-11.436,-7.793,8.562,2.945,-3.42,-3.242
1038.0,-11.436,-7.793,8.562,2.945,-3.42,-3.242
1043.0,-11.133,-8.005,8.587,2.909,-3.564,-3.292
1047.0,-11.133,-8.005,8.587,2.909,-3.564,-3.292
1051.0,-11.137,-8.669,8.798,2.884,-3.685,-3.362
1055.0,-11.137,-8.669,8.798,2.884,-3.685,-3.362
1059.0,-11.137,-8.669,8.798,2.884,-3.685,-3.362
1063.0,-11.302,-9.247,8.956,2.9,-3.794,-3.463
1067.0,-11.302,-9.247,8.956,2.9,-3.794,-3.463
1071.0,-11.428,-9.738,9.144,2.97,-3.9,-3.573
1075.0,-11.428,-9.738,9.144,2.97,-3.9,-3.573
1079.0,-11.428,-9.738,9.051,2.97,-3.9,-3.573
1083.0,-11.469,-9.862,9.051,3.112,-4.009,-3.668
1087.0,-11.469,-9.862,9.051,3.112,-4.009,-3.668
1091.0,-11.2,-9.611,8.512,3.341,-4.11,-3.705
1096.0,-11.2,-9.611,8.512,3.341,-4.11,-3.705
1100.0,-10.54,-9.229,7.659,3.341,-4.11,-3.669
1104.0,-10.54,-9.229,7.659,3.667,-4.179,-3.669
1108.0,-10.54,-9.229,7.659,3.667,-4.179,-3.669
1112.0,-9.723,-8.886,6.842,4.074,-4.21,-3.57
1116.0,-9.723,-8.886,6.842,4.074,-4.21,-3.57
1120.0,-8.986,-8.294,6.007,4.53,-4.207,-3.438
1124.0,-8.986,-8.294,6.007,4.53,-4.207,-3.438
1128.0,-8.986,-8.294,6.007,4.53,-4.207,-3.438
1132.0,-8.111,-7.582,5.246,4.919,-4.168,-3.289
1136.0,-8.111,-7.582,5.246,4.919,-4.168,-3.289
1140.0,-7.22,-6.773,4.741,4.995,-4.095,-3.127
1144.0,-7.22,-6.773,4.741,4.995,-4.095,-3.127
1148.0,-7.22,-6.773,4.741,4.995,-4.095,-3.127
1152.0,-6.625,-6.103,4.513,4.995,-4.012,-2.95
1156.0,-6.625,-6.103,4.513,4.995,-4.012,-2.95
1160.0,-6.21,-5.119,4.149,4.995,-3.941,-2.756
1164.0,-6.21,-5.119,4.149,4.995,-3.941,-2.756
1168.0,-6.21,-5.119,4.149,4.995,-3.941,-2.756
1172.0,-5.66,-3.98,3.65,4.995,-3.866,-2.532
1176.0,-5.66,-3.98,3.65,4.995,-3.866,-2.532
1180.0,-4.884,-2.789,3.041,4.995,-3.767,-2.29
1184.0,-4.884,-2.789,3.041,4.995,-3.767,-2.29
1188.0,-4.884,-2.789,2.554,4.995,-3.767,-2.29
1192.0,-4.001,-1.684,2.554,4.995,-3.626,-2.058
1196.0,-4.001,-1.684,2.554,4.995,-3.626,-2.058
1200.0,-3.322,-0.897,2.177,4.995,-3.455,-1.866
1204.0,-3.322,-0.897,2.177,4.995,-3.455,-1.866
1208.0,-3.322,-0.293,1.698,4.995,-3.455,-1.866
1212.0,-2.845,-0.293,1.698,4.995,-3.271,-1.714
1216.0,-2.845,-0.293,1.698,4.995,-3.271,-1.714
1220.0,-2.393,0.13,1.347,4.995,-3.066,-1.574
1224.0,-2.393,0.13,1.347,4.995,-3.066,-1.574
1228.0,-2.393,0.467,1.261,4.995,-3.066,-1.574
1231.0,-2.088,0.467,1.261,4.995,-2.832,-1.435
1235.0,-2.088,0.467,1.261,4.995,-2.832,-1.435
1239.0,-1.914,0.65,1.265,4.972,-2.589,-1.295
1243.0,-1.914,0.65,1.265,4.972,-2.589,-1.295
1247.0,-1.914,0.65,1.401,4.972,-2.589,-1.295
1251.0,-1.82,0.818,1.401,4.75,-2.346,-1.176
1255.0,-1.82,0.818,1.401,4.75,-2.346,-1.176
1259.0,-1.803,1.122,1.484,4.417,-2.118,-1.077
1263.0,-1.803,1.122,1.484,4.417,-2.118,-1.077
1267.0,-1.803,1.122,1.484,4.417,-2.118,-1.077
1270.0,-1.692,1.555,1.566,4.071,-1.905,-0.98
1274.0,-1.692,1.555,1.566,4.071,-1.905,-0.98
1278.0,-1.5,2.034,1.624,3.712,-1.707,-0.863
1282.0,-1.5,2.034,1.624,3.712,-1.707,-0.863
1286.0,-1.5,2.034,1.624,3.712,-1.707,-0.863
1290.0,-1.26,2.544,1.644,3.338,-1.514,-0.735
1294.0,-1.26,2.544,1.644,3.338,-1.514,-0.735
1298.0,-1.029,2.955,1.627,2.946,-1.316,-0.612
1302.0,-1.029,2.955,1.627,2.946,-1.316,-0.612
1306.0,-1.029,2.955,1.627,2.946,-1.316,-0.612
1310.0,-0.824,3.262,1.719,2.547,-1.109,-0.517
1313.0,-0.824,3.262,1.719,2.547,-1.109,-0.517
1317.0,-0.638,3.74,1.82,2.152,-0.892,-0.453
1321.0,-0.638,3.74,1.82,2.152,-0.892,-0.453
1325.0,-0.638,3.74,1.82,2.152,-0.892,-0.453
1329.0,-0.379,4.389,2.188,1.759,-0.667,-0.39
1333.0,-0.379,4.389,2.188,1.759,-0.667,-0.39
1337.0,-0.279,5.139,2.86,1.378,-0.447,-0.315
1341.0,-0.279,5.139,2.86,1.378,-0.447,-0.315
1345.0,-0.279,5.139,2.86,1.378,-0.447,-0.315
1349.0,-0.337,5.807,3.587,1.032,-0.256,-0.231
1353.0,-0.337,5.807,3.587,1.032,-0.256,-0.231
1356.0,-0.498,6.632,4.304,1.032,-0.088,-0.14
1360.0,-0.498,6.632,4.304,0.749,-0.088,-0.14
1364.0,-0.498,6.632,4.304,0.749,-0.088,-0.14
1368.0,-0.714,7.397,5.007,0.555,0.05,-0.008
1372.0,-0.714,7.397,5.007,0.555,0.05,-0.008
1376.0,-0.657,7.968,5.574,0.555,0.05,-0.008
1380.0,-0.657,7.968,5.574,0.443,0.153,0.189
1383.0,-0.657,7.968,5.574,0.443,0.153,0.189
1387.0,-0.481,8.261,6.08,0.402,0.242,0.431
1391.0,-0.481,8.261,6.08,0.402,0.242,0.431
1395.0,-0.481,8.261,6.08,0.402,0.242,0.431
1398.0,-0.431,8.556,6.576,0.413,0.317,0.677
1402.0,-0.431,8.556,6.576,0.413,0.317,0.677
1406.0,-0.457,8.916,7.024,0.413,0.375,0.913
1409.0,-0.457,8.916,7.024,0.445,0.375,0.913
1413.0,-0.457,8.916,7.024,0.445,0.375,0.913
1417.0,-0.538,9.259,7.565,0.482,0.413,1.134
1421.0,-0.538,9.259,7.565,0.482,0.413,1.134
1424.0,-0.538,9.259,7.565,0.482,0.413,1.134
1428.0,-0.604,9.647,7.976,0.515,0.429,1.342
1432.0,-0.604,9.647,7.976,0.515,0.429,1.342
1436.0,-0.634,10.079,8.304,0.536,0.433,1.558
1439.0,-0.634,10.079,8.304,0.536,0.433,1.558
1443.0,-0.634,10.079,8.304,0.536,0.433,1.558
1447.0,-0.68,10.415,8.611,0.541,0.424,1.786
1451.0,-0.68,10.415,8.611,0.541,0.424,1.786
1455.0,-0.814,10.638,8.729,0.541,0.424,1.786
1459.0,-0.814,10.638,8.729,0.53,0.401,2.02
1462.0,-0.814,10.638,8.729,0.53,0.401,2.02
1466.0,-0.97,10.776,8.789,0.501,0.373,2.244
1470.0,-0.97,10.776,8.789,0.501,0.373,2.244
1474.0,-0.97,10.776,8.789,0.501,0.373,2.244
1478.0,-1.159,10.809,8.835,0.466,0.336,2.45
1481.0,-1.159,10.809,8.835,0.466,0.336,2.45
1485.0,-1.294,10.897,8.863,0.43,0.294,2.641
1489.0,-1.294,10.897,8.863,0.43,0.294,2.641
1493.0,-1.294,10.897,8.863,0.43,0.294,2.641
1497.0,-1.399,11.098,9.025,0.41,0.257,2.831
1501.0,-1.399,11.098,9.025,0.41,0.257,2.831
1504.0,-1.604,11.259,9.176,0.41,0.257,3.035
1508.0,-1.604,11.259,9.176,0.42,0.216,3.035
1512.0,-1.604,11.259,9.176,0.42,0.216,3.035
1516.0,-1.822,11.278,9.219,0.463,0.176,3.259
1520.0,-1.822,11.278,9.219,0.463,0.176,3.259
1523.0,-1.822,11.278,9.282,0.463,0.176,3.259
1527.0,-2.234,11.225,9.282,0.54,0.152,3.504
1531.0,-2.234,11.225,9.282,0.54,0.152,3.504
1535.0,-2.827,11.086,9.264,0.634,0.132,3.777
1539.0,-2.827,11.086,9.264,0.634,0.132,3.777
1543.0,-2.827,11.086,9.264,0.634,0.132,3.777
1546.0,-3.43,10.959,9.549,0.727,0.115,4.063
1550.0,-3.43,10.959,9.549,0.727,0.115,4.063
1554.0,-4.034,10.759,9.944,0.809,0.083,4.349
1558.0,-4.034,10.759,9.944,0.809,0.083,4.349
1562.0,-4.034,10.759,9.944,0.809,0.083,4.349
1565.0,-4.258,10.441,10.113,0.863,0.021,4.625
1569.0,-4.258,10.441,10.113,0.863,0.021,4.625
1573.0,-3.88,10.09,10.262,0.863,0.021,4.625
1577.0,-3.88,10.09,10.262,0.885,-0.063,4.843
1581.0,-3.88,10.09,10.262,0.885,-0.063,4.843
1585.0,-3.317,9.849,10.393,0.878,-0.167,4.971
1589.0,-3.317,9.849,10.393,0.878,-0.167,4.971
1593.0,-2.753,9.408,10.25,0.878,-0.167,4.971
1597.0,-2.753,9.408,10.25,0.831,-0.278,5.011
1601.0,-2.753,9.408,10.25,0.831,-0.278,5.011
1605.0,-2.04,8.811,10.238,0.731,-0.37,5.013
1609.0,-2.04,8.811,10.238,0.731,-0.37,5.013
1612.0,-2.04,8.311,10.306,0.731,-0.37,5.013
1616.0,-1.461,8.311,10.306,0.603,-0.442,5.013
1620.0,-1.461,8.311,10.306,0.603,-0.442,5.013
1624.0,-1.128,7.933,10.223,0.466,-0.506,5.013
1628.0,-1.128,7.933,10.223,0.466,-0.506,5.013
1632.0,-1.128,7.933,9.937,0.466,-0.506,5.013
1636.0,-0.916,7.558,9.937,0.327,-0.558,5.013
1640.0,-0.916,7.558,9.937,0.327,-0.558,5.013
1643.0,-0.55,6.805,9.173,0.19,-0.585,5.013
1647.0,-0.55,6.805,9.173,0.19,-0.585,5.013
1651.0,-0.55,6.805,9.173,0.19,-0.585,5.013
1655.0,0.089,6.106,8.709,0.065,-0.557,5.013
1659.0,0.089,6.106,8.709,0.065,-0.557,5.013
1662.0,0.634,5.423,8.709,0.065,-0.506,5.013
1666.0,0.634,5.423,8.709,-0.019,-0.506,5.013
1670.0,0.634,5.423,8.709,-0.019,-0.506,5.013
1674.0,1.3,4.504,8.819,-0.07,-0.481,5.013
1678.0,1.3,4.504,8.819,-0.07,-0.481,5.013
1681.0,1.3,4.504,9.081,-0.07,-0.481,5.013
1685.0,2.07,3.794,9.081,-0.103,-0.469,5.012
1689.0,2.07,3.794,9.081,-0.103,-0.469,5.012
1693.0,2.312,3.352,9.215,-0.119,-0.452,5.012
1697.0,2.312,3.352,9.215,-0.119,-0.452,5.012
1701.0,2.312,3.352,9.215,-0.119,-0.452,5.012
1704.0,2.286,2.559,8.759,-0.141,-0.423,5.013
1708.0,2.286,2.559,8.759,-0.141,-0.423,5.013
1712.0,2.454,1.693,8.142,-0.18,-0.359,5.013
1716.0,2.454,1.693,8.142,-0.18,-0.359,5.013
1720.0,2.454,1.693,8.142,-0.18,-0.359,5.013
1723.0,2.723,1.056,7.619,-0.216,-0.262,5.013
1727.0,2.723,1.056,7.619,-0.216,-0.262,5.013
1731.0,3.004,0.595,7.144,-0.216,-0.262,5.013
1735.0,3.004,0.595,7.144,-0.259,-0.168,5.013
1739.0,3.004,0.595,7.144,-0.259,-0.168,5.013
1743.0,3.25,-0.01,6.902,-0.319,-0.092,5.013
1746.0,3.25,-0.01,6.902,-0.319,-0.092,5.013
1750.0,3.25,-0.01,6.902,-0.319,-0.092,5.013
1754.0,3.211,-1.162,6.912,-0.417,-0.056,5.013
1758.0,3.211,-1.162,6.912,-0.417,-0.056,5.013
1762.0,3.056,-2.317,7.009,-0.576,-0.089,5.013
1766.0,3.056,-2.317,7.009,-0.576,-0.089,5.013
1770.0,3.056,-2.317,7.009,-0.576,-0.089,5.013
1774.0,2.828,-3.228,6.66,-0.778,-0.148,5.01
1778.0,2.828,-3.228,6.66,-0.778,-0.148,5.01
1782.0,2.274,-4.296,6.241,-1.022,-0.195,4.938
1785.0,2.274,-4.296,6.241,-1.022,-0.195,4.938
1789.0,2.274,-4.296,6.241,-1.022,-0.195,4.938
1793.0,1.546,-5.62,5.738,-1.327,-0.271,4.758
1797.0,1.546,-5.62,5.738,-1.327,-0.271,4.758
1801.0,0.892,-6.601,5.17,-1.691,-0.391,4.489
1805.0,0.892,-6.601,5.17,-1.691,-0.391,4.489
1809.0,0.892,-6.601,5.17,-1.691,-0.391,4.489
1813.0,0.397,-7.184,4.381,-2.081,-0.527,4.149
1817.0,0.397,-7.184,4.381,-2.081,-0.527,4.149
1821.0,0.137,-7.637,3.447,-2.461,-0.67,3.794
1825.0,0.137,-7.637,3.447,-2.461,-0.67,3.794
1828.0,0.137,-7.637,3.447,-2.461,-0.67,3.794
1832.0,0.144,-8.306,2.773,-2.795,-0.83,3.466
1836.0,0.144,-8.306,2.773,-2.795,-0.83,3.466
1840.0,0.507,-9.413,1.935,-2.795,-1.001,3.17
1844.0,0.507,-9.413,1.935,-3.048,-1.001,3.17
1848.0,0.507,-9.413,1.935,-3.048,-1.001,3.17
1852.0,1.027,-10.777,1.044,-3.186,-1.137,2.881
1856.0,1.027,-10.777,1.044,-3.186,-1.137,2.881
1860.0,1.617,-11.889,0.381,-3.186,-1.233,2.571
1864.0,1.617,-11.889,0.381,-3.184,-1.233,2.571
1868.0,1.617,-11.889,0.381,-3.184,-1.233,2.571
1872.0,2.367,-12.611,0.075,-3.034,-1.305,2.269
1876.0,2.367,-12.611,0.075,-3.034,-1.305,2.269
1880.0,3.356,-13.231,0.08,-2.74,-1.344,2.024
1884.0,3.356,-13.231,0.08,-2.74,-1.344,2.024
1888.0,3.356,-13.231,0.08,-2.74,-1.344,2.024
1892.0,4.509,-13.804,0.272,-2.296,-1.345,1.853
1896.0,4.509,-13.804,0.272,-2.296,-1.345,1.853
1900.0,5.806,-14.14,0.478,-1.731,-1.312,1.725
1904.0,5.806,-14.14,0.478,-1.731,-1.312,1.725
1908.0,5.806,-14.14,0.478,-1.731,-1.312,1.725
1912.0,7.217,-14.282,0.745,-1.106,-1.248,1.605
1916.0,7.217,-14.282,0.745,-1.106,-1.248,1.605
1920.0,8.471,-14.202,1.01,-0.489,-1.161,1.47
1924.0,8.471,-14.202,1.01,-0.489,-1.161,1.47
1928.0,8.471,-14.202,1.01,-0.489,-1.161,1.47
1932.0,9.135,-13.739,1.04,0.072,-1.057,1.317
1936.0,9.135,-13.739,1.04,0.072,-1.057,1.317
1940.0,8.859,-12.951,0.808,0.541,-0.939,1.155
1943.0,8.859,-12.951,0.808,0.541,-0.939,1.155
1947.0,8.859,-12.951,0.808,0.541,-0.939,1.155
1951.0,7.878,-11.983,0.373,0.901,-0.819,0.988
1955.0,7.878,-11.983,0.373,0.901,-0.819,0.988
1959.0,6.854,-10.946,-0.002,1.135,-0.714,0.839
1963.0,6.854,-10.946,-0.002,1.135,-0.714,0.839
1967.0,6.854,-10.946,-0.002,1.135,-0.714,0.839
1971.0,6.338,-10.064,-0.236,1.24,-0.614,0.74
1975.0,6.338,-10.064,-0.236,1.24,-0.614,0.74
1979.0,6.315,-9.403,-0.085,1.232,-0.491,0.698
1983.0,6.315,-9.403,-0.085,1.232,-0.491,0.698
1987.0,6.315,-9.403,-0.085,1.232,-0.491,0.698
1991.0,6.491,-8.984,0.387,1.145,-0.351,0.686
1995.0,6.491,-8.984,0.387,1.145,-0.351,0.686
1998.0,6.607,-8.685,0.863,1.018,-0.222,0.668
2002.0,6.607,-8.685,0.863,1.018,-0.222,0.668
2006.0,6.607,-8.685,0.863,1.018,-0.222,0.668
2010.0,6.559,-8.473,1.131,0.873,-0.1,0.641
2014.0,6.559,-8.473,1.131,0.873,-0.1,0.641
2018.0,6.366,-8.279,1.284,0.873,-0.1,0.623
2021.0,6.366,-8.279,1.284,0.732,0.025,0.623
2025.0,6.366,-8.279,1.284,0.732,0.025,0.623
2029.0,6.232,-8.094,1.463,0.612,0.152,0.617
2033.0,6.232,-8.094,1.463,0.612,0.152,0.617
2036.0,6.232,-8.094,1.463,0.612,0.152,0.617
2040.0,6.177,-7.864,1.863,0.525,0.272,0.619
2044.0,6.177,-7.864,1.863,0.525,0.272,0.619
2047.0,6.133,-7.61,2.26,0.525,0.357,0.624
2051.0,6.133,-7.61,2.26,0.476,0.357,0.624
2055.0,6.133,-7.61,2.26,0.476,0.357,0.624
2059.0,5.89,-7.425,2.422,0.463,0.417,0.634
2062.0,5.89,-7.425,2.422,0.463,0.417,0.634
2066.0,5.89,-7.425,2.422,0.463,0.417,0.634
2070.0,5.364,-7.222,2.402,0.474,0.469,0.646
2074.0,5.364,-7.222,2.402,0.474,0.469,0.646
2077.0,4.783,-6.909,2.452,0.493,0.517,0.666
2081.0,4.783,-6.909,2.452,0.493,0.517,0.666
2085.0,4.783,-6.909,2.452,0.493,0.517,0.666
2089.0,4.423,-6.564,2.631,0.512,0.546,0.691
2092.0,4.423,-6.564,2.631,0.512,0.546,0.691
2096.0,4.423,-6.564,2.963,0.512,0.546,0.691
2100.0,4.385,-6.218,2.963,0.533,0.558,0.717
2103.0,4.385,-6.218,2.963,0.533,0.558,0.717
2107.0,4.522,-5.9,3.152,0.559,0.551,0.742
2111.0,4.522,-5.9,3.152,0.559,0.551,0.742
2115.0,4.522,-5.9,3.152,0.559,0.551,0.742
2118.0,4.57,-5.588,3.082,0.592,0.548,0.773
2122.0,4.57,-5.588,3.082,0.592,0.548,0.773
2126.0,4.48,-5.338,2.931,0.592,0.548,0.773
2130.0,4.48,-5.338,2.931,0.63,0.571,0.821
2133.0,4.48,-5.338,2.931,0.63,0.571,0.821
2137.0,4.381,-5.103,2.789,0.676,0.617,0.884
2141.0,4.381,-5.103,2.789,0.676,0.617,0.884
2145.0,4.381,-5.103,2.789,0.676,0.617,0.884
2148.0,4.267,-4.849,2.64,0.731,0.68,0.95
2152.0,4.267,-4.849,2.64,0.731,0.68,0.95
2156.0,4.108,-4.509,2.567,0.731,0.68,1.017
2159.0,4.108,-4.509,2.567,0.792,0.759,1.017
2163.0,4.108,-4.509,2.567,0.792,0.759,1.017
2167.0,3.836,-4.058,2.446,0.863,0.841,1.095
2171.0,3.836,-4.058,2.446,0.863,0.841,1.095
2174.0,3.836,-4.058,2.446,0.863,0.841,1.095
2178.0,3.454,-3.518,2.234,0.941,0.921,1.197
2182.0,3.454,-3.518,2.234,0.941,0.921,1.197
2186.0,3.057,-2.798,1.932,0.941,1.005,1.341
2189.0,3.057,-2.798,1.932,1.027,1.005,1.341
2193.0,3.057,-2.798,1.932,1.027,1.005,1.341
2197.0,2.751,-1.927,1.625,1.123,1.104,1.552
2201.0,2.751,-1.927,1.625,1.123,1.104,1.552
2204.0,2.751,-1.927,1.625,1.123,1.104,1.552
2208.0,2.72,-1.215,1.252,1.229,1.221,1.848
2212.0,2.72,-1.215,1.252,1.229,1.221,1.848
2215.0,2.916,-0.897,1.045,1.343,1.37,2.205
2219.0,2.916,-0.897,1.045,1.343,1.37,2.205
2223.0,2.916,-0.897,1.045,1.343,1.37,2.205
2227.0,2.955,-0.996,1.08,1.461,1.561,2.571
2230.0,2.955,-0.996,1.08,1.461,1.561,2.571
2234.0,2.955,-0.996,1.146,1.461,1.561,2.571
2238.0,2.587,-1.416,1.146,1.576,1.772,2.896
2242.0,2.587,-1.416,1.146,1.576,1.772,2.896
2245.0,1.844,-1.993,1.169,1.687,1.99,3.148
2249.0,1.844,-1.993,1.169,1.687,1.99,3.148
2253.0,1.844,-1.993,1.169,1.687,1.99,3.148
2256.0,0.941,-2.496,1.077,1.798,2.205,3.311
2260.0,0.941,-2.496,1.077,1.798,2.205,3.311
2264.0,0.941,-2.827,0.879,1.798,2.205,3.311
2268.0,0.069,-2.827,0.879,1.91,2.419,3.391
2271.0,0.069,-2.827,0.879,1.91,2.419,3.391
2275.0,-0.772,-2.888,0.732,2.022,2.646,3.409
2279.0,-0.772,-2.888,0.732,2.022,2.646,3.409
2283.0,-0.772,-2.888,0.732,2.022,2.646,3.409
2287.0,-1.627,-2.761,0.388,2.132,2.892,3.401
2290.0,-1.627,-2.761,0.388,2.132,2.892,3.401
2294.0,-2.768,-2.514,0.178,2.132,3.168,3.393
2298.0,-2.768,-2.514,0.178,2.249,3.168,3.393
2302.0,-2.768,-2.514,0.178,2.249,3.168,3.393
2306.0,-3.962,-2.486,0.201,2.391,3.429,3.4
2310.0,-3.962,-2.486,0.201,2.391,3.429,3.4
2313.0,-3.962,-3.006,0.372,2.391,3.429,3.4
2317.0,-4.761,-3.006,0.372,2.581,3.643,3.411
2321.0,-4.761,-3.006,0.372,2.581,3.643,3.411
2325.0,-5.045,-4.021,0.355,2.849,3.823,3.406
2329.0,-5.045,-4.021,0.355,2.849,3.823,3.406
2332.0,-5.045,-4.021,0.355,2.849,3.823,3.406
2336.0,-5.381,-5.216,0.382,3.238,3.991,3.374
2340.0,-5.381,-5.216,0.382,3.238,3.991,3.374
2344.0,-6.385,-6.493,0.528,3.809,4.058,3.248
2348.0,-6.385,-6.493,0.528,3.809,4.058,3.248
2352.0,-6.385,-6.493,0.528,3.809,4.058,3.248
2355.0,-7.552,-7.274,0.36,4.491,3.93,2.982
2359.0,-7.552,-7.274,0.36,4.491,3.93,2.982
2363.0,-8.289,-7.098,-0.282,4.491,3.93,2.637
2367.0,-8.289,-7.098,-0.282,4.953,3.704,2.637
2371.0,-8.289,-7.098,-0.282,4.953,3.704,2.637
2375.0,-8.226,-6.409,-0.522,4.995,3.557,2.292
2379.0,-8.226,-6.409,-0.522,4.995,3.557,2.292
2383.0,-7.649,-5.46,-0.144,4.995,3.557,2.292
2386.0,-7.649,-5.46,-0.144,4.995,3.56,1.978
2390.0,-7.649,-5.46,-0.144,4.995,3.56,1.978
2394.0,-7.107,-4.398,0.788,4.995,3.702,1.721
2398.0,-7.107,-4.398,0.788,4.995,3.702,1.721
2402.0,-7.107,-4.398,2.809,4.995,3.702,1.721
2406.0,-7.267,-3.547,2.809,4.995,3.92,1.507
2410.0,-7.267,-3.547,2.809,4.995,3.92,1.507
2413.0,-8.044,-2.794,4.732,4.995,4.061,1.282
2417.0,-8.044,-2.794,4.732,4.995,4.061,1.282
2421.0,-8.044,-2.794,4.732,4.995,4.061,1.282
2425.0,-9.239,-2.006,5.658,4.995,4.083,1.019
2429.0,-9.239,-2.006,5.658,4.995,4.083,1.019
2432.0,-10.688,-0.974,5.535,4.995,4.06,0.721
2436.0,-10.688,-0.974,5.535,4.995,4.06,0.721
2440.0,-10.688,-0.974,5.535,4.995,4.06,0.721
2444.0,-12.103,-0.145,4.75,4.995,4.078,0.413
2448.0,-12.103,-0.145,4.75,4.995,4.078,0.413
2452.0,-13.278,0.104,3.92,4.995,4.078,0.075
2456.0,-13.278,0.104,3.92,4.995,4.195,0.075
2460.0,-13.278,0.104,3.92,4.995,4.195,0.075
2463.0,-14.536,0.056,3.385,4.995,4.406,-0.319
2467.0,-14.536,0.056,3.385,4.995,4.406,-0.319
2471.0,-14.536,0.022,3.483,4.995,4.406,-0.319
2475.0,-16.049,0.022,3.483,4.995,4.679,-0.761
2479.0,-16.049,0.022,3.483,4.995,4.679,-0.761
2483.0,-17.943,0.26,4.224,4.995,4.934,-1.197
2487.0,-17.943,0.26,4.224,4.995,4.934,-1.197
2491.0,-17.943,0.26,4.891,4.995,4.934,-1.197
2495.0,-19.485,0.514,4.891,4.917,5.015,-1.561
2499.0,-19.485,0.514,4.891,4.917,5.015,-1.561
2503.0,-19.6,0.679,4.342,4.594,5.015,-1.854
2506.0,-19.6,0.679,4.342,4.594,5.015,-1.854
2510.0,-19.6,0.679,4.342,4.594,5.015,-1.854
2514.0,-19.6,1.175,3.371,4.251,5.015,-2.085
2518.0,-19.6,1.175,3.371,4.251,5.015,-2.085
2522.0,-19.6,1.723,2.635,3.939,5.015,-2.211
2526.0,-19.6,1.723,2.635,3.939,5.015,-2.211
2530.0,-19.6,1.723,2.635,3.939,5.015,-2.211
2534.0,-19.6,1.995,2.481,3.695,5.015,-2.243
2538.0,-19.6,1.995,2.481,3.695,5.015,-2.243
2542.0,-19.6,2.244,2.723,3.577,5.015,-2.255
2545.0,-19.6,2.244,2.723,3.577,5.015,-2.255
2549.0,-19.6,2.244,2.723,3.577,5.015,-2.255
2553.0,-19.579,2.617,2.908,3.613,5.015,-2.281
2557.0,-19.579,2.617,2.908,3.613,5.015,-2.281
2561.0,-19.461,3.191,2.701,3.753,5.015,-2.303
2565.0,-19.461,3.191,2.701,3.753,5.015,-2.303
2569.0,-19.461,3.191,2.701,3.753,5.015,-2.303
2573.0,-19.592,3.949,2.459,3.903,5.004,-2.293
2577.0,-19.592,3.949,2.459,3.903,5.004,-2.293
2581.0,-19.6,4.743,2.267,3.992,4.877,-2.231
2585.0,-19.6,4.743,2.267,3.992,4.877,-2.231
2588.0,-19.6,4.743,2.267,3.992,4.877,-2.231
2592.0,-19.6,5.214,2.133,3.99,4.642,-2.118
2596.0,-19.6,5.214,2.133,3.99,4.642,-2.118
2600.0,-19.6,5.332,1.904,3.99,4.368,-1.985
2604.0,-19.6,5.332,1.904,3.881,4.368,-1.985
2608.0,-19.6,5.332,1.904,3.881,4.368,-1.985
2612.0,-19.6,5.334,1.851,3.641,4.073,-1.856
2616.0,-19.6,5.334,1.851,3.641,4.073,-1.856
2620.0,-19.385,5.595,2.109,3.641,4.073,-1.724
2624.0,-19.385,5.595,2.109,3.281,3.762,-1.724
2628.0,-19.385,5.595,2.109,3.281,3.762,-1.724
2631.0,-18.155,6.105,2.378,2.85,3.442,-1.569
2635.0,-18.155,6.105,2.378,2.85,3.442,-1.569
2639.0,-16.707,6.58,2.392,2.85,3.442,-1.569
2643.0,-16.707,6.58,2.392,2.405,3.129,-1.394
2647.0,-16.707,6.58,2.392,2.405,3.129,-1.394
2651.0,-15.591,7.062,2.197,1.99,2.841,-1.234
2655.0,-15.591,7.062,2.197,1.99,2.841,-1.234
2659.0,-15.591,7.168,1.807,1.99,2.841,-1.234
2663.0,-14.919,7.168,1.807,1.618,2.584,-1.12
2667.0,-14.919,7.168,1.807,1.618,2.584,-1.12
2670.0,-14.828,6.904,1.432,1.263,2.347,-1.058
2674.0,-14.828,6.904,1.432,1.263,2.347,-1.058
2678.0,-14.828,6.904,1.113,1.263,2.347,-1.058
2682.0,-15.221,6.512,1.113,0.886,2.116,-1.002
2686.0,-15.221,6.512,1.113,0.886,2.116,-1.002
2690.0,-15.62,5.992,0.904,0.479,1.895,-0.904
2694.0,-15.62,5.992,0.904,0.479,1.895,-0.904
2698.0,-15.62,5.992,0.904,0.479,1.895,-0.904
2702.0,-15.887,5.512,0.903,0.061,1.681,-0.794
2706.0,-15.887,5.512,0.903,0.061,1.681,-0.794
2710.0,-15.838,5.204,0.969,-0.332,1.461,-0.717
2714.0,-15.838,5.204,0.969,-0.332,1.461,-0.717
2718.0,-15.838,5.204,0.969,-0.332,1.461,-0.717
2722.0,-15.349,4.851,1.125,-0.682,1.222,-0.681
2726.0,-15.349,4.851,1.125,-0.682,1.222,-0.681
2729.0,-14.669,4.789,1.26,-0.989,0.971,-0.69
2733.0,-14.669,4.789,1.26,-0.989,0.971,-0.69
2737.0,-14.669,4.789,1.26,-0.989,0.971,-0.69
2741.0,-13.621,4.756,1.361,-1.258,0.734,-0.705
2745.0,-13.621,4.756,1.361,-1.258,0.734,-0.705
2749.0,-12.37,4.687,1.47,-1.498,0.538,-0.709
2753.0,-12.37,4.687,1.47,-1.498,0.538,-0.709
2757.0,-12.37,4.614,1.621,-1.498,0.538,-0.709
2761.0,-11.457,4.614,1.621,-1.72,0.386,-0.68
2765.0,-11.457,4.614,1.621,-1.72,0.386,-0.68
2769.0,-10.585,4.356,1.816,-1.912,0.28,-0.591
2773.0,-10.585,4.356,1.816,-1.912,0.28,-0.591
2777.0,-9.817,4.007,2.018,-1.912,0.28,-0.591
2781.0,-9.817,4.007,2.018,-2.076,0.197,-0.491
2785.0,-9.817,4.007,2.018,-2.076,0.197,-0.491
2789.0,-9.136,3.607,2.145,-2.213,0.124,-0.418
2793.0,-9.136,3.607,2.145,-2.213,0.124,-0.418
2797.0,-9.136,3.206,2.15,-2.213,0.124,-0.418
2801.0,-8.57,3.206,2.15,-2.33,0.061,-0.377
2805.0,-8.57,3.206,2.15,-2.33,0.061,-0.377
2809.0,-8.037,2.834,2.099,-2.435,0.01,-0.362
2813.0,-8.037,2.834,2.099,-2.435,0.01,-0.362
2816.0,-8.037,2.834,2.063,-2.435,0.01,-0.362
2820.0,-7.475,2.472,2.063,-2.522,-0.036,-0.361
2824.0,-7.475,2.472,2.063,-2.522,-0.036,-0.361
2828.0,-6.81,2.09,1.993,-2.591,-0.084,-0.374
2832.0,-6.81,2.09,1.993,-2.591,-0.084,-0.374
2836.0,-6.81,2.09,1.933,-2.591,-0.084,-0.374
2840.0,-6.132,1.773,1.933,-2.638,-0.128,-0.401
2844.0,-6.132,1.773,1.933,-2.638,-0.128,-0.401
2848.0,-5.489,1.452,1.951,-2.664,-0.162,-0.433
2852.0,-5.489,1.452,1.951,-2.664,-0.162,-0.433
2856.0,-4.933,1.141,2.083,-2.664,-0.162,-0.433
2860.0,-4.933,1.141,2.083,-2.667,-0.19,-0.466
2864.0,-4.933,1.141,2.083,-2.667,-0.19,-0.466
2868.0,-4.518,0.816,2.297,-2.642,-0.227,-0.499
2872.0,-4.518,0.816,2.297,-2.642,-0.227,-0.499
2876.0,-4.29,0.528,2.378,-2.642,-0.227,-0.53
2880.0,-4.29,0.528,2.378,-2.582,-0.278,-0.53
2884.0,-4.29,0.528,2.378,-2.582,-0.278,-0.53
2888.0,-4.352,0.319,2.312,-2.487,-0.326,-0.56
2892.0,-4.352,0.319,2.312,-2.487,-0.326,-0.56
2896.0,-4.719,0.141,2.163,-2.487,-0.363,-0.579
2900.0,-4.719,0.141,2.163,-2.362,-0.363,-0.579
2904.0,-4.719,0.141,2.163,-2.362,-0.363,-0.579
2908.0,-5.268,-0.045,1.963,-2.219,-0.401,-0.574
2912.0,-5.268,-0.045,1.963,-2.219,-0.401,-0.574
2916.0,-5.858,-0.204,1.755,-2.069,-0.45,-0.551
2920.0,-5.858,-0.204,1.755,-2.069,-0.45,-0.551
2925.0,-5.858,-0.204,1.755,-2.069,-0.45,-0.551
2929.0,-6.41,-0.331,1.558,-1.914,-0.509,-0.511
2933.0,-6.41,-0.331,1.558,-1.914,-0.509,-0.511
2937.0,-6.805,-0.481,1.446,-1.759,-0.576,-0.461
2941.0,-6.805,-0.481,1.446,-1.759,-0.576,-0.461
2945.0,-6.805,-0.481,1.399,-1.759,-0.576,-0.461
2949.0,-7.012,-0.618,1.399,-1.606,-0.647,-0.409
2953.0,-7.012,-0.618,1.399,-1.606,-0.647,-0.409
2957.0,-7.197,-0.693,1.373,-1.457,-0.713,-0.363
2961.0,-7.197,-0.693,1.373,-1.457,-0.713,-0.363
2965.0,-7.367,-0.72,1.341,-1.457,-0.773,-0.325
2969.0,-7.367,-0.72,1.341,-1.313,-0.773,-0.325
2974.0,-7.367,-0.72,1.341,-1.313,-0.773,-0.325
2978.0,-7.551,-0.736,1.277,-1.178,-0.822,-0.291
2982.0,-7.551,-0.736,1.277,-1.178,-0.822,-0.291
2986.0,-7.709,-0.675,1.242,-1.055,-0.864,-0.262
2990.0,-7.709,-0.675,1.242,-1.055,-0.864,-0.262
2994.0,-7.709,-0.675,1.242,-1.055,-0.864,-0.262
2998.0,-7.842,-0.572,1.169,-0.949,-0.896,-0.237
