deltaTime,Acc_X,Acc_Y,Acc_Z,Gyro_X,Gyro_Y,Gyro_Z
0.0,-9.063,-3.385,2.724,0.729,-0.18,-0.632
3.0,-9.022,-3.559,2.593,0.692,-0.214,-0.64
6.0,-9.022,-3.559,2.593,0.692,-0.214,-0.64
9.0,-9.022,-3.559,2.593,0.692,-0.214,-0.64
12.0,-9.022,-3.671,2.545,0.692,-0.214,-0.64
15.0,-9.125,-3.671,2.545,0.663,-0.266,-0.646
18.0,-9.125,-3.671,2.545,0.663,-0.266,-0.646
21.0,-9.125,-3.671,2.545,0.663,-0.266,-0.646
24.0,-9.129,-3.672,2.505,0.643,-0.33,-0.663
27.0,-9.129,-3.672,2.505,0.643,-0.33,-0.663
30.0,-9.129,-3.672,2.505,0.643,-0.33,-0.663
33.0,-8.889,-3.737,2.285,0.616,-0.38,-0.684
37.0,-8.889,-3.737,2.285,0.616,-0.38,-0.684
41.0,-8.889,-3.737,2.285,0.616,-0.38,-0.684
45.0,-8.551,-3.986,2.101,0.61,-0.393,-0.7
49.0,-8.551,-3.986,2.101,0.61,-0.393,-0.7
52.0,-8.353,-4.169,2.218,0.658,-0.373,-0.715
56.0,-8.353,-4.169,2.218,0.658,-0.373,-0.715
60.0,-8.353,-4.169,2.218,0.658,-0.373,-0.715
64.0,-8.167,-3.945,2.367,0.739,-0.344,-0.745
68.0,-8.167,-3.945,2.367,0.739,-0.344,-0.745
72.0,-7.99,-3.528,2.524,0.739,-0.344,-0.745
75.0,-7.99,-3.528,2.524,0.801,-0.305,-0.767
79.0,-7.99,-3.528,2.524,0.801,-0.305,-0.767
83.0,-8.02,-3.273,2.682,0.82,-0.263,-0.766
87.0,-8.02,-3.273,2.682,0.82,-0.263,-0.766
91.0,-8.02,-3.273,2.682,0.82,-0.263,-0.766
94.0,-8.267,-3.458,3.124,0.808,-0.228,-0.756
98.0,-8.267,-3.458,3.124,0.808,-0.228,-0.756
102.0,-8.429,-3.664,3.632,0.806,-0.218,-0.745
106.0,-8.429,-3.664,3.632,0.806,-0.218,-0.745
110.0,-8.429,-3.664,3.632,0.806,-0.218,-0.745
114.0,-8.703,-3.928,4.226,0.812,-0.23,-0.737
118.0,-8.703,-3.928,4.226,0.812,-0.23,-0.737
122.0,-8.949,-4.133,4.695,0.838,-0.283,-0.724
126.0,-8.949,-4.133,4.695,0.838,-0.283,-0.724
129.0,-8.949,-4.133,4.695,0.838,-0.283,-0.724
133.0,-9.123,-4.341,4.921,0.878,-0.354,-0.709
137.0,-9.123,-4.341,4.921,0.878,-0.354,-0.709
141.0,-9.36,-4.38,5.063,0.927,-0.418,-0.695
145.0,-9.36,-4.38,5.063,0.927,-0.418,-0.695
149.0,-9.36,-4.38,5.063,0.927,-0.418,-0.695
153.0,-9.718,-4.282,5.421,0.965,-0.46,-0.681
157.0,-9.718,-4.282,5.421,0.965,-0.46,-0.681
161.0,-9.993,-4.226,5.98,0.965,-0.484,-0.666
165.0,-9.993,-4.226,5.98,1.001,-0.484,-0.666
168.0,-9.993,-4.226,5.98,1.001,-0.484,-0.666
172.0,-9.892,-4.637,6.951,1.081,-0.486,-0.649
176.0,-9.892,-4.637,6.951,1.081,-0.486,-0.649
180.0,-9.907,-5.445,7.919,1.081,-0.486,-0.649
184.0,-9.907,-5.445,7.919,1.283,-0.5,-0.647
188.0,-9.907,-5.445,7.919,1.283,-0.5,-0.647
192.0,-10.659,-5.995,8.896,1.654,-0.548,-0.667
196.0,-10.659,-5.995,8.896,1.654,-0.548,-0.667
200.0,-11.695,-6.711,9.637,1.654,-0.548,-0.667
204.0,-11.695,-6.711,9.637,2.108,-0.632,-0.71
208.0,-11.695,-6.711,9.637,2.108,-0.632,-0.71
212.0,-12.264,-6.324,9.958,2.635,-0.786,-0.722
216.0,-12.264,-6.324,9.958,2.635,-0.786,-0.722
220.0,-13.13,-5.347,9.407,2.635,-0.786,-0.76
224.0,-13.13,-5.347,9.407,3.028,-1.033,-0.76
228.0,-13.13,-5.347,9.407,3.028,-1.033,-0.76
232.0,-13.913,-4.536,8.62,3.167,-1.452,-0.806
236.0,-13.913,-4.536,8.62,3.167,-1.452,-0.806
240.0,-13.425,-4.009,8.315,3.154,-1.916,-0.782
244.0,-13.425,-4.009,8.315,3.154,-1.916,-0.782
248.0,-13.425,-4.009,8.315,3.154,-1.916,-0.782
252.0,-12.186,-3.637,8.569,3.099,-2.235,-0.724
256.0,-12.186,-3.637,8.569,3.099,-2.235,-0.724
260.0,-11.02,-3.453,8.771,2.988,-2.393,-0.673
264.0,-11.02,-3.453,8.771,2.988,-2.393,-0.673
268.0,-11.02,-3.453,8.771,2.988,-2.393,-0.673
272.0,-10.363,-3.385,9.091,2.822,-2.47,-0.639
276.0,-10.363,-3.385,9.091,2.822,-2.47,-0.639
280.0,-10.053,-3.431,9.484,2.622,-2.552,-0.641
284.0,-10.053,-3.431,9.484,2.622,-2.552,-0.641
288.0,-10.053,-3.431,9.484,2.622,-2.552,-0.641
292.0,-9.857,-3.483,9.781,2.404,-2.67,-0.679
296.0,-9.857,-3.483,9.781,2.404,-2.67,-0.679
300.0,-9.618,-3.611,10.034,2.166,-2.803,-0.74
304.0,-9.618,-3.611,10.034,2.166,-2.803,-0.74
308.0,-9.618,-3.611,10.034,2.166,-2.803,-0.74
312.0,-9.265,-3.995,10.029,1.909,-2.912,-0.813
316.0,-9.265,-3.995,10.029,1.909,-2.912,-0.813
320.0,-8.987,-4.694,10.272,1.663,-2.984,-0.897
324.0,-8.987,-4.694,10.272,1.663,-2.984,-0.897
328.0,-8.987,-4.694,10.272,1.663,-2.984,-0.897
332.0,-8.841,-5.603,10.506,1.471,-3.057,-1.009
335.0,-8.841,-5.603,10.506,1.471,-3.057,-1.009
339.0,-8.839,-6.33,10.698,1.353,-3.129,-1.144
343.0,-8.839,-6.33,10.698,1.353,-3.129,-1.144
347.0,-8.839,-6.33,10.685,1.353,-3.129,-1.144
351.0,-8.843,-7.04,10.685,1.308,-3.202,-1.282
355.0,-8.843,-7.04,10.685,1.308,-3.202,-1.282
359.0,-8.676,-7.828,10.47,1.344,-3.277,-1.435
363.0,-8.676,-7.828,10.47,1.344,-3.277,-1.435
367.0,-8.676,-8.481,10.092,1.344,-3.277,-1.435
371.0,-8.358,-8.481,10.092,1.475,-3.349,-1.622
375.0,-8.358,-8.481,10.092,1.475,-3.349,-1.622
379.0,-7.966,-9.248,9.504,1.694,-3.396,-1.826
383.0,-7.966,-9.248,9.504,1.694,-3.396,-1.826
387.0,-7.966,-10.246,8.94,1.694,-3.396,-1.826
391.0,-7.598,-10.246,8.94,2.006,-3.39,-2.046
395.0,-7.598,-10.246,8.94,2.006,-3.39,-2.046
399.0,-7.437,-11.074,8.508,2.427,-3.328,-2.278
403.0,-7.437,-11.074,8.508,2.427,-3.328,-2.278
407.0,-7.363,-11.929,8.113,2.427,-3.328,-2.278
411.0,-7.363,-11.929,8.113,2.953,-3.245,-2.522
415.0,-7.363,-11.929,8.113,2.953,-3.245,-2.522
419.0,-7.261,-12.467,7.627,3.555,-3.148,-2.792
423.0,-7.261,-12.467,7.627,3.555,-3.148,-2.792
427.0,-7.125,-12.406,7.236,3.555,-3.148,-3.058
431.0,-7.125,-12.406,7.236,4.194,-3.02,-3.058
435.0,-7.125,-12.406,7.236,4.194,-3.02,-3.058
439.0,-7.279,-11.996,7.047,4.783,-2.893,-3.278
443.0,-7.279,-11.996,7.047,4.783,-2.893,-3.278
447.0,-7.542,-11.315,6.651,4.992,-2.819,-3.432
451.0,-7.542,-11.315,6.651,4.992,-2.819,-3.432
455.0,-7.542,-11.315,6.651,4.992,-2.819,-3.432
459.0,-7.603,-10.564,5.911,4.995,-2.826,-3.524
463.0,-7.603,-10.564,5.911,4.995,-2.826,-3.524
467.0,-7.262,-9.449,4.918,4.995,-2.88,-3.571
471.0,-7.262,-9.449,4.918,4.995,-2.88,-3.571
475.0,-7.262,-9.449,4.918,4.995,-2.88,-3.571
479.0,-6.677,-8.367,4.007,4.995,-2.945,-3.59
483.0,-6.677,-8.367,4.007,4.995,-2.945,-3.59
487.0,-6.112,-7.173,3.395,4.995,-3.011,-3.603
491.0,-6.112,-7.173,3.395,4.995,-3.011,-3.603
494.0,-6.112,-7.173,3.395,4.995,-3.011,-3.603
498.0,-5.792,-5.938,3.379,4.995,-3.084,-3.616
502.0,-5.792,-5.938,3.379,4.995,-3.084,-3.616
506.0,-5.649,-4.445,3.175,4.995,-3.184,-3.621
510.0,-5.649,-4.445,3.175,4.995,-3.184,-3.621
514.0,-5.649,-4.445,3.175,4.995,-3.184,-3.621
518.0,-5.405,-2.855,3.01,4.995,-3.295,-3.59
522.0,-5.405,-2.855,3.01,4.995,-3.295,-3.59
526.0,-4.991,-1.485,2.858,4.995,-3.295,-3.59
530.0,-4.991,-1.485,2.858,4.995,-3.406,-3.53
533.0,-4.991,-1.485,2.858,4.995,-3.406,-3.53
537.0,-4.437,-0.377,2.611,4.995,-3.497,-3.473
541.0,-4.437,-0.377,2.611,4.995,-3.497,-3.473
545.0,-3.949,0.604,2.383,4.995,-3.497,-3.473
549.0,-3.949,0.604,2.383,4.859,-3.541,-3.442
553.0,-3.949,0.604,2.383,4.859,-3.541,-3.442
557.0,-3.572,1.826,2.371,4.333,-3.544,-3.437
560.0,-3.572,1.826,2.371,4.333,-3.544,-3.437
564.0,-3.572,1.826,2.371,4.333,-3.544,-3.437
568.0,-3.23,3.152,2.398,3.745,-3.525,-3.415
572.0,-3.23,3.152,2.398,3.745,-3.525,-3.415
576.0,-2.879,4.509,2.5,3.2,-3.473,-3.318
580.0,-2.879,4.509,2.5,3.2,-3.473,-3.318
583.0,-2.879,4.509,2.5,3.2,-3.473,-3.318
587.0,-2.8,5.818,2.687,2.732,-3.387,-3.119
591.0,-2.8,5.818,2.687,2.732,-3.387,-3.119
595.0,-2.791,6.797,2.937,2.732,-3.387,-2.831
599.0,-2.791,6.797,2.937,2.355,-3.296,-2.831
603.0,-2.791,6.797,2.937,2.355,-3.296,-2.831
606.0,-2.835,7.545,3.184,2.056,-3.217,-2.476
610.0,-2.835,7.545,3.184,2.056,-3.217,-2.476
614.0,-2.835,7.545,3.38,2.056,-3.217,-2.476
618.0,-2.657,8.006,3.38,1.804,-3.133,-2.074
622.0,-2.657,8.006,3.38,1.804,-3.133,-2.074
625.0,-2.309,8.183,3.715,1.575,-3.029,-1.666
629.0,-2.309,8.183,3.715,1.575,-3.029,-1.666
633.0,-2.309,8.183,3.715,1.575,-3.029,-1.666
637.0,-2.029,8.499,3.948,1.359,-2.914,-1.303
641.0,-2.029,8.499,3.948,1.359,-2.914,-1.303
645.0,-1.859,9.17,4.202,1.146,-2.776,-0.994
648.0,-1.859,9.17,4.202,1.146,-2.776,-0.994
652.0,-1.859,9.17,4.202,1.146,-2.776,-0.994
656.0,-1.659,10.007,4.573,0.936,-2.622,-0.698
660.0,-1.659,10.007,4.573,0.936,-2.622,-0.698
664.0,-1.242,10.786,5.061,0.936,-2.622,-0.698
668.0,-1.242,10.786,5.061,0.74,-2.466,-0.396
672.0,-1.242,10.786,5.061,0.74,-2.466,-0.396
676.0,-0.8,11.393,5.658,0.566,-2.301,-0.071
679.0,-0.8,11.393,5.658,0.566,-2.301,-0.071
683.0,-0.8,11.63,6.306,0.566,-2.301,-0.071
687.0,-0.561,11.63,6.306,0.416,-2.118,0.274
691.0,-0.561,11.63,6.306,0.416,-2.118,0.274
695.0,-0.451,11.547,6.788,0.309,-1.94,0.583
699.0,-0.451,11.547,6.788,0.309,-1.94,0.583
703.0,-0.451,11.547,6.788,0.309,-1.94,0.583
706.0,-0.17,11.328,7.131,0.253,-1.786,0.828
710.0,-0.17,11.328,7.131,0.253,-1.786,0.828
714.0,0.34,10.965,7.586,0.251,-1.66,1.008
718.0,0.34,10.965,7.586,0.251,-1.66,1.008
721.0,0.34,10.965,7.586,0.251,-1.66,1.008
725.0,0.61,10.821,7.936,0.329,-1.561,1.092
729.0,0.61,10.821,7.936,0.329,-1.561,1.092
733.0,0.61,11.121,8.231,0.329,-1.561,1.092
736.0,0.495,11.121,8.231,0.498,-1.48,1.078
740.0,0.495,11.121,8.231,0.498,-1.48,1.078
744.0,0.334,11.888,8.557,0.755,-1.402,1.017
748.0,0.334,11.888,8.557,0.755,-1.402,1.017
751.0,0.334,11.888,8.557,0.755,-1.402,1.017
755.0,0.316,12.933,8.814,1.073,-1.306,1.015
759.0,0.316,12.933,8.814,1.073,-1.306,1.015
762.0,0.367,13.731,8.947,1.073,-1.306,1.015
766.0,0.367,13.731,8.947,1.389,-1.175,1.177
770.0,0.367,13.731,8.947,1.389,-1.175,1.177
774.0,0.203,14.185,9.02,1.656,-1.023,1.483
777.0,0.203,14.185,9.02,1.656,-1.023,1.483
781.0,0.203,14.185,9.02,1.656,-1.023,1.483
785.0,-0.1,14.384,9.066,1.862,-0.89,1.861
789.0,-0.1,14.384,9.066,1.862,-0.89,1.861
793.0,-0.374,14.533,9.024,1.862,-0.785,2.267
796.0,-0.374,14.533,9.024,1.99,-0.785,2.267
800.0,-0.374,14.533,9.024,1.99,-0.785,2.267
804.0,-0.706,14.611,9.144,2.034,-0.701,2.685
808.0,-0.706,14.611,9.144,2.034,-0.701,2.685
812.0,-0.706,14.812,9.283,2.034,-0.701,2.685
815.0,-0.957,14.812,9.283,2.002,-0.639,3.091
819.0,-0.957,14.812,9.283,2.002,-0.639,3.091
823.0,-1.142,15.044,9.246,1.905,-0.601,3.488
827.0,-1.142,15.044,9.246,1.905,-0.601,3.488
831.0,-1.142,15.044,9.246,1.905,-0.601,3.488
835.0,-1.281,15.07,9.149,1.745,-0.592,3.901
838.0,-1.281,15.07,9.149,1.745,-0.592,3.901
842.0,-1.379,14.696,8.883,1.515,-0.628,4.33
846.0,-1.379,14.696,8.883,1.515,-0.628,4.33
850.0,-1.379,14.696,8.883,1.515,-0.628,4.33
854.0,-1.491,13.819,8.198,1.206,-0.695,4.74
857.0,-1.491,13.819,8.198,1.206,-0.695,4.74
861.0,-1.476,12.72,7.483,1.206,-0.695,4.74
865.0,-1.476,12.72,7.483,0.828,-0.758,4.99
869.0,-1.476,12.72,7.483,0.828,-0.758,4.99
873.0,-1.43,11.661,6.931,0.421,-0.814,5.013
877.0,-1.43,11.661,6.931,0.421,-0.814,5.013
880.0,-1.43,11.661,6.931,0.421,-0.814,5.013
884.0,-1.378,10.509,6.234,0.023,-0.874,5.013
888.0,-1.378,10.509,6.234,0.023,-0.874,5.013
892.0,-1.359,9.402,5.727,-0.346,-0.922,5.013
896.0,-1.359,9.402,5.727,-0.346,-0.922,5.013
899.0,-1.359,9.402,5.727,-0.346,-0.922,5.013
903.0,-1.322,8.249,5.39,-0.68,-0.955,5.013
907.0,-1.322,8.249,5.39,-0.68,-0.955,5.013
911.0,-1.384,7.286,5.167,-0.68,-0.971,5.013
915.0,-1.384,7.286,5.167,-0.968,-0.971,5.013
919.0,-1.384,7.286,5.167,-0.968,-0.971,5.013
922.0,-1.45,6.397,5.025,-1.219,-0.967,5.013
926.0,-1.45,6.397,5.025,-1.219,-0.967,5.013
930.0,-1.45,6.397,5.114,-1.219,-0.967,5.013
934.0,-1.602,5.623,5.114,-1.437,-0.945,5.013
938.0,-1.602,5.623,5.114,-1.437,-0.945,5.013
941.0,-1.891,4.357,5.474,-1.627,-0.931,5.013
945.0,-1.891,4.357,5.474,-1.627,-0.931,5.013
949.0,-1.891,4.357,5.474,-1.627,-0.931,5.013
953.0,-2.182,2.553,5.859,-1.803,-0.961,5.013
957.0,-2.182,2.553,5.859,-1.803,-0.961,5.013
961.0,-2.291,1.197,5.914,-1.946,-1.018,5.013
964.0,-2.291,1.197,5.914,-1.946,-1.018,5.013
968.0,-2.291,1.197,5.914,-1.946,-1.018,5.013
972.0,-2.247,0.048,5.172,-2.045,-1.041,5.013
976.0,-2.247,0.048,5.172,-2.045,-1.041,5.013
980.0,-2.004,-0.765,4.016,-2.045,-1.041,5.013
984.0,-2.004,-0.765,4.016,-2.129,-1.001,5.013
987.0,-2.004,-0.765,4.016,-2.129,-1.001,5.013
991.0,-1.45,-1.448,3.035,-2.209,-0.906,5.011
995.0,-1.45,-1.448,3.035,-2.209,-0.906,5.011
999.0,-1.45,-2.072,2.624,-2.209,-0.906,5.011
1003.0,-0.891,-2.072,2.624,-2.262,-0.775,4.956
1007.0,-0.891,-2.072,2.624,-2.262,-0.775,4.956
1011.0,-0.836,-3.16,3.123,-2.286,-0.639,4.826
1015.0,-0.836,-3.16,3.123,-2.286,-0.639,4.826
1019.0,-1.387,-4.721,3.683,-2.286,-0.639,4.826
1023.0,-1.387,-4.721,3.683,-2.304,-0.554,4.649
1027.0,-1.387,-4.721,3.683,-2.304,-0.554,4.649
1031.0,-2.23,-5.928,3.389,-2.337,-0.477,4.417
1035.0,-2.23,-5.928,3.389,-2.337,-0.477,4.417
1039.0,-2.862,-7.479,3.367,-2.337,-0.477,4.156
1043.0,-2.862,-7.479,3.367,-2.364,-0.342,4.156
1047.0,-2.862,-7.479,3.367,-2.364,-0.342,4.156
1051.0,-3.21,-9.114,3.339,-2.321,-0.198,3.87
1055.0,-3.21,-9.114,3.339,-2.321,-0.198,3.87
1059.0,-3.266,-10.176,3.027,-2.321,-0.091,3.576
1063.0,-3.266,-10.176,3.027,-2.203,-0.091,3.576
1067.0,-3.266,-10.176,3.027,-2.203,-0.091,3.576
1071.0,-3.072,-10.85,2.83,-2.049,-0.049,3.276
1075.0,-3.072,-10.85,2.83,-2.049,-0.049,3.276
1079.0,-2.46,-11.165,2.405,-1.891,-0.084,2.961
1083.0,-2.46,-11.165,2.405,-1.891,-0.084,2.961
1088.0,-2.46,-11.165,2.405,-1.891,-0.084,2.961
1092.0,-1.515,-11.282,1.78,-1.718,-0.158,2.649
1096.0,-1.515,-11.282,1.78,-1.718,-0.158,2.649
1100.0,-0.15,-11.582,1.563,-1.533,-0.244,2.348
1104.0,-0.15,-11.582,1.563,-1.533,-0.244,2.348
1108.0,1.5,-11.936,1.425,-1.533,-0.244,2.348
1112.0,1.5,-11.936,1.425,-1.293,-0.342,2.066
1116.0,1.5,-11.936,1.425,-1.293,-0.342,2.066
1120.0,3.119,-12.023,1.355,-0.978,-0.429,1.823
1124.0,3.119,-12.023,1.355,-0.978,-0.429,1.823
1128.0,4.519,-11.855,1.547,-0.978,-0.429,1.632
1132.0,4.519,-11.855,1.547,-0.636,-0.486,1.632
1136.0,4.519,-11.855,1.547,-0.636,-0.486,1.632
1140.0,5.711,-11.558,1.938,-0.28,-0.517,1.493
1144.0,5.711,-11.558,1.938,-0.28,-0.517,1.493
1148.0,6.601,-11.088,2.249,-0.28,-0.524,1.389
1152.0,6.601,-11.088,2.249,0.091,-0.524,1.389
1156.0,6.601,-11.088,2.249,0.091,-0.524,1.389
1160.0,7.344,-10.501,2.317,0.44,-0.526,1.318
1164.0,7.344,-10.501,2.317,0.44,-0.526,1.318
1168.0,8.133,-9.868,2.174,0.44,-0.537,1.273
1171.0,8.133,-9.868,2.174,0.722,-0.537,1.273
1175.0,8.133,-9.868,2.174,0.722,-0.537,1.273
1179.0,9.08,-9.297,1.933,0.926,-0.519,1.25
1183.0,9.08,-9.297,1.933,0.926,-0.519,1.25
1187.0,9.08,-9.297,1.929,0.926,-0.519,1.25
1190.0,9.982,-8.797,1.929,1.065,-0.456,1.244
1194.0,9.982,-8.797,1.929,1.065,-0.456,1.244
1198.0,10.62,-8.316,2.176,1.157,-0.371,1.241
1202.0,10.62,-8.316,2.176,1.157,-0.371,1.241
1206.0,10.62,-8.316,2.176,1.157,-0.371,1.241
1210.0,10.799,-7.725,2.376,1.218,-0.282,1.235
1214.0,10.799,-7.725,2.376,1.218,-0.282,1.235
1218.0,10.64,-7.254,2.603,1.248,-0.196,1.239
1222.0,10.64,-7.254,2.603,1.248,-0.196,1.239
1225.0,10.64,-7.254,2.603,1.248,-0.196,1.239
1229.0,10.318,-6.992,2.79,1.245,-0.13,1.263
1233.0,10.318,-6.992,2.79,1.245,-0.13,1.263
1237.0,9.85,-6.863,2.955,1.213,-0.082,1.294
1241.0,9.85,-6.863,2.955,1.213,-0.082,1.294
1245.0,9.85,-6.863,2.955,1.213,-0.082,1.294
1249.0,9.255,-6.82,3.111,1.157,-0.037,1.315
1252.0,9.255,-6.82,3.111,1.157,-0.037,1.315
1256.0,8.333,-6.715,3.202,1.157,-0.037,1.318
1260.0,8.333,-6.715,3.202,1.094,-0.002,1.318
1264.0,8.333,-6.715,3.202,1.094,-0.002,1.318
1268.0,7.446,-6.773,3.367,1.025,0.021,1.303
1271.0,7.446,-6.773,3.367,1.025,0.021,1.303
1275.0,7.446,-6.773,3.367,1.025,0.021,1.303
1279.0,6.806,-6.796,3.543,0.955,0.025,1.256
1283.0,6.806,-6.796,3.543,0.955,0.025,1.256
1286.0,6.164,-6.611,3.512,0.889,0.019,1.174
1290.0,6.164,-6.611,3.512,0.889,0.019,1.174
1294.0,6.164,-6.611,3.512,0.889,0.019,1.174
1298.0,5.663,-6.176,3.501,0.827,0.015,1.074
1301.0,5.663,-6.176,3.501,0.827,0.015,1.074
1305.0,5.663,-6.176,3.315,0.827,0.015,1.074
1309.0,5.238,-5.57,3.315,0.773,0.023,0.985
1312.0,5.238,-5.57,3.315,0.773,0.023,0.985
1316.0,4.848,-4.821,3.294,0.741,0.064,0.931
1320.0,4.848,-4.821,3.294,0.741,0.064,0.931
1324.0,4.848,-4.821,3.294,0.741,0.064,0.931
1327.0,4.58,-3.919,3.296,0.742,0.119,0.934
1331.0,4.58,-3.919,3.296,0.742,0.119,0.934
1335.0,4.58,-2.902,3.249,0.742,0.119,0.934
1339.0,4.473,-2.902,3.249,0.781,0.18,1.019
1342.0,4.473,-2.902,3.249,0.781,0.18,1.019
1346.0,4.662,-1.944,3.109,0.869,0.254,1.206
1350.0,4.662,-1.944,3.109,0.869,0.254,1.206
1354.0,4.662,-1.944,3.109,0.869,0.254,1.206
1357.0,5.003,-1.014,3.143,1.003,0.352,1.489
1361.0,5.003,-1.014,3.143,1.003,0.352,1.489
1365.0,5.327,-0.342,3.208,1.003,0.352,1.489
1368.0,5.327,-0.342,3.208,1.178,0.466,1.845
1372.0,5.327,-0.342,3.208,1.178,0.466,1.845
1376.0,5.315,-0.135,3.366,1.371,0.579,2.241
1380.0,5.315,-0.135,3.366,1.371,0.579,2.241
1383.0,5.315,-0.135,3.366,1.371,0.579,2.241
1387.0,4.792,-0.348,3.426,1.552,0.682,2.621
1391.0,4.792,-0.348,3.426,1.552,0.682,2.621
1395.0,3.936,-0.76,3.332,1.552,0.794,2.931
1398.0,3.936,-0.76,3.332,1.692,0.794,2.931
1402.0,3.936,-0.76,3.332,1.692,0.794,2.931
1406.0,3.074,-1.168,3.123,1.769,0.927,3.155
1410.0,3.074,-1.168,3.123,1.769,0.927,3.155
1413.0,3.074,-1.168,3.123,1.769,0.927,3.155
1417.0,2.308,-1.411,2.704,1.779,1.098,3.292
1421.0,2.308,-1.411,2.704,1.779,1.098,3.292
1424.0,1.482,-1.475,2.329,1.721,1.323,3.361
1428.0,1.482,-1.475,2.329,1.721,1.323,3.361
1432.0,1.482,-1.475,2.329,1.721,1.323,3.361
1436.0,0.677,-1.451,1.887,1.601,1.585,3.385
1439.0,0.677,-1.451,1.887,1.601,1.585,3.385
1443.0,0.677,-1.451,1.442,1.601,1.585,3.385
1447.0,-0.22,-1.412,1.442,1.427,1.878,3.376
1451.0,-0.22,-1.412,1.442,1.427,1.878,3.376
1454.0,-1.133,-1.515,1.275,1.209,2.206,3.334
1458.0,-1.133,-1.515,1.275,1.209,2.206,3.334
1462.0,-1.133,-1.515,1.275,1.209,2.206,3.334
1466.0,-2.025,-1.79,1.637,0.965,2.528,3.266
1470.0,-2.025,-1.79,1.637,0.965,2.528,3.266
1474.0,-2.746,-2.52,2.112,0.965,2.786,3.181
1477.0,-2.746,-2.52,2.112,0.739,2.786,3.181
1481.0,-2.746,-2.52,2.112,0.739,2.786,3.181
1485.0,-3.732,-3.196,2.831,0.564,2.984,3.06
1489.0,-3.732,-3.196,2.831,0.564,2.984,3.06
1493.0,-3.732,-3.779,3.449,0.564,2.984,3.06
1497.0,-4.851,-3.779,3.449,0.454,3.088,2.923
1500.0,-4.851,-3.779,3.449,0.454,3.088,2.923
1504.0,-5.816,-4.275,3.636,0.393,3.097,2.801
1508.0,-5.816,-4.275,3.636,0.393,3.097,2.801
1512.0,-5.816,-4.275,3.636,0.393,3.097,2.801
1516.0,-6.305,-4.88,3.705,0.349,3.068,2.703
1519.0,-6.305,-4.88,3.705,0.349,3.068,2.703
1523.0,-6.044,-5.757,3.357,0.325,3.045,2.643
1527.0,-6.044,-5.757,3.357,0.325,3.045,2.643
1531.0,-6.044,-5.757,3.357,0.325,3.045,2.643
1535.0,-5.456,-6.524,2.691,0.343,3.111,2.612
1539.0,-5.456,-6.524,2.691,0.343,3.111,2.612
1542.0,-4.877,-7.248,2.316,0.343,3.111,2.612
1546.0,-4.877,-7.248,2.316,0.437,3.31,2.61
1550.0,-4.877,-7.248,2.316,0.437,3.31,2.61
1554.0,-4.738,-7.962,2.991,0.654,3.583,2.619
1558.0,-4.738,-7.962,2.991,0.654,3.583,2.619
1561.0,-4.738,-7.962,2.991,0.654,3.583,2.619
1565.0,-5.049,-8.41,3.786,1.021,3.804,2.615
1569.0,-5.049,-8.41,3.786,1.021,3.804,2.615
1573.0,-5.779,-8.38,4.576,1.497,3.919,2.591
1577.0,-5.779,-8.38,4.576,1.497,3.919,2.591
1581.0,-5.779,-8.38,4.576,1.497,3.919,2.591
1584.0,-6.205,-7.805,3.93,1.976,3.951,2.577
1588.0,-6.205,-7.805,3.93,1.976,3.951,2.577
1592.0,-6.169,-7.299,2.539,1.976,4.068,2.622
1596.0,-6.169,-7.299,2.539,2.384,4.068,2.622
1600.0,-6.169,-7.299,2.539,2.384,4.068,2.622
1603.0,-5.967,-7.161,1.308,2.726,4.376,2.713
1607.0,-5.967,-7.161,1.308,2.726,4.376,2.713
1611.0,-5.967,-7.161,1.013,2.726,4.376,2.713
1615.0,-5.894,-7.408,1.013,3.068,4.821,2.785
1619.0,-5.894,-7.408,1.013,3.068,4.821,2.785
1623.0,-6.144,-7.831,1.668,3.472,5.013,2.774
1626.0,-6.144,-7.831,1.668,3.472,5.013,2.774
1630.0,-6.144,-7.831,1.668,3.472,5.013,2.774
1634.0,-6.909,-8.088,2.773,3.967,5.015,2.65
1638.0,-6.909,-8.088,2.773,3.967,5.015,2.65
1642.0,-8.491,-8.032,4.987,4.516,5.015,2.423
1645.0,-8.491,-8.032,4.987,4.516,5.015,2.423
1649.0,-8.491,-8.032,4.987,4.516,5.015,2.423
1653.0,-10.244,-7.465,7.223,4.932,5.015,2.095
1657.0,-10.244,-7.465,7.223,4.932,5.015,2.095
1661.0,-11.044,-6.162,6.262,4.932,5.015,1.717
1665.0,-11.044,-6.162,6.262,4.995,5.015,1.717
1669.0,-11.044,-6.162,6.262,4.995,5.015,1.717
1673.0,-11.485,-4.256,3.721,4.995,5.015,1.396
1677.0,-11.485,-4.256,3.721,4.995,5.015,1.396
1680.0,-11.781,-2.459,1.451,4.995,5.015,1.396
1684.0,-11.781,-2.459,1.451,4.995,5.015,1.203
1688.0,-11.781,-2.459,1.451,4.995,5.015,1.203
1692.0,-11.713,-1.81,0.292,4.989,5.015,1.11
1696.0,-11.713,-1.81,0.292,4.989,5.015,1.11
1700.0,-11.713,-1.946,0.412,4.989,5.015,1.11
1704.0,-11.707,-1.946,0.412,4.826,5.015,0.988
1708.0,-11.707,-1.946,0.412,4.826,5.015,0.988
1712.0,-12.205,-2.211,1.381,4.513,5.015,0.748
1716.0,-12.205,-2.211,1.381,4.513,5.015,0.748
1720.0,-12.205,-2.211,2.519,4.513,5.015,0.748
1723.0,-13.163,-2.38,2.519,4.258,5.015,0.417
1727.0,-13.163,-2.38,2.519,4.258,5.015,0.417
1731.0,-14.441,-2.383,3.381,4.098,5.015,0.061
1735.0,-14.441,-2.383,3.381,4.098,5.015,0.061
1739.0,-14.441,-2.383,3.381,4.098,5.015,0.061
1743.0,-15.934,-2.307,4.178,4.038,5.015,-0.26
1747.0,-15.934,-2.307,4.178,4.038,5.015,-0.26
1751.0,-17.587,-1.906,4.825,4.059,5.015,-0.522
1755.0,-17.587,-1.906,4.825,4.059,5.015,-0.522
1759.0,-17.587,-1.906,4.825,4.059,5.015,-0.522
1763.0,-19.088,-1.217,5.041,4.115,5.015,-0.705
1767.0,-19.088,-1.217,5.041,4.115,5.015,-0.705
1771.0,-19.6,-0.435,5.004,4.162,5.015,-0.8
1775.0,-19.6,-0.435,5.004,4.162,5.015,-0.8
1779.0,-19.6,-0.435,4.847,4.162,5.015,-0.8
1783.0,-19.586,0.274,4.847,4.154,4.959,-0.836
1787.0,-19.586,0.274,4.847,4.154,4.959,-0.836
1791.0,-18.955,0.859,4.458,4.047,4.637,-0.859
1795.0,-18.955,0.859,4.458,4.047,4.637,-0.859
1799.0,-18.955,0.859,3.919,4.047,4.637,-0.859
1802.0,-18.083,1.432,3.919,3.801,4.258,-0.904
1806.0,-18.083,1.432,3.919,3.801,4.258,-0.904
1810.0,-17.302,1.982,3.218,3.422,3.936,-0.974
1814.0,-17.302,1.982,3.218,3.422,3.936,-0.974
1818.0,-17.302,1.982,3.218,3.422,3.936,-0.974
1822.0,-16.359,2.2,2.579,2.953,3.694,-1.063
1826.0,-16.359,2.2,2.579,2.953,3.694,-1.063
1830.0,-15.572,2.117,2.287,2.483,3.53,-1.18
1834.0,-15.572,2.117,2.287,2.483,3.53,-1.18
1838.0,-15.572,2.117,2.287,2.483,3.53,-1.18
1841.0,-15.444,1.831,2.356,2.105,3.414,-1.312
1845.0,-15.444,1.831,2.356,2.105,3.414,-1.312
1849.0,-16.09,1.434,2.537,1.882,3.296,-1.437
1853.0,-16.09,1.434,2.537,1.882,3.296,-1.437
1857.0,-16.09,1.434,2.537,1.882,3.296,-1.437
1861.0,-17.139,1.083,2.748,1.813,3.129,-1.527
1865.0,-17.139,1.083,2.748,1.813,3.129,-1.527
1869.0,-18.038,0.9,2.945,1.846,2.9,-1.578
1873.0,-18.038,0.9,2.945,1.846,2.9,-1.578
1877.0,-18.038,0.9,2.945,1.846,2.9,-1.578
1881.0,-18.221,1.185,2.94,1.891,2.628,-1.608
1884.0,-18.221,1.185,2.94,1.891,2.628,-1.608
1888.0,-17.562,1.674,2.746,1.841,2.35,-1.635
1892.0,-17.562,1.674,2.746,1.841,2.35,-1.635
1896.0,-17.562,1.674,2.746,1.841,2.35,-1.635
1900.0,-16.64,2.069,2.529,1.659,2.092,-1.675
1904.0,-16.64,2.069,2.529,1.659,2.092,-1.675
1908.0,-15.704,2.479,2.256,1.659,1.852,-1.722
1912.0,-15.704,2.479,2.256,1.355,1.852,-1.722
1916.0,-15.704,2.479,2.256,1.355,1.852,-1.722
1920.0,-14.848,2.843,2.107,0.954,1.623,-1.731
1924.0,-14.848,2.843,2.107,0.954,1.623,-1.731
1927.0,-14.076,2.991,2.046,0.954,1.623,-1.681
1931.0,-14.076,2.991,2.046,0.497,1.399,-1.681
1935.0,-14.076,2.991,2.046,0.497,1.399,-1.681
1939.0,-13.361,2.912,2.061,0.023,1.192,-1.569
1943.0,-13.361,2.912,2.061,0.023,1.192,-1.569
1947.0,-12.656,2.681,2.091,0.023,1.192,-1.569
1951.0,-12.656,2.681,2.091,-0.43,1.002,-1.406
1955.0,-12.656,2.681,2.091,-0.43,1.002,-1.406
1959.0,-11.919,2.339,2.03,-0.845,0.825,-1.207
1963.0,-11.919,2.339,2.03,-0.845,0.825,-1.207
1967.0,-11.225,1.884,1.855,-0.845,0.825,-1.207
1971.0,-11.225,1.884,1.855,-1.211,0.666,-0.996
1975.0,-11.225,1.884,1.855,-1.211,0.666,-0.996
1979.0,-10.656,1.437,1.612,-1.531,0.53,-0.8
1983.0,-10.656,1.437,1.612,-1.531,0.53,-0.8
1987.0,-10.138,1.021,1.317,-1.531,0.53,-0.632
1991.0,-10.138,1.021,1.317,-1.814,0.419,-0.632
1995.0,-10.138,1.021,1.317,-1.814,0.419,-0.632
1999.0,-9.685,0.617,1.1,-2.063,0.336,-0.498
2003.0,-9.685,0.617,1.1,-2.063,0.336,-0.498
2007.0,-9.333,0.197,0.962,-2.063,0.272,-0.398
2010.0,-9.333,0.197,0.962,-2.273,0.272,-0.398
2014.0,-9.333,0.197,0.962,-2.273,0.272,-0.398
2018.0,-9.111,-0.158,0.915,-2.434,0.221,-0.323
2022.0,-9.111,-0.158,0.915,-2.434,0.221,-0.323
2026.0,-9.102,-0.455,0.899,-2.434,0.221,-0.248
2030.0,-9.102,-0.455,0.899,-2.55,0.177,-0.248
2034.0,-9.102,-0.455,0.899,-2.55,0.177,-0.248
2038.0,-9.315,-0.708,0.876,-2.633,0.144,-0.152
2042.0,-9.315,-0.708,0.876,-2.633,0.144,-0.152
2046.0,-9.65,-0.995,0.887,-2.691,0.12,-0.019
2050.0,-9.65,-0.995,0.887,-2.691,0.12,-0.019
2054.0,-9.65,-0.995,0.887,-2.691,0.12,-0.019
2058.0,-9.981,-1.309,0.93,-2.73,0.094,0.151
2062.0,-9.981,-1.309,0.93,-2.73,0.094,0.151
2066.0,-10.207,-1.644,0.911,-2.754,0.048,0.341
2070.0,-10.207,-1.644,0.911,-2.754,0.048,0.341
2074.0,-10.207,-1.644,0.911,-2.754,0.048,0.341
2078.0,-10.183,-1.982,0.727,-2.759,-0.019,0.525
2082.0,-10.183,-1.982,0.727,-2.759,-0.019,0.525
2086.0,-9.973,-2.271,0.393,-2.746,-0.094,0.673
2090.0,-9.973,-2.271,0.393,-2.746,-0.094,0.673
2094.0,-9.973,-2.271,0.393,-2.746,-0.094,0.673
2098.0,-9.78,-2.412,-0.013,-2.714,-0.166,0.769
2102.0,-9.78,-2.412,-0.013,-2.714,-0.166,0.769
2106.0,-9.724,-2.525,-0.371,-2.664,-0.218,0.818
2110.0,-9.724,-2.525,-0.371,-2.664,-0.218,0.818
2114.0,-9.724,-2.525,-0.502,-2.664,-0.218,0.818
2119.0,-9.763,-2.591,-0.502,-2.593,-0.247,0.84
2123.0,-9.763,-2.591,-0.502,-2.593,-0.247,0.84
2127.0,-9.769,-2.617,-0.409,-2.499,-0.268,0.864
2131.0,-9.769,-2.617,-0.409,-2.499,-0.268,0.864
2135.0,-9.699,-2.768,-0.195,-2.499,-0.291,0.9
2139.0,-9.699,-2.768,-0.195,-2.373,-0.291,0.9
2143.0,-9.699,-2.768,-0.195,-2.373,-0.291,0.9
2147.0,-9.577,-3.016,-0.079,-2.206,-0.322,0.922
2151.0,-9.577,-3.016,-0.079,-2.206,-0.322,0.922
2155.0,-9.571,-3.138,-0.15,-2.001,-0.361,0.909
2159.0,-9.571,-3.138,-0.15,-2.001,-0.361,0.909
2163.0,-9.571,-3.138,-0.15,-2.001,-0.361,0.909
2168.0,-9.56,-3.114,-0.34,-1.773,-0.405,0.861
2172.0,-9.56,-3.114,-0.34,-1.773,-0.405,0.861
2176.0,-9.393,-3.02,-0.548,-1.539,-0.44,0.796
2180.0,-9.393,-3.02,-0.548,-1.539,-0.44,0.796
2184.0,-9.167,-2.873,-0.706,-1.539,-0.44,0.796
2188.0,-9.167,-2.873,-0.706,-1.314,-0.455,0.734
2192.0,-9.167,-2.873,-0.706,-1.314,-0.455,0.734
2196.0,-8.965,-2.773,-0.766,-1.104,-0.45,0.692
2200.0,-8.965,-2.773,-0.766,-1.104,-0.45,0.692
2204.0,-8.788,-2.735,-0.731,-0.913,-0.436,0.684
2208.0,-8.788,-2.735,-0.731,-0.913,-0.436,0.684
2212.0,-8.788,-2.735,-0.731,-0.913,-0.436,0.684
2216.0,-8.708,-2.782,-0.676,-0.741,-0.421,0.703
2221.0,-8.708,-2.782,-0.676,-0.741,-0.421,0.703
2225.0,-8.793,-2.903,-0.658,-0.58,-0.405,0.724
2229.0,-8.793,-2.903,-0.658,-0.58,-0.405,0.724
2233.0,-8.793,-2.903,-0.658,-0.58,-0.405,0.724
2237.0,-9.047,-2.964,-0.751,-0.423,-0.39,0.722
2241.0,-9.047,-2.964,-0.751,-0.423,-0.39,0.722
2245.0,-9.134,-2.907,-0.967,-0.267,-0.378,0.682
2249.0,-9.134,-2.907,-0.967,-0.267,-0.378,0.682
2253.0,-8.956,-2.788,-1.181,-0.267,-0.378,0.611
2257.0,-8.956,-2.788,-1.181,-0.111,-0.36,0.611
2261.0,-8.956,-2.788,-1.181,-0.111,-0.36,0.611
2265.0,-8.651,-2.608,-1.371,0.055,-0.331,0.513
2269.0,-8.651,-2.608,-1.371,0.055,-0.331,0.513
2273.0,-8.465,-2.359,-1.515,0.228,-0.292,0.41
2277.0,-8.465,-2.359,-1.515,0.228,-0.292,0.41
2281.0,-8.465,-2.359,-1.515,0.228,-0.292,0.41
2285.0,-8.515,-2.166,-1.684,0.403,-0.253,0.322
2289.0,-8.515,-2.166,-1.684,0.403,-0.253,0.322
2293.0,-8.881,-2.032,-1.928,0.569,-0.216,0.267
2297.0,-8.881,-2.032,-1.928,0.569,-0.216,0.267
2301.0,-8.881,-2.032,-1.928,0.569,-0.216,0.267
2305.0,-9.483,-1.959,-2.402,0.707,-0.179,0.251
2309.0,-9.483,-1.959,-2.402,0.707,-0.179,0.251
2313.0,-10.079,-1.936,-2.911,0.806,-0.14,0.273
2317.0,-10.079,-1.936,-2.911,0.806,-0.14,0.273
2321.0,-10.079,-1.936,-2.911,0.806,-0.14,0.273
2326.0,-10.591,-1.987,-3.295,0.854,-0.104,0.32
2330.0,-10.591,-1.987,-3.295,0.854,-0.104,0.32
2334.0,-11.051,-2.006,-3.543,0.85,-0.08,0.373
2338.0,-11.051,-2.006,-3.543,0.85,-0.08,0.373
2342.0,-11.424,-1.967,-3.723,0.85,-0.08,0.373
2346.0,-11.424,-1.967,-3.723,0.799,-0.071,0.424
2350.0,-11.424,-1.967,-3.723,0.799,-0.071,0.424
2354.0,-11.728,-1.859,-3.921,0.71,-0.077,0.469
2358.0,-11.728,-1.859,-3.921,0.71,-0.077,0.469
2362.0,-11.952,-1.759,-4.068,0.593,-0.081,0.513
2366.0,-11.952,-1.759,-4.068,0.593,-0.081,0.513
2370.0,-11.952,-1.759,-4.068,0.593,-0.081,0.513
2375.0,-12.154,-1.701,-4.194,0.457,-0.072,0.568
2379.0,-12.154,-1.701,-4.194,0.457,-0.072,0.568
2383.0,-12.46,-1.743,-4.323,0.309,-0.051,0.644
2387.0,-12.46,-1.743,-4.323,0.309,-0.051,0.644
2391.0,-12.46,-1.743,-4.437,0.309,-0.051,0.644
2395.0,-12.896,-1.822,-4.437,0.148,-0.027,0.739
2399.0,-12.896,-1.822,-4.437,0.148,-0.027,0.739
2403.0,-13.448,-1.967,-4.485,-0.027,-0.011,0.847
2407.0,-13.448,-1.967,-4.485,-0.027,-0.011,0.847
2411.0,-14.172,-2.167,-4.687,-0.027,-0.013,0.956
2416.0,-14.172,-2.167,-4.687,-0.218,-0.013,0.956
2420.0,-14.172,-2.167,-4.687,-0.218,-0.013,0.956
2424.0,-14.89,-2.324,-4.985,-0.426,-0.031,1.061
2428.0,-14.89,-2.324,-4.985,-0.426,-0.031,1.061
2432.0,-15.099,-2.477,-5.417,-0.642,-0.052,1.156
2436.0,-15.099,-2.477,-5.417,-0.642,-0.052,1.156
2441.0,-14.983,-2.565,-5.503,-0.642,-0.052,1.156
2445.0,-14.983,-2.565,-5.503,-0.858,-0.049,1.235
2449.0,-14.983,-2.565,-5.503,-0.858,-0.049,1.235
2453.0,-14.633,-2.683,-5.179,-1.046,-0.015,1.289
2457.0,-14.633,-2.683,-5.179,-1.046,-0.015,1.289
2461.0,-14.143,-2.782,-4.553,-1.174,0.025,1.31
2466.0,-14.143,-2.782,-4.553,-1.174,0.025,1.31
2470.0,-14.143,-2.782,-4.553,-1.174,0.025,1.31
2474.0,-13.468,-2.917,-4.111,-1.22,0.051,1.293
2478.0,-13.468,-2.917,-4.111,-1.22,0.051,1.293
2482.0,-12.587,-2.889,-3.508,-1.191,0.077,1.234
2486.0,-12.587,-2.889,-3.508,-1.191,0.077,1.234
2490.0,-11.643,-2.841,-2.904,-1.191,0.077,1.234
2494.0,-11.643,-2.841,-2.904,-1.088,0.096,1.135
2498.0,-11.643,-2.841,-2.904,-1.088,0.096,1.135
2502.0,-10.828,-2.709,-2.66,-0.905,0.09,1.005
2506.0,-10.828,-2.709,-2.66,-0.905,0.09,1.005
2510.0,-10.143,-2.454,-2.584,-0.666,0.077,0.861
2514.0,-10.143,-2.454,-2.584,-0.666,0.077,0.861
2519.0,-10.143,-2.454,-2.584,-0.666,0.077,0.861
2523.0,-9.596,-2.173,-2.479,-0.402,0.07,0.729
2527.0,-9.596,-2.173,-2.479,-0.402,0.07,0.729
2531.0,-8.971,-1.874,-2.534,-0.13,0.067,0.615
2535.0,-8.971,-1.874,-2.534,-0.13,0.067,0.615
2539.0,-8.971,-1.874,-2.534,-0.13,0.067,0.615
2543.0,-8.547,-1.554,-2.553,0.128,0.078,0.519
2546.0,-8.547,-1.554,-2.553,0.128,0.078,0.519
2550.0,-8.412,-1.281,-2.473,0.353,0.096,0.444
2554.0,-8.412,-1.281,-2.473,0.353,0.096,0.444
2558.0,-8.412,-1.281,-2.473,0.353,0.096,0.444
2562.0,-8.42,-1.059,-2.262,0.539,0.107,0.38
2566.0,-8.42,-1.059,-2.262,0.539,0.107,0.38
2570.0,-8.412,-0.843,-1.954,0.693,0.095,0.323
2574.0,-8.412,-0.843,-1.954,0.693,0.095,0.323
2578.0,-8.412,-0.843,-1.954,0.693,0.095,0.323
2582.0,-8.245,-0.68,-1.778,0.827,0.052,0.258
2586.0,-8.245,-0.68,-1.778,0.827,0.052,0.258
2589.0,-7.971,-0.517,-1.819,0.95,-0.011,0.175
2593.0,-7.971,-0.517,-1.819,0.95,-0.011,0.175
2597.0,-7.971,-0.517,-1.819,0.95,-0.011,0.175
2601.0,-7.753,-0.291,-2.077,1.06,-0.072,0.073
2605.0,-7.753,-0.291,-2.077,1.06,-0.072,0.073
2609.0,-7.739,-0.005,-2.514,1.148,-0.107,-0.03
2614.0,-7.739,-0.005,-2.514,1.148,-0.107,-0.03
2618.0,-7.739,-0.005,-2.514,1.148,-0.107,-0.03
2622.0,-7.993,0.399,-2.948,1.207,-0.098,-0.113
2626.0,-7.993,0.399,-2.948,1.207,-0.098,-0.113
2630.0,-8.396,0.638,-3.202,1.235,-0.055,-0.151
2634.0,-8.396,0.638,-3.202,1.235,-0.055,-0.151
2638.0,-8.396,0.638,-3.285,1.235,-0.055,-0.151
2642.0,-9.041,0.771,-3.285,1.23,0.002,-0.153
2646.0,-9.041,0.771,-3.285,1.23,0.002,-0.153
2649.0,-9.712,0.821,-3.196,1.194,0.056,-0.132
2653.0,-9.712,0.821,-3.196,1.194,0.056,-0.132
2657.0,-9.712,0.821,-3.02,1.194,0.056,-0.132
2661.0,-10.258,0.778,-3.02,1.125,0.091,-0.104
2665.0,-10.258,0.778,-3.02,1.125,0.091,-0.104
2669.0,-10.528,0.778,-2.915,1.033,0.095,-0.083
2673.0,-10.528,0.778,-2.915,1.033,0.095,-0.083
2677.0,-10.528,0.778,-2.898,1.033,0.095,-0.083
2681.0,-10.397,0.762,-2.898,0.924,0.083,-0.075
2685.0,-10.397,0.762,-2.898,0.924,0.083,-0.075
2689.0,-10.079,0.753,-2.925,0.806,0.075,-0.08
2693.0,-10.079,0.753,-2.925,0.806,0.075,-0.08
2697.0,-9.854,0.784,-2.922,0.806,0.075,-0.08
2701.0,-9.854,0.784,-2.922,0.69,0.077,-0.088
2705.0,-9.854,0.784,-2.922,0.69,0.077,-0.088
2709.0,-9.735,0.736,-2.981,0.586,0.076,-0.096
2713.0,-9.735,0.736,-2.981,0.586,0.076,-0.096
2717.0,-9.735,0.736,-3.062,0.586,0.076,-0.096
2721.0,-9.779,0.638,-3.062,0.505,0.064,-0.106
2724.0,-9.779,0.638,-3.062,0.505,0.064,-0.106
2728.0,-9.873,0.557,-3.196,0.441,0.026,-0.121
2732.0,-9.873,0.557,-3.196,0.441,0.026,-0.121
2736.0,-9.873,0.557,-3.196,0.441,0.026,-0.121
2740.0,-9.918,0.497,-3.389,0.392,-0.035,-0.135
2744.0,-9.918,0.497,-3.389,0.392,-0.035,-0.135
2748.0,-9.891,0.44,-3.678,0.354,-0.107,-0.149
2752.0,-9.891,0.44,-3.678,0.354,-0.107,-0.149
2756.0,-9.891,0.44,-3.901,0.354,-0.107,-0.149
2760.0,-9.808,0.438,-3.901,0.32,-0.174,-0.162
2764.0,-9.808,0.438,-3.901,0.32,-0.174,-0.162
2768.0,-9.653,0.497,-3.958,0.286,-0.226,-0.175
2772.0,-9.653,0.497,-3.958,0.286,-0.226,-0.175
2776.0,-9.653,0.568,-3.887,0.286,-0.226,-0.175
2780.0,-9.441,0.568,-3.887,0.249,-0.271,-0.183
2784.0,-9.441,0.568,-3.887,0.249,-0.271,-0.183
2788.0,-9.25,0.605,-3.726,0.215,-0.313,-0.194
2792.0,-9.25,0.605,-3.726,0.215,-0.313,-0.194
2796.0,-9.06,0.665,-3.556,0.215,-0.313,-0.194
2800.0,-9.06,0.665,-3.556,0.188,-0.35,-0.211
2804.0,-9.06,0.665,-3.556,0.188,-0.35,-0.211
2808.0,-8.716,0.763,-3.319,0.166,-0.372,-0.227
2812.0,-8.716,0.763,-3.319,0.166,-0.372,-0.227
2816.0,-8.256,0.934,-3.029,0.166,-0.372,-0.234
2820.0,-8.256,0.934,-3.029,0.153,-0.379,-0.234
2824.0,-8.256,0.934,-3.029,0.153,-0.379,-0.234
2828.0,-7.728,1.083,-2.727,0.151,-0.381,-0.232
2832.0,-7.728,1.083,-2.727,0.151,-0.381,-0.232
2836.0,-7.222,1.14,-2.522,0.16,-0.386,-0.222
2840.0,-7.222,1.14,-2.522,0.16,-0.386,-0.222
2844.0,-7.222,1.14,-2.522,0.16,-0.386,-0.222
2848.0,-6.791,1.176,-2.5,0.172,-0.395,-0.217
2852.0,-6.791,1.176,-2.5,0.172,-0.395,-0.217
2856.0,-6.423,1.16,-2.587,0.177,-0.402,-0.215
2860.0,-6.423,1.16,-2.587,0.177,-0.402,-0.215
2864.0,-6.423,1.16,-2.587,0.177,-0.402,-0.215
2868.0,-6.177,1.15,-2.798,0.165,-0.396,-0.217
2872.0,-6.177,1.15,-2.798,0.165,-0.396,-0.217
2876.0,-6.06,1.17,-2.901,0.133,-0.377,-0.226
2880.0,-6.06,1.17,-2.901,0.133,-0.377,-0.226
2884.0,-6.06,1.17,-2.901,0.133,-0.377,-0.226
2888.0,-5.972,1.183,-2.812,0.084,-0.357,-0.237
2892.0,-5.972,1.183,-2.812,0.084,-0.357,-0.237
2896.0,-5.89,1.211,-2.659,0.025,-0.347,-0.248
2900.0,-5.89,1.211,-2.659,0.025,-0.347,-0.248
2904.0,-5.89,1.211,-2.659,0.025,-0.347,-0.248
2908.0,-5.757,1.235,-2.519,-0.041,-0.348,-0.258
2912.0,-5.757,1.235,-2.519,-0.041,-0.348,-0.258
2916.0,-5.578,1.264,-2.301,-0.107,-0.355,-0.268
2920.0,-5.578,1.264,-2.301,-0.107,-0.355,-0.268
2924.0,-5.578,1.295,-1.966,-0.107,-0.355,-0.268
2928.0,-5.422,1.295,-1.966,-0.173,-0.371,-0.282
2932.0,-5.422,1.295,-1.966,-0.173,-0.371,-0.282
2936.0,-5.264,1.381,-1.597,-0.236,-0.405,-0.295
2940.0,-5.264,1.381,-1.597,-0.236,-0.405,-0.295
2944.0,-5.069,1.413,-1.406,-0.303,-0.46,-0.299
2949.0,-5.069,1.413,-1.406,-0.303,-0.46,-0.299
2953.0,-5.069,1.413,-1.406,-0.303,-0.46,-0.299
2957.0,-4.843,1.381,-1.51,-0.383,-0.515,-0.299
2961.0,-4.843,1.381,-1.51,-0.383,-0.515,-0.299
2965.0,-4.634,1.362,-1.624,-0.478,-0.541,-0.306
2969.0,-4.634,1.362,-1.624,-0.478,-0.541,-0.306
2973.0,-4.634,1.362,-1.624,-0.478,-0.541,-0.306
2977.0,-4.541,1.332,-1.582,-0.587,-0.541,-0.32
2981.0,-4.541,1.332,-1.582,-0.587,-0.541,-0.32
2985.0,-4.563,1.266,-1.37,-0.701,-0.526,-0.331
2989.0,-4.563,1.266,-1.37,-0.701,-0.526,-0.331
2993.0,-4.686,1.216,-1.097,-0.701,-0.526,-0.331
2998.0,-4.686,1.216,-1.097,-0.81,-0.516,-0.332
