deltaTime,Acc_X,Acc_Y,Acc_Z,Gyro_X,Gyro_Y,Gyro_Z
0.0,-7.44,-2.559,2.838,1.024,-0.022,-0.767
3.0,-7.44,-2.559,2.838,1.024,-0.022,-0.767
6.0,-8.325,-2.189,3.121,0.945,0.021,-0.727
9.0,-8.325,-2.189,3.121,0.945,0.021,-0.727
12.0,-8.325,-2.189,3.121,0.945,0.021,-0.727
15.0,-8.931,-2.072,3.175,0.785,-0.011,-0.64
18.0,-8.931,-2.072,3.175,0.785,-0.011,-0.64
21.0,-8.931,-2.072,3.175,0.785,-0.011,-0.64
24.0,-9.732,-2.043,3.054,0.785,-0.011,-0.536
27.0,-9.732,-2.043,3.054,0.614,0.003,-0.536
30.0,-9.732,-2.043,3.054,0.614,0.003,-0.536
32.0,-9.732,-2.043,3.054,0.614,0.003,-0.536
36.0,-10.007,-2.331,2.844,0.406,-0.027,-0.426
40.0,-10.007,-2.331,2.844,0.406,-0.027,-0.426
44.0,-10.007,-2.978,2.731,0.219,-0.045,-0.331
48.0,-10.007,-2.978,2.731,0.219,-0.045,-0.331
52.0,-10.007,-2.978,2.731,0.219,-0.045,-0.331
56.0,-9.827,-3.641,2.633,0.118,-0.058,-0.279
59.0,-9.827,-3.641,2.633,0.118,-0.058,-0.279
63.0,-9.753,-4.119,2.655,0.118,-0.05,-0.27
67.0,-9.753,-4.119,2.655,0.106,-0.05,-0.27
71.0,-9.753,-4.119,2.655,0.106,-0.05,-0.27
75.0,-9.515,-4.286,2.551,0.163,-0.036,-0.292
78.0,-9.515,-4.286,2.551,0.163,-0.036,-0.292
82.0,-9.515,-4.141,2.416,0.163,-0.036,-0.292
86.0,-9.221,-4.141,2.416,0.257,-0.011,-0.323
90.0,-9.221,-4.141,2.416,0.257,-0.011,-0.323
94.0,-8.913,-3.875,2.642,0.352,0.04,-0.34
97.0,-8.913,-3.875,2.642,0.352,0.04,-0.34
101.0,-8.913,-3.875,2.642,0.352,0.04,-0.34
105.0,-9.094,-4.505,2.767,0.468,0.073,-0.351
109.0,-9.094,-4.505,2.767,0.468,0.073,-0.351
113.0,-8.926,-3.852,2.61,0.696,0.064,-0.326
116.0,-8.926,-3.852,2.61,0.696,0.064,-0.326
120.0,-8.926,-3.852,2.61,0.696,0.064,-0.326
124.0,-8.775,-3.377,2.67,0.825,0.091,-0.275
128.0,-8.775,-3.377,2.67,0.825,0.091,-0.275
132.0,-8.543,-3.272,2.871,0.825,0.091,-0.275
136.0,-8.543,-3.272,2.871,0.845,0.113,-0.219
139.0,-8.543,-3.272,2.871,0.845,0.113,-0.219
143.0,-8.322,-3.273,3.145,0.806,0.133,-0.168
147.0,-8.322,-3.273,3.145,0.806,0.133,-0.168
151.0,-8.322,-3.273,3.145,0.806,0.133,-0.168
155.0,-8.167,-3.421,3.595,0.741,0.153,-0.128
158.0,-8.167,-3.421,3.595,0.741,0.153,-0.128
162.0,-8.232,-3.482,3.769,0.682,0.153,-0.11
166.0,-8.232,-3.482,3.769,0.682,0.153,-0.11
170.0,-8.232,-3.482,3.769,0.682,0.153,-0.11
174.0,-8.663,-3.458,3.834,0.622,0.149,-0.098
178.0,-8.663,-3.458,3.834,0.622,0.149,-0.098
181.0,-8.701,-3.387,4.101,0.622,0.149,-0.095
185.0,-8.701,-3.387,4.101,0.563,0.139,-0.095
189.0,-8.701,-3.387,4.101,0.563,0.139,-0.095
193.0,-8.431,-3.179,4.427,0.511,0.104,-0.124
197.0,-8.431,-3.179,4.427,0.511,0.104,-0.124
201.0,-8.431,-3.179,4.683,0.511,0.104,-0.124
204.0,-8.425,-2.935,4.683,0.463,0.065,-0.168
208.0,-8.425,-2.935,4.683,0.463,0.065,-0.168
212.0,-8.74,-2.819,4.743,0.409,0.056,-0.186
216.0,-8.74,-2.819,4.743,0.409,0.056,-0.186
220.0,-8.74,-2.819,4.743,0.409,0.056,-0.186
223.0,-8.993,-3.107,5.272,0.377,0.095,-0.164
227.0,-8.993,-3.107,5.272,0.377,0.095,-0.164
231.0,-8.947,-3.469,5.843,0.442,0.126,-0.129
235.0,-8.947,-3.469,5.843,0.442,0.126,-0.129
239.0,-8.947,-3.469,5.843,0.442,0.126,-0.129
243.0,-9.074,-3.643,6.017,0.609,0.124,-0.09
246.0,-9.074,-3.643,6.017,0.609,0.124,-0.09
250.0,-9.363,-3.997,6.1,0.609,0.124,-0.09
254.0,-9.363,-3.997,6.1,0.823,0.136,-0.031
258.0,-9.363,-3.997,6.1,0.823,0.136,-0.031
262.0,-9.41,-4.125,6.142,1.078,0.153,0.024
265.0,-9.41,-4.125,6.142,1.078,0.153,0.024
269.0,-9.41,-4.125,6.142,1.078,0.153,0.024
273.0,-9.299,-3.896,5.83,1.307,0.162,0.066
277.0,-9.299,-3.896,5.83,1.307,0.162,0.066
280.0,-9.38,-3.526,5.572,1.307,0.181,0.077
284.0,-9.38,-3.526,5.572,1.417,0.181,0.077
288.0,-9.38,-3.526,5.572,1.417,0.181,0.077
291.0,-9.799,-3.279,5.268,1.385,0.199,0.051
295.0,-9.799,-3.279,5.268,1.385,0.199,0.051
299.0,-9.799,-3.279,5.268,1.385,0.199,0.051
303.0,-10.384,-3.345,4.881,1.257,0.158,-0.006
307.0,-10.384,-3.345,4.881,1.257,0.158,-0.006
310.0,-11.152,-3.392,4.12,1.116,-0.025,-0.073
314.0,-11.152,-3.392,4.12,1.116,-0.025,-0.073
318.0,-11.152,-3.392,4.12,1.116,-0.025,-0.073
322.0,-11.051,-3.378,3.97,0.992,-0.374,-0.096
326.0,-11.051,-3.378,3.97,0.992,-0.374,-0.096
330.0,-10.399,-2.967,4.267,0.892,-0.695,-0.098
334.0,-10.399,-2.967,4.267,0.892,-0.695,-0.098
338.0,-10.399,-2.967,4.267,0.892,-0.695,-0.098
342.0,-9.55,-2.502,4.441,0.761,-0.882,-0.16
346.0,-9.55,-2.502,4.441,0.761,-0.882,-0.16
350.0,-8.736,-2.346,4.485,0.561,-0.979,-0.278
354.0,-8.736,-2.346,4.485,0.561,-0.979,-0.278
358.0,-8.736,-2.346,4.485,0.561,-0.979,-0.278
362.0,-8.359,-2.224,4.764,0.33,-1.036,-0.421
366.0,-8.359,-2.224,4.764,0.33,-1.036,-0.421
370.0,-8.499,-2.2,5.524,0.092,-1.081,-0.569
374.0,-8.499,-2.2,5.524,0.092,-1.081,-0.569
378.0,-8.499,-2.2,5.524,0.092,-1.081,-0.569
381.0,-8.831,-2.305,6.476,-0.137,-1.151,-0.707
385.0,-8.831,-2.305,6.476,-0.137,-1.151,-0.707
389.0,-9.201,-2.654,7.376,-0.341,-1.262,-0.819
393.0,-9.201,-2.654,7.376,-0.341,-1.262,-0.819
397.0,-9.201,-2.654,7.376,-0.341,-1.262,-0.819
401.0,-9.684,-3.433,8.233,-0.501,-1.4,-0.902
405.0,-9.684,-3.433,8.233,-0.501,-1.4,-0.902
409.0,-9.964,-4.455,8.949,-0.579,-1.562,-0.983
413.0,-9.964,-4.455,8.949,-0.579,-1.562,-0.983
417.0,-9.964,-4.455,8.949,-0.579,-1.562,-0.983
421.0,-9.976,-5.452,9.222,-0.559,-1.752,-1.085
425.0,-9.976,-5.452,9.222,-0.559,-1.752,-1.085
429.0,-9.947,-6.232,9.328,-0.462,-1.946,-1.194
433.0,-9.947,-6.232,9.328,-0.462,-1.946,-1.194
437.0,-9.947,-6.232,9.489,-0.462,-1.946,-1.194
441.0,-10.07,-6.894,9.489,-0.316,-2.118,-1.281
445.0,-10.07,-6.894,9.489,-0.316,-2.118,-1.281
450.0,-10.269,-7.375,9.625,-0.148,-2.266,-1.338
454.0,-10.269,-7.375,9.625,-0.148,-2.266,-1.338
458.0,-10.356,-7.843,9.795,-0.148,-2.266,-1.369
462.0,-10.356,-7.843,9.795,0.015,-2.392,-1.369
466.0,-10.356,-7.843,9.795,0.015,-2.392,-1.369
470.0,-10.187,-8.244,10.221,0.162,-2.508,-1.397
474.0,-10.187,-8.244,10.221,0.162,-2.508,-1.397
478.0,-9.837,-8.614,10.654,0.295,-2.636,-1.457
482.0,-9.837,-8.614,10.654,0.295,-2.636,-1.457
486.0,-9.837,-8.614,10.654,0.295,-2.636,-1.457
490.0,-9.372,-8.703,10.911,0.423,-2.773,-1.578
494.0,-9.372,-8.703,10.911,0.423,-2.773,-1.578
498.0,-8.775,-8.564,11.013,0.538,-2.906,-1.745
502.0,-8.775,-8.564,11.013,0.538,-2.906,-1.745
506.0,-8.775,-8.564,11.013,0.538,-2.906,-1.745
510.0,-8.365,-8.639,10.942,0.619,-3.025,-1.931
514.0,-8.365,-8.639,10.942,0.619,-3.025,-1.931
518.0,-8.209,-8.971,10.802,0.662,-3.121,-2.124
522.0,-8.209,-8.971,10.802,0.662,-3.121,-2.124
526.0,-8.209,-8.971,10.802,0.662,-3.121,-2.124
530.0,-8.258,-9.624,10.551,0.689,-3.212,-2.319
534.0,-8.258,-9.624,10.551,0.689,-3.212,-2.319
538.0,-8.466,-10.463,10.393,0.716,-3.323,-2.526
542.0,-8.466,-10.463,10.393,0.716,-3.323,-2.526
546.0,-8.466,-10.463,10.06,0.716,-3.323,-2.526
550.0,-8.468,-11.241,10.06,0.762,-3.469,-2.753
554.0,-8.468,-11.241,10.06,0.762,-3.469,-2.753
558.0,-8.386,-12.117,9.614,0.853,-3.631,-2.984
562.0,-8.386,-12.117,9.614,0.853,-3.631,-2.984
566.0,-8.389,-13.22,9.313,0.853,-3.631,-2.984
570.0,-8.389,-13.22,9.313,1.031,-3.773,-3.2
574.0,-8.389,-13.22,9.313,1.031,-3.773,-3.2
578.0,-8.384,-14.415,9.138,1.353,-3.886,-3.394
582.0,-8.384,-14.415,9.138,1.353,-3.886,-3.394
586.0,-8.444,-15.304,8.987,1.353,-3.886,-3.574
590.0,-8.444,-15.304,8.987,1.836,-4.003,-3.574
594.0,-8.444,-15.304,8.987,1.836,-4.003,-3.574
598.0,-8.612,-15.583,8.557,2.443,-4.137,-3.735
602.0,-8.612,-15.583,8.557,2.443,-4.137,-3.735
606.0,-8.426,-15.431,7.944,3.101,-4.263,-3.841
610.0,-8.426,-15.431,7.944,3.101,-4.263,-3.841
614.0,-8.426,-15.431,7.944,3.101,-4.263,-3.841
618.0,-7.928,-14.89,7.298,3.752,-4.355,-3.898
622.0,-7.928,-14.89,7.298,3.752,-4.355,-3.898
626.0,-7.29,-13.84,6.654,4.358,-4.419,-3.944
630.0,-7.29,-13.84,6.654,4.358,-4.419,-3.944
634.0,-7.29,-13.84,6.654,4.358,-4.419,-3.944
638.0,-6.558,-12.358,5.977,4.857,-4.463,-4.001
642.0,-6.558,-12.358,5.977,4.857,-4.463,-4.001
646.0,-5.894,-10.92,5.31,4.995,-4.487,-4.067
650.0,-5.894,-10.92,5.31,4.995,-4.487,-4.067
654.0,-5.894,-10.92,5.31,4.995,-4.487,-4.067
658.0,-5.311,-9.733,4.552,4.995,-4.489,-4.136
662.0,-5.311,-9.733,4.552,4.995,-4.489,-4.136
666.0,-4.683,-8.739,3.825,4.995,-4.459,-4.191
670.0,-4.683,-8.739,3.825,4.995,-4.459,-4.191
674.0,-4.683,-8.739,3.825,4.995,-4.459,-4.191
678.0,-4.164,-7.851,3.264,4.995,-4.393,-4.211
681.0,-4.164,-7.851,3.264,4.995,-4.393,-4.211
685.0,-3.853,-7.153,2.956,4.995,-4.307,-4.202
689.0,-3.853,-7.153,2.956,4.995,-4.307,-4.202
693.0,-3.853,-7.153,2.956,4.995,-4.307,-4.202
697.0,-3.699,-6.376,2.719,4.995,-4.224,-4.185
701.0,-3.699,-6.376,2.719,4.995,-4.224,-4.185
705.0,-3.623,-5.426,2.417,4.995,-4.143,-4.16
709.0,-3.623,-5.426,2.417,4.995,-4.143,-4.16
713.0,-3.623,-5.426,2.417,4.995,-4.143,-4.16
717.0,-3.463,-4.207,2.123,4.995,-4.06,-4.13
721.0,-3.463,-4.207,2.123,4.995,-4.06,-4.13
724.0,-3.216,-2.882,1.741,4.995,-3.983,-4.104
728.0,-3.216,-2.882,1.741,4.995,-3.983,-4.104
732.0,-3.216,-2.882,1.741,4.995,-3.983,-4.104
736.0,-2.976,-1.429,1.288,4.995,-3.905,-4.08
740.0,-2.976,-1.429,1.288,4.995,-3.905,-4.08
744.0,-2.873,0.351,0.979,4.995,-3.905,-4.055
748.0,-2.873,0.351,0.979,4.991,-3.816,-4.055
752.0,-2.873,0.351,0.979,4.991,-3.816,-4.055
755.0,-2.871,2.414,0.762,4.806,-3.727,-3.986
759.0,-2.871,2.414,0.762,4.806,-3.727,-3.986
763.0,-2.871,2.414,0.762,4.806,-3.727,-3.986
767.0,-2.718,4.542,0.563,4.329,-3.644,-3.824
771.0,-2.718,4.542,0.563,4.329,-3.644,-3.824
775.0,-2.369,6.619,0.374,3.815,-3.561,-3.55
778.0,-2.369,6.619,0.374,3.815,-3.561,-3.55
782.0,-2.369,6.619,0.374,3.815,-3.561,-3.55
786.0,-1.893,8.337,0.167,3.303,-3.469,-3.167
790.0,-1.893,8.337,0.167,3.303,-3.469,-3.167
794.0,-1.25,9.502,0.154,3.303,-3.356,-2.725
797.0,-1.25,9.502,0.154,2.795,-3.356,-2.725
801.0,-1.25,9.502,0.154,2.795,-3.356,-2.725
805.0,-0.637,10.187,0.363,2.304,-3.214,-2.294
809.0,-0.637,10.187,0.363,2.304,-3.214,-2.294
813.0,-0.126,10.67,0.649,2.304,-3.214,-2.294
817.0,-0.126,10.67,0.649,1.851,-3.048,-1.91
821.0,-0.126,10.67,0.649,1.851,-3.048,-1.91
825.0,0.245,11.203,1.067,1.45,-2.865,-1.56
828.0,0.245,11.203,1.067,1.45,-2.865,-1.56
832.0,0.245,11.203,1.508,1.45,-2.865,-1.56
836.0,0.484,12.101,1.508,1.107,-2.663,-1.196
840.0,0.484,12.101,1.508,1.107,-2.663,-1.196
844.0,0.808,13.293,2.088,0.826,-2.45,-0.78
848.0,0.808,13.293,2.088,0.826,-2.45,-0.78
851.0,0.808,13.293,2.088,0.826,-2.45,-0.78
855.0,1.094,14.626,2.575,0.628,-2.25,-0.296
859.0,1.094,14.626,2.575,0.628,-2.25,-0.296
863.0,1.539,15.577,2.925,0.514,-2.082,0.265
867.0,1.539,15.577,2.925,0.514,-2.082,0.265
870.0,1.539,15.577,2.925,0.514,-2.082,0.265
874.0,2.311,15.92,3.095,0.483,-1.939,0.833
878.0,2.311,15.92,3.095,0.483,-1.939,0.833
881.0,2.311,15.92,3.095,0.483,-1.939,0.833
885.0,3.222,16.004,3.052,0.534,-1.795,1.324
889.0,3.222,16.004,3.052,0.534,-1.795,1.324
893.0,3.986,15.929,3.025,0.643,-1.628,1.759
896.0,3.986,15.929,3.025,0.643,-1.628,1.759
900.0,3.986,15.929,3.025,0.643,-1.628,1.759
904.0,4.709,15.701,3.166,0.769,-1.439,2.178
908.0,4.709,15.701,3.166,0.769,-1.439,2.178
911.0,4.709,15.701,3.506,0.769,-1.439,2.178
915.0,5.264,15.36,3.506,0.901,-1.231,2.546
919.0,5.264,15.36,3.506,0.901,-1.231,2.546
923.0,5.574,15.201,3.883,1.032,-1.025,2.85
926.0,5.574,15.201,3.883,1.032,-1.025,2.85
930.0,5.574,15.201,3.883,1.032,-1.025,2.85
934.0,5.703,15.215,4.102,1.147,-0.834,3.118
937.0,5.703,15.215,4.102,1.147,-0.834,3.118
941.0,5.859,15.067,4.207,1.147,-0.834,3.118
945.0,5.859,15.067,4.207,1.217,-0.654,3.38
949.0,5.859,15.067,4.207,1.217,-0.654,3.38
952.0,6.045,14.786,4.342,1.217,-0.471,3.628
956.0,6.045,14.786,4.342,1.217,-0.471,3.628
960.0,6.045,14.786,4.342,1.217,-0.471,3.628
964.0,6.132,14.451,4.338,1.136,-0.289,3.869
967.0,6.132,14.451,4.338,1.136,-0.289,3.869
971.0,6.196,13.883,4.156,1.136,-0.289,4.113
975.0,6.196,13.883,4.156,0.969,-0.107,4.113
979.0,6.196,13.883,4.156,0.969,-0.107,4.113
982.0,6.157,12.999,4.013,0.722,0.084,4.341
986.0,6.157,12.999,4.013,0.722,0.084,4.341
990.0,6.157,12.999,4.013,0.722,0.084,4.341
993.0,5.929,12.053,3.915,0.42,0.277,4.531
997.0,5.929,12.053,3.915,0.42,0.277,4.531
1000.0,5.521,11.062,4.012,0.42,0.277,4.531
1004.0,5.521,11.062,4.012,0.088,0.456,4.679
1008.0,5.521,11.062,4.012,0.088,0.456,4.679
1012.0,4.859,10.211,4.238,-0.253,0.603,4.786
1016.0,4.859,10.211,4.238,-0.253,0.603,4.786
1019.0,4.859,10.211,4.238,-0.253,0.603,4.786
1023.0,4.07,9.285,4.337,-0.596,0.71,4.896
1027.0,4.07,9.285,4.337,-0.596,0.71,4.896
1031.0,3.397,8.195,4.402,-0.949,0.791,4.994
1034.0,3.397,8.195,4.402,-0.949,0.791,4.994
1038.0,3.397,8.195,4.402,-0.949,0.791,4.994
1042.0,2.799,7.003,4.278,-1.303,0.855,5.013
1046.0,2.799,7.003,4.278,-1.303,0.855,5.013
1049.0,2.799,7.003,4.278,-1.303,0.855,5.013
1053.0,2.271,5.742,3.986,-1.657,0.913,5.013
1057.0,2.271,5.742,3.986,-1.657,0.913,5.013
1060.0,1.761,4.552,3.813,-2.006,0.972,5.013
1064.0,1.761,4.552,3.813,-2.006,0.972,5.013
1068.0,1.761,4.552,3.813,-2.006,0.972,5.013
1072.0,1.125,3.196,3.434,-2.349,1.017,5.013
1075.0,1.125,3.196,3.434,-2.349,1.017,5.013
1079.0,1.125,3.196,2.921,-2.349,1.017,5.013
1083.0,0.572,1.921,2.921,-2.7,1.065,5.013
1087.0,0.572,1.921,2.921,-2.7,1.065,5.013
1090.0,-0.028,0.745,2.766,-3.059,1.147,5.013
1094.0,-0.028,0.745,2.766,-3.059,1.147,5.013
1098.0,-0.028,0.745,2.766,-3.059,1.147,5.013
1102.0,-1.132,-0.494,3.233,-3.416,1.23,5.013
1106.0,-1.132,-0.494,3.233,-3.416,1.23,5.013
1110.0,-2.702,-2.015,3.933,-3.766,1.249,5.013
1114.0,-2.702,-2.015,3.933,-3.766,1.249,5.013
1117.0,-2.702,-2.015,3.933,-3.766,1.249,5.013
1121.0,-4.445,-3.91,4.499,-4.086,1.19,4.963
1125.0,-4.445,-3.91,4.499,-4.086,1.19,4.963
1129.0,-6.026,-5.916,4.366,-4.086,1.045,4.665
1133.0,-6.026,-5.916,4.366,-4.361,1.045,4.665
1137.0,-6.026,-5.916,4.366,-4.361,1.045,4.665
1141.0,-7.104,-7.814,4.0,-4.594,0.81,4.206
1145.0,-7.104,-7.814,4.0,-4.594,0.81,4.206
1149.0,-7.576,-9.236,2.974,-4.594,0.81,4.206
1153.0,-7.576,-9.236,2.974,-4.806,0.493,3.67
1156.0,-7.576,-9.236,2.974,-4.806,0.493,3.67
1160.0,-7.484,-10.059,1.521,-4.971,0.131,3.102
1164.0,-7.484,-10.059,1.521,-4.971,0.131,3.102
1168.0,-6.819,-10.394,0.069,-4.971,0.131,3.102
1172.0,-6.819,-10.394,0.069,-5.012,-0.198,2.543
1176.0,-6.819,-10.394,0.069,-5.012,-0.198,2.543
1181.0,-5.5,-10.903,-0.781,-5.001,-0.452,2.026
1185.0,-5.5,-10.903,-0.781,-5.001,-0.452,2.026
1189.0,-3.666,-11.742,-1.009,-4.861,-0.659,1.566
1193.0,-3.666,-11.742,-1.009,-4.861,-0.659,1.566
1197.0,-3.666,-11.742,-1.009,-4.861,-0.659,1.566
1201.0,-1.537,-12.945,-0.591,-4.51,-0.855,1.177
1206.0,-1.537,-12.945,-0.591,-4.51,-0.855,1.177
1210.0,0.579,-14.457,-0.428,-3.929,-1.035,0.864
1214.0,0.579,-14.457,-0.428,-3.929,-1.035,0.864
1218.0,1.985,-15.424,-0.569,-3.929,-1.035,0.642
1222.0,1.985,-15.424,-0.569,-3.102,-1.131,0.642
1226.0,1.985,-15.424,-0.569,-3.102,-1.131,0.642
1230.0,2.892,-15.524,-0.885,-2.115,-1.143,0.53
1234.0,2.892,-15.524,-0.885,-2.115,-1.143,0.53
1238.0,3.933,-15.148,-1.116,-1.087,-1.115,0.51
1242.0,3.933,-15.148,-1.116,-1.087,-1.115,0.51
1246.0,3.933,-15.148,-1.116,-1.087,-1.115,0.51
1250.0,5.347,-14.513,-0.987,-0.113,-1.051,0.55
1255.0,5.347,-14.513,-0.987,-0.113,-1.051,0.55
1259.0,6.86,-13.725,-0.508,0.746,-0.949,0.606
1263.0,6.86,-13.725,-0.508,0.746,-0.949,0.606
1267.0,6.86,-13.725,-0.108,0.746,-0.949,0.606
1271.0,8.148,-12.779,-0.108,1.449,-0.828,0.633
1275.0,8.148,-12.779,-0.108,1.449,-0.828,0.633
1279.0,9.07,-11.566,0.217,1.967,-0.687,0.607
1283.0,9.07,-11.566,0.217,1.967,-0.687,0.607
1286.0,9.07,-11.566,0.467,1.967,-0.687,0.607
1290.0,9.678,-10.196,0.467,2.292,-0.536,0.543
1294.0,9.678,-10.196,0.467,2.292,-0.536,0.543
1298.0,10.03,-8.864,0.729,2.426,-0.374,0.465
1302.0,10.03,-8.864,0.729,2.426,-0.374,0.465
1306.0,10.03,-8.864,0.729,2.426,-0.374,0.465
1310.0,10.1,-7.908,0.994,2.395,-0.213,0.395
1314.0,10.1,-7.908,0.994,2.395,-0.213,0.395
1318.0,9.69,-7.259,1.217,2.246,-0.076,0.338
1322.0,9.69,-7.259,1.217,2.246,-0.076,0.338
1325.0,9.69,-7.259,1.217,2.246,-0.076,0.338
1329.0,8.964,-6.811,1.302,2.021,0.031,0.296
1333.0,8.964,-6.811,1.302,2.021,0.031,0.296
1337.0,8.355,-6.516,1.534,1.763,0.118,0.278
1340.0,8.355,-6.516,1.534,1.763,0.118,0.278
1344.0,8.355,-6.516,1.534,1.763,0.118,0.278
1348.0,7.862,-6.306,2.058,1.503,0.174,0.278
1352.0,7.862,-6.306,2.058,1.503,0.174,0.278
1355.0,7.862,-6.306,2.058,1.503,0.174,0.278
1359.0,7.435,-6.177,2.599,1.265,0.187,0.287
1363.0,7.435,-6.177,2.599,1.265,0.187,0.287
1366.0,7.0,-6.086,2.827,1.06,0.181,0.298
1370.0,7.0,-6.086,2.827,1.06,0.181,0.298
1374.0,7.0,-6.086,2.827,1.06,0.181,0.298
1378.0,6.567,-5.998,2.942,0.89,0.183,0.305
1381.0,6.567,-5.998,2.942,0.89,0.183,0.305
1385.0,6.567,-5.998,3.202,0.89,0.183,0.305
1389.0,6.323,-5.89,3.202,0.752,0.178,0.305
1393.0,6.323,-5.89,3.202,0.752,0.178,0.305
1396.0,6.124,-5.699,3.318,0.646,0.153,0.295
1400.0,6.124,-5.699,3.318,0.646,0.153,0.295
1404.0,6.124,-5.699,3.318,0.646,0.153,0.295
1408.0,5.861,-5.47,3.328,0.564,0.143,0.286
1411.0,5.861,-5.47,3.328,0.564,0.143,0.286
1415.0,5.845,-5.361,3.394,0.564,0.143,0.286
1419.0,5.845,-5.361,3.394,0.502,0.157,0.293
1422.0,5.845,-5.361,3.394,0.502,0.157,0.293
1426.0,6.016,-5.277,3.513,0.456,0.158,0.304
1430.0,6.016,-5.277,3.513,0.456,0.158,0.304
1434.0,6.016,-5.277,3.513,0.456,0.158,0.304
1437.0,6.021,-5.173,3.695,0.413,0.162,0.303
1441.0,6.021,-5.173,3.695,0.413,0.162,0.303
1445.0,5.835,-5.087,3.606,0.413,0.162,0.296
1449.0,5.835,-5.087,3.606,0.368,0.186,0.296
1452.0,5.835,-5.087,3.606,0.368,0.186,0.296
1456.0,5.689,-5.011,3.695,0.318,0.234,0.293
1460.0,5.689,-5.011,3.695,0.318,0.234,0.293
1464.0,5.689,-5.011,3.695,0.318,0.234,0.293
1467.0,5.711,-5.018,4.091,0.266,0.275,0.303
1471.0,5.711,-5.018,4.091,0.266,0.275,0.303
1475.0,5.644,-5.066,4.315,0.266,0.286,0.324
1478.0,5.644,-5.066,4.315,0.222,0.286,0.324
1482.0,5.644,-5.066,4.315,0.222,0.286,0.324
1486.0,5.319,-5.078,4.343,0.191,0.287,0.345
1490.0,5.319,-5.078,4.343,0.191,0.287,0.345
1493.0,5.319,-5.078,4.343,0.191,0.287,0.345
1497.0,5.17,-5.16,4.515,0.172,0.286,0.369
1501.0,5.17,-5.16,4.515,0.172,0.286,0.369
1505.0,5.376,-5.279,4.582,0.159,0.254,0.401
1508.0,5.376,-5.279,4.582,0.159,0.254,0.401
1512.0,5.376,-5.279,4.582,0.159,0.254,0.401
1516.0,5.572,-5.319,4.226,0.148,0.22,0.435
1520.0,5.572,-5.319,4.226,0.148,0.22,0.435
1523.0,5.572,-5.319,3.958,0.148,0.22,0.435
1527.0,5.848,-5.278,3.958,0.138,0.241,0.465
1531.0,5.848,-5.278,3.958,0.138,0.241,0.465
1534.0,6.187,-5.253,4.148,0.126,0.283,0.496
1538.0,6.187,-5.253,4.148,0.126,0.283,0.496
1542.0,6.187,-5.253,4.148,0.126,0.283,0.496
1546.0,6.249,-5.244,4.371,0.113,0.303,0.53
1549.0,6.249,-5.244,4.371,0.113,0.303,0.53
1553.0,6.249,-5.268,4.45,0.113,0.303,0.53
1557.0,5.882,-5.268,4.45,0.102,0.317,0.565
1561.0,5.882,-5.268,4.45,0.102,0.317,0.565
1564.0,5.551,-5.365,4.503,0.085,0.32,0.605
1568.0,5.551,-5.365,4.503,0.085,0.32,0.605
1572.0,5.551,-5.365,4.503,0.085,0.32,0.605
1575.0,5.462,-5.493,4.424,0.053,0.299,0.645
1579.0,5.462,-5.493,4.424,0.053,0.299,0.645
1583.0,5.603,-5.57,4.272,0.053,0.299,0.645
1587.0,5.603,-5.57,4.272,0.01,0.267,0.674
1590.0,5.603,-5.57,4.272,0.01,0.267,0.674
1594.0,5.858,-5.608,4.057,-0.044,0.252,0.7
1598.0,5.858,-5.608,4.057,-0.044,0.252,0.7
1602.0,5.858,-5.608,4.057,-0.044,0.252,0.7
1606.0,6.219,-5.654,4.167,-0.102,0.262,0.729
1609.0,6.219,-5.654,4.167,-0.102,0.262,0.729
1613.0,6.452,-5.732,4.232,-0.156,0.275,0.767
1617.0,6.452,-5.732,4.232,-0.156,0.275,0.767
1621.0,6.452,-5.732,4.232,-0.156,0.275,0.767
1625.0,6.271,-5.809,3.995,-0.201,0.304,0.811
1629.0,6.271,-5.809,3.995,-0.201,0.304,0.811
1632.0,5.989,-5.862,3.899,-0.201,0.304,0.811
1636.0,5.989,-5.862,3.899,-0.232,0.364,0.854
1640.0,5.989,-5.862,3.899,-0.232,0.364,0.854
1644.0,5.865,-5.908,3.998,-0.247,0.423,0.902
1648.0,5.865,-5.908,3.998,-0.247,0.423,0.902
1651.0,5.865,-5.908,3.998,-0.247,0.423,0.902
1655.0,5.595,-5.898,4.077,-0.241,0.474,0.956
1659.0,5.595,-5.898,4.077,-0.241,0.474,0.956
1663.0,5.262,-5.846,4.008,-0.209,0.512,1.006
1667.0,5.262,-5.846,4.008,-0.209,0.512,1.006
1671.0,5.262,-5.846,4.008,-0.209,0.512,1.006
1674.0,5.026,-5.725,3.884,-0.158,0.547,1.059
1678.0,5.026,-5.725,3.884,-0.158,0.547,1.059
1682.0,4.903,-5.573,3.827,-0.158,0.588,1.122
1686.0,4.903,-5.573,3.827,-0.096,0.588,1.122
1690.0,4.903,-5.573,3.827,-0.096,0.588,1.122
1693.0,4.634,-5.271,3.695,-0.017,0.638,1.195
1697.0,4.634,-5.271,3.695,-0.017,0.638,1.195
1701.0,4.634,-4.747,3.273,-0.017,0.638,1.195
1705.0,4.116,-4.747,3.273,0.068,0.705,1.274
1709.0,4.116,-4.747,3.273,0.068,0.705,1.274
1712.0,3.622,-3.921,2.706,0.147,0.812,1.371
1716.0,3.622,-3.921,2.706,0.147,0.812,1.371
1720.0,3.622,-3.921,2.706,0.147,0.812,1.371
1724.0,3.324,-3.07,2.275,0.217,0.955,1.524
1727.0,3.324,-3.07,2.275,0.217,0.955,1.524
1731.0,3.352,-2.477,2.06,0.217,0.955,1.524
1735.0,3.352,-2.477,2.06,0.291,1.123,1.755
1739.0,3.352,-2.477,2.06,0.291,1.123,1.755
1742.0,3.499,-2.258,2.213,0.382,1.325,2.048
1746.0,3.499,-2.258,2.213,0.382,1.325,2.048
1750.0,3.499,-2.258,2.213,0.382,1.325,2.048
1753.0,3.388,-2.474,2.576,0.502,1.553,2.361
1757.0,3.388,-2.474,2.576,0.502,1.553,2.361
1761.0,2.888,-2.987,2.807,0.502,1.78,2.653
1765.0,2.888,-2.987,2.807,0.658,1.78,2.653
1768.0,2.888,-2.987,2.807,0.658,1.78,2.653
1772.0,2.054,-3.704,3.04,0.856,1.996,2.894
1776.0,2.054,-3.704,3.04,0.856,1.996,2.894
1780.0,2.054,-3.704,3.04,0.856,1.996,2.894
1783.0,1.119,-4.245,3.14,1.097,2.184,3.067
1787.0,1.119,-4.245,3.14,1.097,2.184,3.067
1791.0,0.279,-4.501,3.141,1.367,2.35,3.172
1794.0,0.279,-4.501,3.141,1.367,2.35,3.172
1798.0,0.279,-4.501,3.141,1.367,2.35,3.172
1802.0,-0.476,-4.552,3.086,1.641,2.513,3.229
1806.0,-0.476,-4.552,3.086,1.641,2.513,3.229
1810.0,-0.476,-4.552,2.878,1.641,2.513,3.229
1813.0,-1.312,-4.488,2.878,1.913,2.686,3.256
1817.0,-1.312,-4.488,2.878,1.913,2.686,3.256
1821.0,-2.332,-4.4,2.509,2.195,2.867,3.256
1825.0,-2.332,-4.4,2.509,2.195,2.867,3.256
1829.0,-2.332,-4.4,2.509,2.195,2.867,3.256
1833.0,-3.361,-4.427,2.065,2.485,3.051,3.239
1836.0,-3.361,-4.427,2.065,2.485,3.051,3.239
1840.0,-4.05,-4.714,1.526,2.79,3.245,3.205
1844.0,-4.05,-4.714,1.526,2.79,3.245,3.205
1848.0,-4.05,-4.714,1.526,2.79,3.245,3.205
1852.0,-4.543,-5.074,0.946,3.127,3.461,3.144
1855.0,-4.543,-5.074,0.946,3.127,3.461,3.144
1859.0,-4.886,-5.381,0.361,3.127,3.461,3.144
1863.0,-4.886,-5.381,0.361,3.519,3.704,3.045
1867.0,-4.886,-5.381,0.361,3.519,3.704,3.045
1871.0,-5.239,-5.644,-0.279,3.98,3.981,2.906
1875.0,-5.239,-5.644,-0.279,3.98,3.981,2.906
1879.0,-5.239,-5.644,-0.279,3.98,3.981,2.906
1882.0,-5.599,-5.828,-0.929,4.494,4.295,2.717
1886.0,-5.599,-5.828,-0.929,4.494,4.295,2.717
1890.0,-5.97,-5.806,-1.391,4.919,4.64,2.463
1894.0,-5.97,-5.806,-1.391,4.919,4.64,2.463
1898.0,-5.97,-5.806,-1.391,4.919,4.64,2.463
1902.0,-6.386,-5.582,-1.724,4.995,4.942,2.135
1906.0,-6.386,-5.582,-1.724,4.995,4.942,2.135
1910.0,-6.854,-5.026,-1.991,4.995,5.015,1.742
1914.0,-6.854,-5.026,-1.991,4.995,5.015,1.742
1918.0,-6.854,-5.026,-1.991,4.995,5.015,1.742
1921.0,-7.323,-4.211,-2.352,4.995,5.015,1.322
1925.0,-7.323,-4.211,-2.352,4.995,5.015,1.322
1929.0,-7.918,-3.416,-2.644,4.995,5.015,0.911
1933.0,-7.918,-3.416,-2.644,4.995,5.015,0.911
1937.0,-7.918,-3.416,-2.644,4.995,5.015,0.911
1941.0,-8.799,-2.709,-2.779,4.995,5.015,0.521
1945.0,-8.799,-2.709,-2.779,4.995,5.015,0.521
1949.0,-9.934,-2.146,-2.542,4.995,5.015,0.157
1953.0,-9.934,-2.146,-2.542,4.995,5.015,0.157
1957.0,-9.934,-2.146,-2.542,4.995,5.015,0.157
1961.0,-11.172,-1.68,-2.221,4.995,5.015,-0.175
1965.0,-11.172,-1.68,-2.221,4.995,5.015,-0.175
1969.0,-12.463,-1.411,-1.775,4.995,5.015,-0.46
1973.0,-12.463,-1.411,-1.775,4.995,5.015,-0.46
1977.0,-12.463,-1.411,-1.775,4.995,5.015,-0.46
1981.0,-13.903,-1.259,-1.205,4.94,5.015,-0.707
1985.0,-13.903,-1.259,-1.205,4.94,5.015,-0.707
1989.0,-15.453,-1.017,-0.559,4.587,5.015,-0.924
1993.0,-15.453,-1.017,-0.559,4.587,5.015,-0.924
1997.0,-15.453,-0.654,-0.08,4.587,5.015,-0.924
2001.0,-16.721,-0.654,-0.08,4.106,5.015,-1.092
2005.0,-16.721,-0.654,-0.08,4.106,5.015,-1.092
2010.0,-17.548,-0.65,0.555,3.595,5.015,-1.198
2014.0,-17.548,-0.65,0.555,3.595,5.015,-1.198
2018.0,-17.974,-0.777,1.342,3.595,5.015,-1.278
2021.0,-17.974,-0.777,1.342,3.081,5.015,-1.278
2025.0,-17.974,-0.777,1.342,3.081,5.015,-1.278
2029.0,-17.975,-0.789,1.879,2.581,5.015,-1.35
2033.0,-17.975,-0.789,1.879,2.581,5.015,-1.35
2037.0,-17.93,-0.881,2.171,2.089,5.015,-1.411
2041.0,-17.93,-0.881,2.171,2.089,5.015,-1.411
2045.0,-17.93,-0.881,2.171,2.089,5.015,-1.411
2049.0,-18.378,-1.06,2.385,1.622,5.015,-1.456
2053.0,-18.378,-1.06,2.385,1.622,5.015,-1.456
2057.0,-19.193,-1.179,2.478,1.205,5.015,-1.488
2061.0,-19.193,-1.179,2.478,1.205,5.015,-1.488
2065.0,-19.193,-1.179,2.478,1.205,5.015,-1.488
2069.0,-19.6,-1.149,2.611,0.831,5.015,-1.503
2073.0,-19.6,-1.149,2.611,0.831,5.015,-1.503
2077.0,-19.6,-1.062,2.894,0.479,5.015,-1.512
2081.0,-19.6,-1.062,2.894,0.479,5.015,-1.512
2085.0,-19.6,-1.062,2.894,0.479,5.015,-1.512
2089.0,-19.6,-1.067,3.319,0.162,5.014,-1.53
2093.0,-19.6,-1.067,3.319,0.162,5.014,-1.53
2097.0,-19.6,-1.091,3.645,-0.096,4.919,-1.569
2101.0,-19.6,-1.091,3.645,-0.096,4.919,-1.569
2106.0,-19.6,-1.091,3.645,-0.096,4.919,-1.569
2110.0,-19.6,-0.997,3.689,-0.301,4.677,-1.621
2114.0,-19.6,-0.997,3.689,-0.301,4.677,-1.621
2118.0,-19.6,-0.926,3.612,-0.48,4.405,-1.655
2122.0,-19.6,-0.926,3.612,-0.48,4.405,-1.655
2126.0,-19.6,-0.954,3.714,-0.48,4.405,-1.655
2130.0,-19.6,-0.954,3.714,-0.652,4.119,-1.651
2134.0,-19.6,-0.954,3.714,-0.652,4.119,-1.651
2138.0,-19.6,-1.038,3.812,-0.821,3.83,-1.614
2142.0,-19.6,-1.038,3.812,-0.821,3.83,-1.614
2146.0,-19.6,-1.263,3.888,-0.975,3.555,-1.557
2150.0,-19.6,-1.263,3.888,-0.975,3.555,-1.557
2154.0,-19.6,-1.263,3.888,-0.975,3.555,-1.557
2159.0,-19.415,-1.491,4.071,-1.098,3.291,-1.49
2163.0,-19.415,-1.491,4.071,-1.098,3.291,-1.49
2167.0,-19.013,-1.607,4.149,-1.198,3.015,-1.418
2171.0,-19.013,-1.607,4.149,-1.198,3.015,-1.418
2175.0,-19.013,-1.607,4.156,-1.198,3.015,-1.418
2179.0,-18.505,-1.636,4.156,-1.29,2.733,-1.344
2183.0,-18.505,-1.636,4.156,-1.29,2.733,-1.344
2187.0,-17.872,-1.551,4.155,-1.378,2.448,-1.269
2191.0,-17.872,-1.551,4.155,-1.378,2.448,-1.269
2195.0,-17.36,-1.44,3.961,-1.378,2.165,-1.19
2199.0,-17.36,-1.44,3.961,-1.472,2.165,-1.19
2203.0,-17.36,-1.44,3.961,-1.472,2.165,-1.19
2208.0,-16.938,-1.325,3.653,-1.579,1.901,-1.102
2212.0,-16.938,-1.325,3.653,-1.579,1.901,-1.102
2216.0,-16.19,-1.271,3.525,-1.699,1.664,-1.007
2220.0,-16.19,-1.271,3.525,-1.699,1.664,-1.007
2224.0,-16.19,-1.271,3.525,-1.699,1.664,-1.007
2228.0,-15.228,-1.302,3.494,-1.816,1.44,-0.906
2232.0,-15.228,-1.302,3.494,-1.816,1.44,-0.906
2236.0,-14.34,-1.354,3.388,-1.919,1.229,-0.81
2240.0,-14.34,-1.354,3.388,-1.919,1.229,-0.81
2244.0,-13.573,-1.436,3.279,-1.919,1.229,-0.81
2248.0,-13.573,-1.436,3.279,-2.007,1.037,-0.719
2252.0,-13.573,-1.436,3.279,-2.007,1.037,-0.719
2256.0,-12.763,-1.433,3.185,-2.083,0.851,-0.64
2261.0,-12.763,-1.433,3.185,-2.083,0.851,-0.64
2265.0,-11.922,-1.433,3.065,-2.153,0.666,-0.57
2269.0,-11.922,-1.433,3.065,-2.153,0.666,-0.57
2273.0,-11.922,-1.433,3.065,-2.153,0.666,-0.57
2277.0,-11.241,-1.448,2.956,-2.215,0.487,-0.512
2281.0,-11.241,-1.448,2.956,-2.215,0.487,-0.512
2285.0,-10.756,-1.488,2.827,-2.263,0.319,-0.465
2289.0,-10.756,-1.488,2.827,-2.263,0.319,-0.465
2293.0,-10.756,-1.488,2.648,-2.263,0.319,-0.465
2297.0,-10.54,-1.521,2.648,-2.299,0.162,-0.419
2301.0,-10.54,-1.521,2.648,-2.299,0.162,-0.419
2305.0,-10.463,-1.592,2.435,-2.32,0.016,-0.359
2310.0,-10.463,-1.592,2.435,-2.32,0.016,-0.359
2314.0,-10.423,-1.747,2.258,-2.32,0.016,-0.277
2318.0,-10.423,-1.747,2.258,-2.327,-0.12,-0.277
2322.0,-10.423,-1.747,2.258,-2.327,-0.12,-0.277
2326.0,-10.543,-1.967,2.104,-2.321,-0.253,-0.172
2330.0,-10.543,-1.967,2.104,-2.321,-0.253,-0.172
2334.0,-10.675,-2.137,1.953,-2.306,-0.384,-0.046
2339.0,-10.675,-2.137,1.953,-2.306,-0.384,-0.046
2343.0,-10.675,-2.137,1.859,-2.306,-0.384,-0.046
2347.0,-10.551,-2.329,1.859,-2.286,-0.52,0.094
2351.0,-10.551,-2.329,1.859,-2.286,-0.52,0.094
2355.0,-10.32,-2.505,1.74,-2.265,-0.667,0.228
2359.0,-10.32,-2.505,1.74,-2.265,-0.667,0.228
2363.0,-10.169,-2.675,1.628,-2.265,-0.812,0.335
2367.0,-10.169,-2.675,1.628,-2.245,-0.812,0.335
2371.0,-10.169,-2.675,1.628,-2.245,-0.812,0.335
2375.0,-10.105,-2.795,1.466,-2.216,-0.947,0.401
2379.0,-10.105,-2.795,1.466,-2.216,-0.947,0.401
2384.0,-10.061,-2.846,1.309,-2.175,-1.073,0.429
2388.0,-10.061,-2.846,1.309,-2.175,-1.073,0.429
2392.0,-10.061,-2.846,1.309,-2.175,-1.073,0.429
2396.0,-9.97,-2.823,1.156,-2.123,-1.192,0.433
2400.0,-9.97,-2.823,1.156,-2.123,-1.192,0.433
2404.0,-9.806,-2.774,0.985,-2.064,-1.3,0.431
2408.0,-9.806,-2.774,0.985,-2.064,-1.3,0.431
2412.0,-9.806,-2.774,0.808,-2.064,-1.3,0.431
2416.0,-9.702,-2.752,0.808,-1.999,-1.391,0.433
2420.0,-9.702,-2.752,0.808,-1.999,-1.391,0.433
2424.0,-9.733,-2.71,0.591,-1.932,-1.458,0.428
2428.0,-9.733,-2.71,0.591,-1.932,-1.458,0.428
2432.0,-9.765,-2.613,0.394,-1.932,-1.458,0.428
2436.0,-9.765,-2.613,0.394,-1.857,-1.501,0.412
2440.0,-9.765,-2.613,0.394,-1.857,-1.501,0.412
2444.0,-9.76,-2.489,0.268,-1.784,-1.537,0.382
2448.0,-9.76,-2.489,0.268,-1.784,-1.537,0.382
2452.0,-9.72,-2.346,0.155,-1.784,-1.537,0.34
2456.0,-9.72,-2.346,0.155,-1.72,-1.571,0.34
2460.0,-9.72,-2.346,0.155,-1.72,-1.571,0.34
2464.0,-9.598,-2.184,0.031,-1.67,-1.601,0.296
2468.0,-9.598,-2.184,0.031,-1.67,-1.601,0.296
2472.0,-9.577,-2.006,-0.138,-1.67,-1.612,0.269
2476.0,-9.577,-2.006,-0.138,-1.641,-1.612,0.269
2480.0,-9.577,-2.006,-0.138,-1.641,-1.612,0.269
2484.0,-9.84,-1.979,-0.265,-1.641,-1.598,0.271
2488.0,-9.84,-1.979,-0.265,-1.641,-1.598,0.271
2492.0,-10.448,-2.1,-0.471,-1.673,-1.558,0.294
2496.0,-10.448,-2.1,-0.471,-1.673,-1.558,0.294
2500.0,-10.448,-2.1,-0.471,-1.673,-1.558,0.294
2505.0,-11.277,-2.218,-0.778,-1.727,-1.486,0.31
2509.0,-11.277,-2.218,-0.778,-1.727,-1.486,0.31
2513.0,-12.058,-2.253,-0.979,-1.8,-1.389,0.307
2517.0,-12.058,-2.253,-0.979,-1.8,-1.389,0.307
2521.0,-12.105,-2.322,-0.951,-1.887,-1.293,0.281
2525.0,-12.105,-2.322,-0.951,-1.887,-1.293,0.281
2530.0,-12.105,-2.322,-0.951,-1.887,-1.293,0.281
2534.0,-11.419,-2.361,-0.901,-1.971,-1.218,0.211
2538.0,-11.419,-2.361,-0.901,-1.971,-1.218,0.211
2542.0,-10.623,-2.304,-0.77,-2.039,-1.144,0.094
2546.0,-10.623,-2.304,-0.77,-2.039,-1.144,0.094
2550.0,-9.692,-2.284,-0.482,-2.039,-1.144,-0.046
2555.0,-9.692,-2.284,-0.482,-2.071,-1.051,-0.046
2559.0,-9.692,-2.284,-0.482,-2.071,-1.051,-0.046
2563.0,-8.712,-2.28,-0.255,-2.061,-0.952,-0.194
2567.0,-8.712,-2.28,-0.255,-2.061,-0.952,-0.194
2571.0,-7.911,-2.274,-0.072,-2.007,-0.858,-0.333
2575.0,-7.911,-2.274,-0.072,-2.007,-0.858,-0.333
2580.0,-7.911,-2.274,0.051,-2.007,-0.858,-0.333
2584.0,-7.497,-2.319,0.051,-1.911,-0.763,-0.461
2588.0,-7.497,-2.319,0.051,-1.911,-0.763,-0.461
2592.0,-7.455,-2.326,0.114,-1.773,-0.665,-0.572
2596.0,-7.455,-2.326,0.114,-1.773,-0.665,-0.572
2600.0,-7.544,-2.391,0.087,-1.773,-0.573,-0.658
2604.0,-7.544,-2.391,0.087,-1.594,-0.573,-0.658
2608.0,-7.544,-2.391,0.087,-1.594,-0.573,-0.658
2612.0,-7.807,-2.492,-0.077,-1.38,-0.498,-0.713
2616.0,-7.807,-2.492,-0.077,-1.38,-0.498,-0.713
2621.0,-8.425,-2.605,-0.367,-1.142,-0.432,-0.737
2625.0,-8.425,-2.605,-0.367,-1.142,-0.432,-0.737
2629.0,-8.425,-2.605,-0.636,-1.142,-0.432,-0.737
2633.0,-9.32,-2.774,-0.636,-0.892,-0.36,-0.728
2637.0,-9.32,-2.774,-0.636,-0.892,-0.36,-0.728
2641.0,-10.218,-3.007,-0.791,-0.635,-0.289,-0.69
2646.0,-10.218,-3.007,-0.791,-0.635,-0.289,-0.69
2650.0,-11.039,-3.272,-0.893,-0.373,-0.234,-0.638
2654.0,-11.039,-3.272,-0.893,-0.373,-0.234,-0.638
2658.0,-11.039,-3.272,-0.97,-0.373,-0.234,-0.638
2663.0,-11.699,-3.486,-0.97,-0.11,-0.201,-0.59
2667.0,-11.699,-3.486,-0.97,-0.11,-0.201,-0.59
2671.0,-11.934,-3.625,-0.994,0.153,-0.192,-0.568
2675.0,-11.934,-3.625,-0.994,0.153,-0.192,-0.568
2679.0,-11.65,-3.629,-1.002,0.415,-0.202,-0.591
2684.0,-11.65,-3.629,-1.002,0.415,-0.202,-0.591
2688.0,-11.65,-3.629,-1.002,0.415,-0.202,-0.591
2692.0,-10.991,-3.43,-1.055,0.671,-0.214,-0.663
2696.0,-10.991,-3.43,-1.055,0.671,-0.214,-0.663
2700.0,-10.396,-3.088,-1.1,0.915,-0.214,-0.766
2704.0,-10.396,-3.088,-1.1,0.915,-0.214,-0.766
2709.0,-9.925,-2.726,-1.125,0.915,-0.196,-0.873
2713.0,-9.925,-2.726,-1.125,1.139,-0.196,-0.873
2717.0,-9.925,-2.726,-1.125,1.139,-0.196,-0.873
2721.0,-9.58,-2.417,-1.207,1.343,-0.162,-0.965
2725.0,-9.58,-2.417,-1.207,1.343,-0.162,-0.965
2729.0,-9.398,-2.145,-1.302,1.527,-0.118,-1.04
2733.0,-9.398,-2.145,-1.302,1.527,-0.118,-1.04
2737.0,-9.398,-2.145,-1.302,1.527,-0.118,-1.04
2741.0,-9.407,-1.924,-1.404,1.689,-0.07,-1.086
2745.0,-9.407,-1.924,-1.404,1.689,-0.07,-1.086
2749.0,-9.562,-1.75,-1.45,1.825,-0.031,-1.101
2754.0,-9.562,-1.75,-1.45,1.825,-0.031,-1.101
2758.0,-9.735,-1.647,-1.505,1.825,-0.031,-1.101
2762.0,-9.735,-1.647,-1.505,1.926,-0.008,-1.088
2766.0,-9.735,-1.647,-1.505,1.926,-0.008,-1.088
2770.0,-9.85,-1.645,-1.547,1.995,0.007,-1.046
2774.0,-9.85,-1.645,-1.547,1.995,0.007,-1.046
2778.0,-9.938,-1.651,-1.539,2.03,0.019,-0.986
2782.0,-9.938,-1.651,-1.539,2.03,0.019,-0.986
2786.0,-9.938,-1.651,-1.539,2.03,0.019,-0.986
2790.0,-9.965,-1.667,-1.536,2.028,0.022,-0.925
2794.0,-9.965,-1.667,-1.536,2.028,0.022,-0.925
2798.0,-9.803,-1.659,-1.451,1.989,0.019,-0.869
2802.0,-9.803,-1.659,-1.451,1.989,0.019,-0.869
2806.0,-9.803,-1.659,-1.451,1.989,0.019,-0.869
2810.0,-9.522,-1.632,-1.391,1.916,0.015,-0.82
2814.0,-9.522,-1.632,-1.391,1.916,0.015,-0.82
2818.0,-9.243,-1.568,-1.3,1.817,0.016,-0.782
2822.0,-9.243,-1.568,-1.3,1.817,0.016,-0.782
2826.0,-9.243,-1.568,-1.3,1.817,0.016,-0.782
2830.0,-9.078,-1.466,-1.207,1.697,0.026,-0.757
2834.0,-9.078,-1.466,-1.207,1.697,0.026,-0.757
2838.0,-9.194,-1.399,-1.18,1.564,0.046,-0.726
2842.0,-9.194,-1.399,-1.18,1.564,0.046,-0.726
2846.0,-9.194,-1.399,-1.18,1.564,0.046,-0.726
2850.0,-9.483,-1.312,-1.241,1.428,0.079,-0.671
2854.0,-9.483,-1.312,-1.241,1.428,0.079,-0.671
2858.0,-9.798,-1.25,-1.192,1.283,0.115,-0.591
2862.0,-9.798,-1.25,-1.192,1.283,0.115,-0.591
2866.0,-9.798,-1.25,-1.111,1.283,0.115,-0.591
2870.0,-9.979,-1.256,-1.111,1.128,0.146,-0.486
2874.0,-9.979,-1.256,-1.111,1.128,0.146,-0.486
2878.0,-10.05,-1.339,-1.003,0.967,0.176,-0.37
2882.0,-10.05,-1.339,-1.003,0.967,0.176,-0.37
2886.0,-10.101,-1.433,-0.831,0.967,0.176,-0.37
2890.0,-10.101,-1.433,-0.831,0.809,0.206,-0.262
2894.0,-10.101,-1.433,-0.831,0.809,0.206,-0.262
2898.0,-10.047,-1.541,-0.642,0.671,0.229,-0.177
2902.0,-10.047,-1.541,-0.642,0.671,0.229,-0.177
2906.0,-9.836,-1.578,-0.44,0.561,0.229,-0.127
2910.0,-9.836,-1.578,-0.44,0.561,0.229,-0.127
2914.0,-9.836,-1.578,-0.44,0.561,0.229,-0.127
2918.0,-9.505,-1.601,-0.354,0.48,0.204,-0.116
2922.0,-9.505,-1.601,-0.354,0.48,0.204,-0.116
2926.0,-9.282,-1.525,-0.327,0.426,0.174,-0.138
2930.0,-9.282,-1.525,-0.327,0.426,0.174,-0.138
2934.0,-9.282,-1.525,-0.327,0.426,0.174,-0.138
2938.0,-9.214,-1.401,-0.387,0.392,0.15,-0.183
2942.0,-9.214,-1.401,-0.387,0.392,0.15,-0.183
2946.0,-9.415,-1.234,-0.491,0.368,0.14,-0.231
2950.0,-9.415,-1.234,-0.491,0.368,0.14,-0.231
2954.0,-9.415,-1.234,-0.491,0.368,0.14,-0.231
2958.0,-9.867,-1.11,-0.593,0.343,0.149,-0.256
2962.0,-9.867,-1.11,-0.593,0.343,0.149,-0.256
2966.0,-10.408,-1.058,-0.638,0.306,0.174,-0.236
2970.0,-10.408,-1.058,-0.638,0.306,0.174,-0.236
2974.0,-10.408,-1.058,-0.547,0.306,0.174,-0.236
2978.0,-10.785,-1.149,-0.547,0.253,0.199,-0.168
2982.0,-10.785,-1.149,-0.547,0.253,0.199,-0.168
2987.0,-10.911,-1.36,-0.352,0.191,0.207,-0.069
2991.0,-10.911,-1.36,-0.352,0.191,0.207,-0.069
2995.0,-10.836,-1.589,-0.097,0.191,0.207,0.035
2999.0,-10.836,-1.589,-0.097,0.129,0.191,0.035
