deltaTime,Acc_X,Acc_Y,Acc_Z,Gyro_X,Gyro_Y,Gyro_Z
0.0,-6.589,-2.313,3.419,-0.815,-0.248,0.11
3.0,-6.589,-2.313,3.419,-0.815,-0.248,0.11
6.0,-6.589,-2.313,3.419,-0.815,-0.248,0.11
9.0,-7.05,-2.246,3.723,-0.815,-0.229,0.099
12.0,-7.05,-2.246,3.723,-0.835,-0.229,0.099
15.0,-7.05,-2.246,3.723,-0.835,-0.229,0.099
18.0,-7.05,-2.246,4.231,-0.835,-0.229,0.099
21.0,-7.531,-2.593,4.231,-0.892,-0.23,0.058
24.0,-7.531,-2.593,4.231,-0.892,-0.23,0.058
27.0,-7.531,-2.593,4.231,-0.892,-0.23,0.058
30.0,-8.043,-3.251,4.819,-0.902,-0.221,0.006
33.0,-8.043,-3.251,4.819,-0.902,-0.221,0.006
37.0,-8.043,-3.251,4.819,-0.902,-0.221,0.006
41.0,-8.465,-3.62,5.464,-0.786,-0.261,-0.055
45.0,-8.465,-3.62,5.464,-0.786,-0.261,-0.055
49.0,-8.612,-3.443,5.786,-0.599,-0.321,-0.129
52.0,-8.612,-3.443,5.786,-0.599,-0.321,-0.129
56.0,-8.612,-3.443,5.786,-0.599,-0.321,-0.129
60.0,-8.621,-3.058,5.867,-0.429,-0.371,-0.195
64.0,-8.621,-3.058,5.867,-0.429,-0.371,-0.195
68.0,-8.633,-2.64,5.779,-0.429,-0.404,-0.232
72.0,-8.633,-2.64,5.779,-0.308,-0.404,-0.232
76.0,-8.633,-2.64,5.779,-0.308,-0.404,-0.232
80.0,-8.817,-2.376,5.693,-0.243,-0.404,-0.24
84.0,-8.817,-2.376,5.693,-0.243,-0.404,-0.24
88.0,-8.903,-2.211,5.611,-0.243,-0.404,-0.228
92.0,-8.903,-2.211,5.611,-0.209,-0.374,-0.228
95.0,-8.903,-2.211,5.611,-0.209,-0.374,-0.228
99.0,-8.922,-1.874,5.636,-0.215,-0.311,-0.223
103.0,-8.922,-1.874,5.636,-0.215,-0.311,-0.223
107.0,-9.063,-1.973,5.901,-0.215,-0.311,-0.223
111.0,-9.063,-1.973,5.901,-0.266,-0.225,-0.222
115.0,-9.063,-1.973,5.901,-0.266,-0.225,-0.222
119.0,-9.343,-2.085,6.309,-0.291,-0.15,-0.21
123.0,-9.343,-2.085,6.309,-0.291,-0.15,-0.21
127.0,-9.809,-2.207,6.841,-0.291,-0.09,-0.204
131.0,-9.809,-2.207,6.841,-0.29,-0.09,-0.204
135.0,-9.809,-2.207,6.841,-0.29,-0.09,-0.204
139.0,-10.33,-2.189,7.475,-0.26,-0.078,-0.204
143.0,-10.33,-2.189,7.475,-0.26,-0.078,-0.204
147.0,-10.751,-2.122,7.933,-0.216,-0.111,-0.194
151.0,-10.751,-2.122,7.933,-0.216,-0.111,-0.194
156.0,-10.751,-2.122,7.933,-0.216,-0.111,-0.194
160.0,-10.909,-2.257,8.185,-0.171,-0.172,-0.174
164.0,-10.909,-2.257,8.185,-0.171,-0.172,-0.174
168.0,-10.493,-2.53,8.113,-0.101,-0.242,-0.144
172.0,-10.493,-2.53,8.113,-0.101,-0.242,-0.144
176.0,-10.493,-2.53,7.87,-0.101,-0.242,-0.144
180.0,-9.921,-2.483,7.87,-0.006,-0.294,-0.129
184.0,-9.921,-2.483,7.87,-0.006,-0.294,-0.129
188.0,-9.643,-2.375,7.536,0.061,-0.305,-0.143
192.0,-9.643,-2.375,7.536,0.061,-0.305,-0.143
196.0,-9.643,-2.221,7.245,0.061,-0.305,-0.143
200.0,-9.668,-2.221,7.245,0.089,-0.278,-0.157
204.0,-9.668,-2.221,7.245,0.089,-0.278,-0.157
208.0,-9.881,-2.021,7.11,0.066,-0.219,-0.173
211.0,-9.881,-2.021,7.11,0.066,-0.219,-0.173
215.0,-9.881,-2.021,7.15,0.066,-0.219,-0.173
219.0,-10.188,-2.105,7.15,-0.006,-0.15,-0.18
223.0,-10.188,-2.105,7.15,-0.006,-0.15,-0.18
227.0,-10.648,-2.393,7.222,-0.078,-0.08,-0.157
231.0,-10.648,-2.393,7.222,-0.078,-0.08,-0.157
236.0,-10.973,-2.558,7.175,-0.078,-0.08,-0.157
240.0,-10.973,-2.558,7.175,-0.15,-0.016,-0.102
244.0,-10.973,-2.558,7.175,-0.15,-0.016,-0.102
248.0,-11.203,-2.962,7.174,-0.254,0.046,-0.03
252.0,-11.203,-2.962,7.174,-0.254,0.046,-0.03
256.0,-11.368,-3.58,7.273,-0.365,0.096,0.036
260.0,-11.368,-3.58,7.273,-0.365,0.096,0.036
264.0,-11.368,-3.58,7.273,-0.365,0.096,0.036
268.0,-11.211,-4.213,7.344,-0.429,0.12,0.085
271.0,-11.211,-4.213,7.344,-0.429,0.12,0.085
275.0,-10.59,-4.585,7.311,-0.429,0.112,0.111
279.0,-10.59,-4.585,7.311,-0.419,0.112,0.111
283.0,-10.59,-4.585,7.311,-0.419,0.112,0.111
287.0,-9.785,-4.577,7.095,-0.348,0.071,0.121
291.0,-9.785,-4.577,7.095,-0.348,0.071,0.121
295.0,-8.998,-4.105,6.76,-0.348,0.071,0.121
298.0,-8.998,-4.105,6.76,-0.275,0.008,0.123
302.0,-8.998,-4.105,6.76,-0.275,0.008,0.123
306.0,-8.294,-3.626,6.327,-0.28,-0.069,0.113
310.0,-8.294,-3.626,6.327,-0.28,-0.069,0.113
314.0,-8.294,-3.626,6.327,-0.28,-0.069,0.113
318.0,-7.641,-3.446,5.835,-0.395,-0.134,0.094
322.0,-7.641,-3.446,5.835,-0.395,-0.134,0.094
326.0,-7.646,-3.616,5.525,-0.587,-0.159,0.075
330.0,-7.646,-3.616,5.525,-0.587,-0.159,0.075
333.0,-7.646,-3.616,5.525,-0.587,-0.159,0.075
337.0,-7.567,-3.696,5.387,-0.813,-0.152,0.058
341.0,-7.567,-3.696,5.387,-0.813,-0.152,0.058
345.0,-7.788,-3.951,5.497,-1.06,-0.135,0.062
349.0,-7.788,-3.951,5.497,-1.06,-0.135,0.062
353.0,-7.788,-3.951,5.497,-1.06,-0.135,0.062
357.0,-8.316,-4.963,5.989,-1.287,-0.088,0.1
361.0,-8.316,-4.963,5.989,-1.287,-0.088,0.1
365.0,-8.888,-5.836,6.293,-1.356,-0.074,0.165
369.0,-8.888,-5.836,6.293,-1.356,-0.074,0.165
373.0,-8.888,-5.836,6.293,-1.356,-0.074,0.165
376.0,-9.355,-6.735,6.428,-1.252,-0.125,0.221
380.0,-9.355,-6.735,6.428,-1.252,-0.125,0.221
384.0,-9.626,-7.609,6.398,-0.965,-0.209,0.266
388.0,-9.626,-7.609,6.398,-0.965,-0.209,0.266
392.0,-9.626,-7.609,6.398,-0.965,-0.209,0.266
396.0,-9.58,-8.079,6.118,-0.519,-0.298,0.314
400.0,-9.58,-8.079,6.118,-0.519,-0.298,0.314
404.0,-9.774,-7.684,5.469,-0.009,-0.385,0.338
408.0,-9.774,-7.684,5.469,-0.009,-0.385,0.338
412.0,-9.774,-7.684,5.469,-0.009,-0.385,0.338
416.0,-9.465,-7.136,4.902,0.444,-0.499,0.306
419.0,-9.465,-7.136,4.902,0.444,-0.499,0.306
423.0,-8.727,-6.612,4.548,0.444,-0.499,0.25
427.0,-8.727,-6.612,4.548,0.81,-0.581,0.25
431.0,-8.727,-6.612,4.548,0.81,-0.581,0.25
435.0,-8.122,-6.121,4.323,1.112,-0.61,0.208
438.0,-8.122,-6.121,4.323,1.112,-0.61,0.208
442.0,-8.122,-6.121,4.323,1.112,-0.61,0.208
446.0,-7.804,-5.594,4.255,1.36,-0.607,0.189
450.0,-7.804,-5.594,4.255,1.36,-0.607,0.189
454.0,-7.58,-5.127,4.314,1.554,-0.596,0.179
458.0,-7.58,-5.127,4.314,1.554,-0.596,0.179
461.0,-7.58,-5.127,4.314,1.554,-0.596,0.179
465.0,-7.457,-4.684,4.612,1.694,-0.584,0.174
469.0,-7.457,-4.684,4.612,1.694,-0.584,0.174
473.0,-7.509,-4.277,5.058,1.694,-0.586,0.186
477.0,-7.509,-4.277,5.058,1.786,-0.586,0.186
480.0,-7.509,-4.277,5.058,1.786,-0.586,0.186
484.0,-7.643,-4.031,5.48,1.829,-0.618,0.22
488.0,-7.643,-4.031,5.48,1.829,-0.618,0.22
492.0,-7.643,-3.945,5.825,1.829,-0.618,0.22
496.0,-7.697,-3.945,5.825,1.829,-0.674,0.263
500.0,-7.697,-3.945,5.825,1.829,-0.674,0.263
503.0,-7.524,-3.943,6.047,1.799,-0.732,0.292
507.0,-7.524,-3.943,6.047,1.799,-0.732,0.292
511.0,-7.524,-3.943,6.047,1.799,-0.732,0.292
515.0,-7.091,-3.961,6.221,1.754,-0.769,0.3
519.0,-7.091,-3.961,6.221,1.754,-0.769,0.3
522.0,-6.73,-3.936,6.418,1.707,-0.782,0.282
526.0,-6.73,-3.936,6.418,1.707,-0.782,0.282
530.0,-6.73,-3.936,6.418,1.707,-0.782,0.282
534.0,-6.552,-3.854,6.647,1.675,-0.777,0.245
538.0,-6.552,-3.854,6.647,1.675,-0.777,0.245
542.0,-6.58,-3.708,6.851,1.675,-0.777,0.245
545.0,-6.58,-3.708,6.851,1.66,-0.78,0.203
549.0,-6.58,-3.708,6.851,1.66,-0.78,0.203
553.0,-6.677,-3.503,7.115,1.652,-0.807,0.169
557.0,-6.677,-3.503,7.115,1.652,-0.807,0.169
561.0,-6.677,-3.503,7.115,1.652,-0.807,0.169
564.0,-6.842,-3.412,7.481,1.649,-0.857,0.145
568.0,-6.842,-3.412,7.481,1.649,-0.857,0.145
572.0,-7.095,-3.449,7.929,1.658,-0.926,0.125
576.0,-7.095,-3.449,7.929,1.658,-0.926,0.125
580.0,-7.095,-3.449,7.929,1.658,-0.926,0.125
584.0,-7.373,-3.53,8.394,1.686,-1.012,0.106
587.0,-7.373,-3.53,8.394,1.686,-1.012,0.106
591.0,-7.653,-3.568,8.833,1.686,-1.116,0.094
595.0,-7.653,-3.568,8.833,1.73,-1.116,0.094
599.0,-7.653,-3.568,8.833,1.73,-1.116,0.094
603.0,-7.847,-3.639,9.219,1.777,-1.228,0.093
606.0,-7.847,-3.639,9.219,1.777,-1.228,0.093
610.0,-7.847,-3.641,9.608,1.777,-1.228,0.093
614.0,-7.894,-3.641,9.608,1.826,-1.343,0.095
618.0,-7.894,-3.641,9.608,1.826,-1.343,0.095
622.0,-7.834,-3.477,9.86,1.87,-1.457,0.095
626.0,-7.834,-3.477,9.86,1.87,-1.457,0.095
629.0,-7.834,-3.477,9.86,1.87,-1.457,0.095
633.0,-7.854,-3.313,10.046,1.899,-1.563,0.1
637.0,-7.854,-3.313,10.046,1.899,-1.563,0.1
641.0,-8.066,-3.215,10.33,1.914,-1.662,0.113
645.0,-8.066,-3.215,10.33,1.914,-1.662,0.113
649.0,-8.066,-3.215,10.33,1.914,-1.662,0.113
653.0,-8.391,-3.194,10.799,1.929,-1.771,0.126
657.0,-8.391,-3.194,10.799,1.929,-1.771,0.126
661.0,-8.913,-3.216,11.454,1.955,-1.915,0.132
664.0,-8.913,-3.216,11.454,1.955,-1.915,0.132
668.0,-8.913,-3.216,11.454,1.955,-1.915,0.132
672.0,-9.395,-3.491,12.006,1.997,-2.113,0.123
676.0,-9.395,-3.491,12.006,1.997,-2.113,0.123
680.0,-9.678,-3.864,12.284,1.997,-2.338,0.096
684.0,-9.678,-3.864,12.284,2.042,-2.338,0.096
688.0,-9.678,-3.864,12.284,2.042,-2.338,0.096
692.0,-9.74,-4.087,12.558,2.084,-2.552,0.048
696.0,-9.74,-4.087,12.558,2.084,-2.552,0.048
700.0,-9.768,-3.989,12.875,2.084,-2.552,-0.005
704.0,-9.768,-3.989,12.875,2.118,-2.738,-0.005
708.0,-9.768,-3.989,12.875,2.118,-2.738,-0.005
712.0,-9.867,-3.844,13.271,2.136,-2.904,-0.045
716.0,-9.867,-3.844,13.271,2.136,-2.904,-0.045
720.0,-9.997,-3.968,13.563,2.136,-3.073,-0.074
724.0,-9.997,-3.968,13.563,2.13,-3.073,-0.074
728.0,-9.997,-3.968,13.563,2.13,-3.073,-0.074
732.0,-10.115,-4.489,13.708,2.066,-3.244,-0.108
736.0,-10.115,-4.489,13.708,2.066,-3.244,-0.108
740.0,-10.189,-4.939,14.121,1.926,-3.391,-0.163
744.0,-10.189,-4.939,14.121,1.926,-3.391,-0.163
748.0,-10.189,-4.939,14.121,1.926,-3.391,-0.163
752.0,-10.029,-5.1,14.725,1.778,-3.526,-0.264
756.0,-10.029,-5.1,14.725,1.778,-3.526,-0.264
760.0,-9.741,-5.212,15.376,1.72,-3.698,-0.42
764.0,-9.741,-5.212,15.376,1.72,-3.698,-0.42
768.0,-9.741,-5.212,15.672,1.72,-3.698,-0.42
772.0,-9.467,-5.622,15.672,1.79,-3.929,-0.571
776.0,-9.467,-5.622,15.672,1.79,-3.929,-0.571
780.0,-8.994,-6.335,15.37,1.954,-4.169,-0.644
784.0,-8.994,-6.335,15.37,1.954,-4.169,-0.644
788.0,-8.994,-7.218,14.765,1.954,-4.169,-0.644
792.0,-8.499,-7.218,14.765,2.183,-4.341,-0.636
796.0,-8.499,-7.218,14.765,2.183,-4.341,-0.636
800.0,-8.344,-8.04,14.099,2.479,-4.413,-0.591
804.0,-8.344,-8.04,14.099,2.479,-4.413,-0.591
808.0,-7.904,-8.359,13.308,2.479,-4.413,-0.591
812.0,-7.904,-8.359,13.308,2.868,-4.516,-0.573
816.0,-7.904,-8.359,13.308,2.868,-4.516,-0.573
820.0,-7.001,-7.942,12.521,3.284,-4.578,-0.601
824.0,-7.001,-7.942,12.521,3.284,-4.578,-0.601
828.0,-6.006,-7.125,11.909,3.284,-4.578,-0.682
832.0,-6.006,-7.125,11.909,3.694,-4.57,-0.682
836.0,-6.006,-7.125,11.909,3.694,-4.57,-0.682
840.0,-4.996,-6.169,11.283,4.075,-4.523,-0.82
844.0,-4.996,-6.169,11.283,4.075,-4.523,-0.82
848.0,-4.624,-5.23,10.668,4.387,-4.425,-1.015
852.0,-4.624,-5.23,10.668,4.387,-4.425,-1.015
856.0,-4.624,-5.23,10.668,4.387,-4.425,-1.015
860.0,-4.029,-4.151,10.079,4.658,-4.422,-1.22
864.0,-4.029,-4.151,10.079,4.658,-4.422,-1.22
868.0,-3.687,-3.447,9.183,4.817,-4.396,-1.378
872.0,-3.687,-3.447,9.183,4.817,-4.396,-1.378
876.0,-3.687,-3.447,9.183,4.817,-4.396,-1.378
880.0,-3.173,-3.068,8.368,4.881,-4.328,-1.472
884.0,-3.173,-3.068,8.368,4.881,-4.328,-1.472
887.0,-2.645,-2.919,7.647,4.884,-4.236,-1.558
891.0,-2.645,-2.919,7.647,4.884,-4.236,-1.558
895.0,-2.645,-2.919,7.647,4.884,-4.236,-1.558
899.0,-2.066,-2.687,6.823,4.847,-4.153,-1.667
903.0,-2.066,-2.687,6.823,4.847,-4.153,-1.667
907.0,-1.64,-2.548,6.004,4.847,-4.054,-1.775
911.0,-1.64,-2.548,6.004,4.767,-4.054,-1.775
915.0,-1.64,-2.548,6.004,4.767,-4.054,-1.775
919.0,-1.222,-2.485,5.235,4.656,-3.947,-1.862
923.0,-1.222,-2.485,5.235,4.656,-3.947,-1.862
927.0,-0.756,-2.262,4.475,4.656,-3.947,-1.862
930.0,-0.756,-2.262,4.475,4.549,-3.837,-1.937
934.0,-0.756,-2.262,4.475,4.549,-3.837,-1.937
938.0,-0.425,-1.841,3.831,4.452,-3.704,-2.009
942.0,-0.425,-1.841,3.831,4.452,-3.704,-2.009
946.0,-0.519,-1.408,3.203,4.452,-3.704,-2.009
950.0,-0.519,-1.408,3.203,4.36,-3.549,-2.072
954.0,-0.519,-1.408,3.203,4.36,-3.549,-2.072
958.0,-0.274,-0.61,2.643,4.298,-3.47,-2.096
962.0,-0.274,-0.61,2.643,4.298,-3.47,-2.096
966.0,-0.274,-0.61,2.288,4.298,-3.47,-2.096
969.0,-0.282,0.136,2.288,4.21,-3.38,-2.053
973.0,-0.282,0.136,2.288,4.21,-3.38,-2.053
977.0,-0.678,1.158,2.127,4.116,-3.309,-1.95
981.0,-0.678,1.158,2.127,4.116,-3.309,-1.95
985.0,-0.678,1.158,2.127,4.116,-3.309,-1.95
989.0,-1.091,2.259,1.836,4.018,-3.289,-1.774
992.0,-1.091,2.259,1.836,4.018,-3.289,-1.774
996.0,-1.228,3.471,1.404,3.917,-3.298,-1.527
1000.0,-1.228,3.471,1.404,3.917,-3.298,-1.527
1004.0,-1.228,3.471,1.404,3.917,-3.298,-1.527
1008.0,-1.159,4.494,0.696,3.826,-3.319,-1.22
1012.0,-1.159,4.494,0.696,3.826,-3.319,-1.22
1016.0,-0.786,5.214,-0.234,3.826,-3.33,-0.877
1020.0,-0.786,5.214,-0.234,3.727,-3.33,-0.877
1024.0,-0.786,5.214,-0.234,3.727,-3.33,-0.877
1028.0,-0.176,5.897,-1.075,3.607,-3.283,-0.55
1032.0,-0.176,5.897,-1.075,3.607,-3.283,-0.55
1036.0,0.388,6.722,-1.759,3.457,-3.157,-0.278
1040.0,0.388,6.722,-1.759,3.457,-3.157,-0.278
1043.0,0.388,6.722,-1.759,3.457,-3.157,-0.278
1047.0,0.906,7.693,-2.271,3.273,-2.975,-0.074
1051.0,0.906,7.693,-2.271,3.273,-2.975,-0.074
1055.0,1.345,8.916,-2.38,3.273,-2.762,0.075
1059.0,1.345,8.916,-2.38,3.066,-2.762,0.075
1063.0,1.345,8.916,-2.38,3.066,-2.762,0.075
1067.0,1.623,10.158,-2.417,2.875,-2.552,0.21
1071.0,1.623,10.158,-2.417,2.875,-2.552,0.21
1074.0,2.084,11.332,-2.834,2.875,-2.552,0.21
1078.0,2.084,11.332,-2.834,2.727,-2.346,0.355
1082.0,2.084,11.332,-2.834,2.727,-2.346,0.355
1086.0,2.959,12.591,-3.548,2.647,-2.11,0.517
1090.0,2.959,12.591,-3.548,2.647,-2.11,0.517
1094.0,2.959,13.782,-4.359,2.647,-2.11,0.517
1098.0,4.14,13.782,-4.359,2.644,-1.828,0.708
1102.0,4.14,13.782,-4.359,2.644,-1.828,0.708
1106.0,5.487,14.554,-5.216,2.711,-1.491,0.946
1110.0,5.487,14.554,-5.216,2.711,-1.491,0.946
1114.0,5.487,14.554,-5.538,2.711,-1.491,0.946
1117.0,6.681,14.986,-5.538,2.812,-1.086,1.208
1121.0,6.681,14.986,-5.538,2.812,-1.086,1.208
1125.0,7.586,15.593,-5.902,2.921,-0.644,1.481
1129.0,7.586,15.593,-5.902,2.921,-0.644,1.481
1133.0,7.586,15.593,-5.902,2.921,-0.644,1.481
1137.0,8.382,16.222,-6.214,3.025,-0.179,1.781
1141.0,8.382,16.222,-6.214,3.025,-0.179,1.781
1145.0,9.25,16.889,-6.691,3.107,0.304,2.096
1149.0,9.25,16.889,-6.691,3.107,0.304,2.096
1152.0,9.25,16.889,-6.691,3.107,0.304,2.096
1156.0,10.233,17.693,-7.661,3.14,0.839,2.426
1160.0,10.233,17.693,-7.661,3.14,0.839,2.426
1164.0,11.236,18.571,-8.755,3.116,1.412,2.756
1168.0,11.236,18.571,-8.755,3.116,1.412,2.756
1172.0,11.236,18.571,-8.755,3.116,1.412,2.756
1176.0,11.964,19.013,-9.584,3.011,2.03,3.087
1180.0,11.964,19.013,-9.584,3.011,2.03,3.087
1184.0,12.236,19.027,-9.48,2.795,2.672,3.407
1187.0,12.236,19.027,-9.48,2.795,2.672,3.407
1191.0,12.236,19.027,-9.48,2.795,2.672,3.407
1195.0,11.996,18.678,-8.766,2.424,3.287,3.707
1199.0,11.996,18.678,-8.766,2.424,3.287,3.707
1203.0,11.192,17.724,-7.949,2.424,3.287,4.016
1207.0,11.192,17.724,-7.949,1.943,3.857,4.016
1211.0,11.192,17.724,-7.949,1.943,3.857,4.016
1215.0,9.399,15.969,-6.559,1.445,4.365,4.334
1219.0,9.399,15.969,-6.559,1.445,4.365,4.334
1222.0,7.12,13.989,-5.274,1.445,4.365,4.334
1226.0,7.12,13.989,-5.274,0.999,4.773,4.649
1230.0,7.12,13.989,-5.274,0.999,4.773,4.649
1234.0,4.517,12.163,-4.161,0.595,5.0,4.927
1238.0,4.517,12.163,-4.161,0.595,5.0,4.927
1242.0,4.517,12.163,-4.161,0.595,5.0,4.927
1245.0,1.546,10.774,-3.028,0.171,5.015,5.012
1249.0,1.546,10.774,-3.028,0.171,5.015,5.012
1253.0,-1.958,9.478,-1.939,-0.328,5.015,5.013
1257.0,-1.958,9.478,-1.939,-0.328,5.015,5.013
1261.0,-1.958,9.478,-1.939,-0.328,5.015,5.013
1265.0,-5.695,8.021,-1.205,-0.95,5.015,5.013
1269.0,-5.695,8.021,-1.205,-0.95,5.015,5.013
1273.0,-9.937,6.218,-0.413,-1.716,5.015,5.013
1276.0,-9.937,6.218,-0.413,-1.716,5.015,5.013
1280.0,-9.937,6.218,-0.413,-1.716,5.015,5.013
1284.0,-16.136,3.818,1.424,-2.606,5.015,5.013
1288.0,-16.136,3.818,1.424,-2.606,5.015,5.013
1292.0,-19.58,0.379,3.922,-2.606,4.82,4.991
1296.0,-19.58,0.379,3.922,-3.531,4.82,4.991
1300.0,-19.58,0.379,3.922,-3.531,4.82,4.991
1304.0,-19.6,-3.647,5.194,-4.302,3.964,4.55
1308.0,-19.6,-3.647,5.194,-4.302,3.964,4.55
1312.0,-19.6,-7.006,5.149,-4.302,2.741,3.645
1316.0,-19.6,-7.006,5.149,-4.74,2.741,3.645
1320.0,-19.6,-7.006,5.149,-4.74,2.741,3.645
1324.0,-17.108,-10.099,4.303,-4.751,1.429,2.594
1328.0,-17.108,-10.099,4.303,-4.751,1.429,2.594
1332.0,-12.153,-12.24,3.753,-4.339,0.26,1.32
1336.0,-12.153,-12.24,3.753,-4.339,0.26,1.32
1340.0,-12.153,-12.24,3.753,-4.339,0.26,1.32
1344.0,-8.806,-13.207,4.018,-3.695,-0.701,-0.063
1348.0,-8.806,-13.207,4.018,-3.695,-0.701,-0.063
1352.0,-6.508,-13.281,4.11,-2.963,-1.426,-1.324
1357.0,-6.508,-13.281,4.11,-2.963,-1.426,-1.324
1361.0,-4.527,-12.392,3.861,-2.963,-1.426,-1.324
1365.0,-4.527,-12.392,3.861,-2.113,-1.883,-2.305
1369.0,-4.527,-12.392,3.861,-2.113,-1.883,-2.305
1373.0,-2.972,-11.131,4.281,-1.172,-2.114,-2.944
1377.0,-2.972,-11.131,4.281,-1.172,-2.114,-2.944
1382.0,-1.868,-9.83,4.374,-0.248,-2.257,-3.303
1386.0,-1.868,-9.83,4.374,-0.248,-2.257,-3.303
1390.0,-1.868,-9.83,4.374,-0.248,-2.257,-3.303
1394.0,-1.067,-8.445,3.728,0.568,-2.374,-3.519
1398.0,-1.067,-8.445,3.728,0.568,-2.374,-3.519
1402.0,-0.588,-6.919,2.894,1.215,-2.465,-3.701
1406.0,-0.588,-6.919,2.894,1.215,-2.465,-3.701
1410.0,-0.588,-5.284,2.147,1.215,-2.465,-3.701
1414.0,-0.154,-5.284,2.147,1.648,-2.559,-3.904
1418.0,-0.154,-5.284,2.147,1.648,-2.559,-3.904
1422.0,0.389,-3.662,1.828,1.895,-2.654,-4.136
1426.0,0.389,-3.662,1.828,1.895,-2.654,-4.136
1430.0,0.389,-2.024,1.853,1.895,-2.654,-4.136
1434.0,1.257,-2.024,1.853,2.006,-2.748,-4.386
1437.0,1.257,-2.024,1.853,2.006,-2.748,-4.386
1441.0,2.526,-0.202,1.836,2.036,-2.808,-4.644
1445.0,2.526,-0.202,1.836,2.036,-2.808,-4.644
1449.0,2.526,-0.202,2.151,2.036,-2.808,-4.644
1453.0,4.012,1.466,2.151,2.033,-2.802,-4.879
1457.0,4.012,1.466,2.151,2.033,-2.802,-4.879
1461.0,5.299,2.907,2.802,2.041,-2.776,-4.99
1465.0,5.299,2.907,2.802,2.041,-2.776,-4.99
1468.0,5.299,2.907,2.802,2.041,-2.776,-4.99
1472.0,6.263,4.377,3.159,2.076,-2.793,-4.995
1476.0,6.263,4.377,3.159,2.076,-2.793,-4.995
1480.0,6.675,5.79,2.926,2.129,-2.829,-4.995
1484.0,6.675,5.79,2.926,2.129,-2.829,-4.995
1487.0,6.675,5.79,2.926,2.129,-2.829,-4.995
1491.0,6.589,7.031,1.933,2.196,-2.869,-4.995
1495.0,6.589,7.031,1.933,2.196,-2.869,-4.995
1499.0,6.237,7.993,0.703,2.196,-2.869,-4.995
1503.0,6.237,7.993,0.703,2.248,-2.889,-4.995
1507.0,6.237,7.993,0.703,2.248,-2.889,-4.995
1510.0,5.696,9.067,-0.632,2.245,-2.893,-4.995
1514.0,5.696,9.067,-0.632,2.245,-2.893,-4.995
1518.0,5.696,9.067,-2.418,2.245,-2.893,-4.995
1522.0,5.809,10.951,-2.418,2.163,-2.898,-4.995
1526.0,5.809,10.951,-2.418,2.163,-2.898,-4.995
1530.0,6.409,13.814,-4.047,1.991,-2.863,-4.989
1534.0,6.409,13.814,-4.047,1.991,-2.863,-4.989
1538.0,6.409,13.814,-5.551,1.991,-2.863,-4.989
1542.0,7.14,17.163,-5.551,1.783,-2.75,-4.853
1546.0,7.14,17.163,-5.551,1.783,-2.75,-4.853
1550.0,8.07,19.482,-7.595,1.554,-2.596,-4.491
1554.0,8.07,19.482,-7.595,1.554,-2.596,-4.491
1558.0,9.482,19.596,-9.452,1.554,-2.596,-4.491
1562.0,9.482,19.596,-9.452,1.288,-2.382,-4.017
1566.0,9.482,19.596,-9.452,1.288,-2.382,-4.017
1570.0,10.688,19.596,-11.295,0.978,-2.065,-3.522
1574.0,10.688,19.596,-11.295,0.978,-2.065,-3.522
1578.0,10.762,19.596,-12.331,0.978,-1.611,-3.002
1583.0,10.762,19.596,-12.331,0.631,-1.611,-3.002
1587.0,10.762,19.596,-12.331,0.631,-1.611,-3.002
1591.0,10.015,19.596,-12.188,0.312,-1.066,-2.422
1595.0,10.015,19.596,-12.188,0.312,-1.066,-2.422
1599.0,8.81,19.596,-11.512,0.114,-0.487,-1.775
1603.0,8.81,19.596,-11.512,0.114,-0.487,-1.775
1607.0,8.81,19.596,-10.734,0.114,-0.487,-1.775
1611.0,7.501,19.596,-10.734,0.065,0.089,-1.062
1615.0,7.501,19.596,-10.734,0.065,0.089,-1.062
1619.0,6.32,19.596,-10.023,0.148,0.646,-0.304
1623.0,6.32,19.596,-10.023,0.148,0.646,-0.304
1627.0,5.484,19.596,-9.674,0.148,0.646,0.472
1631.0,5.484,19.596,-9.674,0.311,1.177,0.472
1635.0,5.484,19.596,-9.674,0.311,1.177,0.472
1639.0,5.6,19.596,-10.381,0.482,1.692,1.22
1643.0,5.6,19.596,-10.381,0.482,1.692,1.22
1647.0,5.6,19.596,-12.099,0.482,1.692,1.22
1651.0,6.658,19.596,-12.099,0.594,2.251,1.906
1654.0,6.658,19.596,-12.099,0.594,2.251,1.906
1658.0,7.862,19.596,-13.353,0.605,2.893,2.524
1662.0,7.862,19.596,-13.353,0.605,2.893,2.524
1666.0,7.862,19.596,-13.353,0.605,2.893,2.524
1670.0,8.806,19.596,-13.851,0.513,3.573,3.072
1674.0,8.806,19.596,-13.851,0.513,3.573,3.072
1678.0,9.526,19.596,-13.885,0.385,4.258,3.585
1682.0,9.526,19.596,-13.885,0.385,4.258,3.585
1686.0,9.526,19.596,-13.885,0.385,4.258,3.585
1690.0,9.93,19.596,-12.396,0.334,4.874,4.084
1694.0,9.93,19.596,-12.396,0.334,4.874,4.084
1697.0,9.222,19.596,-9.559,0.404,5.015,4.608
1701.0,9.222,19.596,-9.559,0.404,5.015,4.608
1705.0,9.222,19.596,-9.559,0.404,5.015,4.608
1709.0,7.815,19.596,-7.116,0.555,5.015,4.979
1713.0,7.815,19.596,-7.116,0.555,5.015,4.979
1717.0,5.483,18.739,-4.821,0.555,5.015,5.013
1720.0,5.483,18.739,-4.821,0.699,5.015,5.013
1724.0,5.483,18.739,-4.821,0.699,5.015,5.013
1728.0,1.912,16.485,-2.728,0.75,5.015,5.013
1732.0,1.912,16.485,-2.728,0.75,5.015,5.013
1736.0,1.912,14.107,-1.025,0.75,5.015,5.013
1739.0,-2.646,14.107,-1.025,0.635,5.015,5.013
1743.0,-2.646,14.107,-1.025,0.635,5.015,5.013
1747.0,-7.68,12.189,0.148,0.297,5.015,5.013
1751.0,-7.68,12.189,0.148,0.297,5.015,5.013
1755.0,-7.68,12.189,0.148,0.297,5.015,5.013
1759.0,-13.713,11.358,0.765,-0.343,5.015,5.013
1763.0,-13.713,11.358,0.765,-0.343,5.015,5.013
1767.0,-19.268,11.481,-0.267,-1.358,5.015,5.013
1771.0,-19.268,11.481,-0.267,-1.358,5.015,5.013
1775.0,-19.268,11.481,-0.383,-1.358,5.015,5.013
1779.0,-19.6,8.484,-0.383,-2.671,5.015,5.013
1783.0,-19.6,8.484,-0.383,-2.671,5.015,5.013
1787.0,-19.6,1.825,2.941,-3.841,4.975,5.013
1791.0,-19.6,1.825,2.941,-3.841,4.975,5.013
1795.0,-19.6,1.825,4.366,-3.841,4.975,5.013
1799.0,-19.6,-3.79,4.366,-4.541,3.907,5.013
1803.0,-19.6,-3.79,4.366,-4.541,3.907,5.013
1807.0,-16.386,-7.68,1.71,-4.938,2.12,4.806
1811.0,-16.386,-7.68,1.71,-4.938,2.12,4.806
1815.0,-16.386,-9.634,2.166,-4.938,2.12,4.806
1819.0,-8.337,-9.634,2.166,-5.013,1.053,3.453
1823.0,-8.337,-9.634,2.166,-5.013,1.053,3.453
1826.0,-4.215,-10.906,5.096,-4.996,0.181,1.765
1830.0,-4.215,-10.906,5.096,-4.996,0.181,1.765
1834.0,-0.859,-11.752,6.103,-4.996,0.181,1.765
1838.0,-0.859,-11.752,6.103,-4.634,-0.759,0.348
1842.0,-0.859,-11.752,6.103,-4.634,-0.759,0.348
1847.0,2.149,-11.575,5.472,-3.777,-1.394,-0.756
1851.0,2.149,-11.575,5.472,-3.777,-1.394,-0.756
1855.0,4.423,-10.607,4.563,-3.777,-1.595,-1.474
1859.0,4.423,-10.607,4.563,-2.752,-1.595,-1.474
1863.0,4.423,-10.607,4.563,-2.752,-1.595,-1.474
1867.0,5.867,-9.41,3.753,-1.743,-1.551,-1.819
1871.0,5.867,-9.41,3.753,-1.743,-1.551,-1.819
1875.0,7.022,-8.06,2.627,-0.847,-1.439,-1.928
1879.0,7.022,-8.06,2.627,-0.847,-1.439,-1.928
1883.0,7.022,-8.06,2.627,-0.847,-1.439,-1.928
1887.0,8.377,-5.98,1.623,-0.102,-1.238,-1.949
1891.0,8.377,-5.98,1.623,-0.102,-1.238,-1.949
1895.0,9.622,-3.204,1.36,0.525,-0.863,-1.879
1899.0,9.622,-3.204,1.36,0.525,-0.863,-1.879
1903.0,9.622,-3.204,1.36,0.525,-0.863,-1.879
1907.0,10.632,-1.048,2.325,1.063,-0.422,-1.618
1911.0,10.632,-1.048,2.325,1.063,-0.422,-1.618
1915.0,11.19,0.433,3.187,1.512,-0.096,-1.208
1919.0,11.19,0.433,3.187,1.512,-0.096,-1.208
1922.0,11.19,0.433,3.187,1.512,-0.096,-1.208
1926.0,10.93,1.52,3.55,1.875,0.102,-0.801
1930.0,10.93,1.52,3.55,1.875,0.102,-0.801
1934.0,10.229,2.541,3.395,2.147,0.202,-0.489
1938.0,10.229,2.541,3.395,2.147,0.202,-0.489
1942.0,10.229,2.541,3.395,2.147,0.202,-0.489
1945.0,9.89,3.34,3.187,2.309,0.238,-0.284
1949.0,9.89,3.34,3.187,2.309,0.238,-0.284
1953.0,9.38,4.203,2.997,2.309,0.238,-0.284
1957.0,9.38,4.203,2.997,2.347,0.261,-0.19
1960.0,9.38,4.203,2.997,2.347,0.261,-0.19
1964.0,8.833,5.167,2.722,2.254,0.253,-0.154
1968.0,8.833,5.167,2.722,2.254,0.253,-0.154
1972.0,8.833,5.167,2.722,2.254,0.253,-0.154
1975.0,8.602,5.908,2.389,2.037,0.216,-0.139
1979.0,8.602,5.908,2.389,2.037,0.216,-0.139
1983.0,8.661,6.254,2.047,2.037,0.216,-0.124
1986.0,8.661,6.254,2.047,1.714,0.182,-0.124
1990.0,8.661,6.254,2.047,1.714,0.182,-0.124
1994.0,8.955,6.29,1.801,1.313,0.193,-0.112
1998.0,8.955,6.29,1.801,1.313,0.193,-0.112
2001.0,8.955,6.29,1.801,1.313,0.193,-0.112
2005.0,9.207,5.943,1.96,0.873,0.252,-0.12
2009.0,9.207,5.943,1.96,0.873,0.252,-0.12
2013.0,9.027,5.512,2.588,0.873,0.325,-0.163
2016.0,9.027,5.512,2.588,0.451,0.325,-0.163
2020.0,9.027,5.512,2.588,0.451,0.325,-0.163
2024.0,8.229,5.224,3.278,0.102,0.381,-0.219
2028.0,8.229,5.224,3.278,0.102,0.381,-0.219
2031.0,8.229,5.224,3.278,0.102,0.381,-0.219
2035.0,7.176,4.89,3.768,-0.142,0.399,-0.245
2039.0,7.176,4.89,3.768,-0.142,0.399,-0.245
2043.0,6.588,4.51,3.989,-0.296,0.377,-0.247
2046.0,6.588,4.51,3.989,-0.296,0.377,-0.247
2050.0,6.588,4.51,3.989,-0.296,0.377,-0.247
2054.0,6.628,4.182,4.094,-0.385,0.324,-0.256
2058.0,6.628,4.182,4.094,-0.385,0.324,-0.256
2062.0,6.986,3.954,3.959,-0.385,0.324,-0.269
2066.0,6.986,3.954,3.959,-0.43,0.259,-0.269
2069.0,6.986,3.954,3.959,-0.43,0.259,-0.269
2073.0,7.25,3.687,3.776,-0.442,0.218,-0.271
2077.0,7.25,3.687,3.776,-0.442,0.218,-0.271
2081.0,7.25,3.687,3.571,-0.442,0.218,-0.271
2085.0,7.386,3.459,3.571,-0.43,0.202,-0.263
2088.0,7.386,3.459,3.571,-0.43,0.202,-0.263
2092.0,7.656,3.27,3.386,-0.401,0.192,-0.246
2096.0,7.656,3.27,3.386,-0.401,0.192,-0.246
2100.0,7.656,3.27,3.386,-0.401,0.192,-0.246
2104.0,7.974,3.191,3.296,-0.357,0.192,-0.236
2108.0,7.974,3.191,3.296,-0.357,0.192,-0.236
2111.0,8.188,3.243,3.349,-0.302,0.201,-0.223
2115.0,8.188,3.243,3.349,-0.302,0.201,-0.223
2119.0,8.188,3.243,3.349,-0.302,0.201,-0.223
2123.0,8.347,3.322,3.331,-0.237,0.207,-0.18
2127.0,8.347,3.322,3.331,-0.237,0.207,-0.18
2131.0,8.347,3.226,3.278,-0.237,0.207,-0.18
2134.0,8.547,3.226,3.278,-0.176,0.217,-0.109
2138.0,8.547,3.226,3.278,-0.176,0.217,-0.109
2142.0,8.71,3.185,3.284,-0.134,0.242,-0.048
2146.0,8.71,3.185,3.284,-0.134,0.242,-0.048
2150.0,8.71,3.185,3.284,-0.134,0.242,-0.048
2153.0,8.694,3.187,3.335,-0.112,0.28,-0.014
2157.0,8.694,3.187,3.335,-0.112,0.28,-0.014
2161.0,8.457,3.238,3.346,-0.111,0.319,-0.002
2165.0,8.457,3.238,3.346,-0.111,0.319,-0.002
2169.0,8.457,3.238,3.346,-0.111,0.319,-0.002
2173.0,8.155,3.261,3.386,-0.132,0.354,-0.013
2176.0,8.155,3.261,3.386,-0.132,0.354,-0.013
2180.0,7.84,3.217,3.442,-0.132,0.354,-0.047
2184.0,7.84,3.217,3.442,-0.166,0.377,-0.047
2188.0,7.84,3.217,3.442,-0.166,0.377,-0.047
2192.0,7.549,3.06,3.416,-0.202,0.378,-0.099
2195.0,7.549,3.06,3.416,-0.202,0.378,-0.099
2199.0,7.549,3.06,3.416,-0.202,0.378,-0.099
2203.0,7.333,2.961,3.223,-0.232,0.377,-0.171
2207.0,7.333,2.961,3.223,-0.232,0.377,-0.171
2211.0,7.149,2.88,3.063,-0.244,0.391,-0.237
2215.0,7.149,2.88,3.063,-0.244,0.391,-0.237
2218.0,7.149,2.88,3.063,-0.244,0.391,-0.237
2222.0,6.991,2.704,2.871,-0.232,0.412,-0.279
2226.0,6.991,2.704,2.871,-0.232,0.412,-0.279
2230.0,6.915,2.461,2.65,-0.232,0.434,-0.317
2234.0,6.915,2.461,2.65,-0.194,0.434,-0.317
2237.0,6.915,2.461,2.65,-0.194,0.434,-0.317
2241.0,6.867,2.252,2.492,-0.135,0.454,-0.377
2245.0,6.867,2.252,2.492,-0.135,0.454,-0.377
2249.0,6.867,2.091,2.465,-0.135,0.454,-0.377
2253.0,6.733,2.091,2.465,-0.066,0.472,-0.464
2257.0,6.733,2.091,2.465,-0.066,0.472,-0.464
2260.0,6.448,2.023,2.496,0.01,0.479,-0.57
2264.0,6.448,2.023,2.496,0.01,0.479,-0.57
2268.0,6.448,2.023,2.496,0.01,0.479,-0.57
2272.0,6.032,1.975,2.573,0.085,0.462,-0.69
2275.0,6.032,1.975,2.573,0.085,0.462,-0.69
2279.0,5.535,1.994,2.628,0.085,0.413,-0.834
2283.0,5.535,1.994,2.628,0.157,0.413,-0.834
2286.0,5.535,1.994,2.628,0.157,0.413,-0.834
2290.0,5.002,2.033,2.527,0.214,0.34,-1.004
2294.0,5.002,2.033,2.527,0.214,0.34,-1.004
2298.0,5.002,2.033,2.527,0.214,0.34,-1.004
2301.0,4.392,2.082,2.277,0.243,0.253,-1.192
2305.0,4.392,2.082,2.277,0.243,0.253,-1.192
2309.0,3.767,2.124,2.009,0.239,0.156,-1.387
2313.0,3.767,2.124,2.009,0.239,0.156,-1.387
2316.0,3.767,2.124,2.009,0.239,0.156,-1.387
2320.0,3.252,2.186,1.685,0.204,0.058,-1.587
2324.0,3.252,2.186,1.685,0.204,0.058,-1.587
2328.0,3.252,2.186,1.685,0.204,0.058,-1.587
2331.0,2.763,2.233,1.403,0.134,-0.01,-1.795
2335.0,2.763,2.233,1.403,0.134,-0.01,-1.795
2339.0,2.24,2.203,1.178,0.031,-0.05,-1.988
2343.0,2.24,2.203,1.178,0.031,-0.05,-1.988
2347.0,2.24,2.203,1.178,0.031,-0.05,-1.988
2350.0,1.777,2.15,0.966,-0.105,-0.071,-2.164
2354.0,1.777,2.15,0.966,-0.105,-0.071,-2.164
2358.0,1.287,2.089,0.686,-0.267,-0.064,-2.325
2362.0,1.287,2.089,0.686,-0.267,-0.064,-2.325
2366.0,1.287,2.089,0.686,-0.267,-0.064,-2.325
2370.0,0.783,1.996,0.389,-0.458,-0.026,-2.457
2374.0,0.783,1.996,0.389,-0.458,-0.026,-2.457
2378.0,0.415,1.865,0.132,-0.458,0.043,-2.559
2382.0,0.415,1.865,0.132,-0.675,0.043,-2.559
2385.0,0.415,1.865,0.132,-0.675,0.043,-2.559
2389.0,0.23,1.688,-0.06,-0.907,0.154,-2.655
2393.0,0.23,1.688,-0.06,-0.907,0.154,-2.655
2397.0,0.23,1.458,-0.108,-0.907,0.154,-2.655
2401.0,0.319,1.458,-0.108,-1.141,0.31,-2.764
2405.0,0.319,1.458,-0.108,-1.141,0.31,-2.764
2409.0,0.727,1.241,0.124,-1.357,0.512,-2.909
2413.0,0.727,1.241,0.124,-1.357,0.512,-2.909
2416.0,0.727,1.241,0.124,-1.357,0.512,-2.909
2420.0,1.143,1.141,0.566,-1.536,0.746,-3.091
2424.0,1.143,1.141,0.566,-1.536,0.746,-3.091
2428.0,1.392,1.119,0.904,-1.684,0.979,-3.246
2432.0,1.392,1.119,0.904,-1.684,0.979,-3.246
2435.0,1.392,1.119,0.904,-1.684,0.979,-3.246
2439.0,1.456,1.102,0.989,-1.814,1.222,-3.333
2443.0,1.456,1.102,0.989,-1.814,1.222,-3.333
2447.0,1.474,0.985,0.867,-1.814,1.505,-3.364
2451.0,1.474,0.985,0.867,-1.936,1.505,-3.364
2455.0,1.474,0.985,0.867,-1.936,1.505,-3.364
2458.0,1.647,0.825,0.806,-2.051,1.844,-3.37
2462.0,1.647,0.825,0.806,-2.051,1.844,-3.37
2466.0,1.647,0.718,1.04,-2.051,1.844,-3.37
2470.0,2.146,0.718,1.04,-2.137,2.241,-3.397
2474.0,2.146,0.718,1.04,-2.137,2.241,-3.397
2477.0,2.618,0.666,1.499,-2.179,2.698,-3.48
2481.0,2.618,0.666,1.499,-2.179,2.698,-3.48
2485.0,2.618,0.666,1.499,-2.179,2.698,-3.48
2489.0,2.758,0.672,1.81,-2.184,3.186,-3.57
2493.0,2.758,0.672,1.81,-2.184,3.186,-3.57
2497.0,2.416,0.781,2.025,-2.177,3.676,-3.603
2500.0,2.416,0.781,2.025,-2.177,3.676,-3.603
2504.0,2.416,0.781,2.025,-2.177,3.676,-3.603
2508.0,1.44,1.018,2.113,-2.167,4.141,-3.547
2512.0,1.44,1.018,2.113,-2.167,4.141,-3.547
2516.0,0.227,1.247,2.17,-2.167,4.141,-3.547
2519.0,0.227,1.247,2.17,-2.173,4.55,-3.369
2523.0,0.227,1.247,2.17,-2.173,4.55,-3.369
2527.0,-0.891,1.521,2.522,-2.194,4.891,-3.114
2531.0,-0.891,1.521,2.522,-2.194,4.891,-3.114
2535.0,-0.891,1.521,2.866,-2.194,4.891,-3.114
2539.0,-1.856,1.667,2.866,-2.211,5.014,-2.85
2543.0,-1.856,1.667,2.866,-2.211,5.014,-2.85
2547.0,-2.626,1.368,2.909,-2.231,5.015,-2.596
2551.0,-2.626,1.368,2.909,-2.231,5.015,-2.596
2554.0,-2.626,1.368,2.909,-2.231,5.015,-2.596
2558.0,-3.276,0.528,2.748,-2.279,5.015,-2.406
2562.0,-3.276,0.528,2.748,-2.279,5.015,-2.406
2566.0,-4.516,-0.282,2.644,-2.367,5.015,-2.34
2570.0,-4.516,-0.282,2.644,-2.367,5.015,-2.34
2574.0,-4.516,-0.282,2.644,-2.367,5.015,-2.34
2578.0,-7.085,-0.762,3.455,-2.496,5.015,-2.346
2582.0,-7.085,-0.762,3.455,-2.496,5.015,-2.346
2586.0,-10.879,-0.288,5.791,-2.625,5.015,-2.314
2590.0,-10.879,-0.288,5.791,-2.625,5.015,-2.314
2594.0,-10.879,-0.288,7.02,-2.625,5.015,-2.314
2598.0,-14.514,-0.099,7.02,-2.676,5.015,-2.124
2602.0,-14.514,-0.099,7.02,-2.676,5.015,-2.124
2607.0,-16.917,-0.615,6.631,-2.641,5.015,-1.843
2611.0,-16.917,-0.615,6.631,-2.641,5.015,-1.843
2615.0,-18.205,-0.288,6.239,-2.641,5.015,-1.583
2619.0,-18.205,-0.288,6.239,-2.546,5.015,-1.583
2623.0,-18.205,-0.288,6.239,-2.546,5.015,-1.583
2627.0,-17.952,0.324,5.774,-2.434,5.015,-1.282
2631.0,-17.952,0.324,5.774,-2.434,5.015,-1.282
2635.0,-17.486,0.66,4.886,-2.336,5.015,-0.93
2639.0,-17.486,0.66,4.886,-2.336,5.015,-0.93
2643.0,-17.486,0.66,4.886,-2.336,5.015,-0.93
2647.0,-17.684,0.811,3.657,-2.237,5.015,-0.571
2651.0,-17.684,0.811,3.657,-2.237,5.015,-0.571
2655.0,-18.434,0.845,2.342,-2.134,5.015,-0.188
2659.0,-18.434,0.845,2.342,-2.134,5.015,-0.188
2663.0,-18.434,0.845,2.342,-2.134,5.015,-0.188
2667.0,-19.387,0.813,1.443,-2.068,5.015,0.224
2671.0,-19.387,0.813,1.443,-2.068,5.015,0.224
2675.0,-19.6,0.69,1.469,-2.066,5.015,0.645
2679.0,-19.6,0.69,1.469,-2.066,5.015,0.645
2682.0,-19.6,0.69,1.469,-2.066,5.015,0.645
2686.0,-19.6,0.438,2.295,-2.079,5.015,1.004
2690.0,-19.6,0.438,2.295,-2.079,5.015,1.004
2694.0,-19.6,0.175,3.388,-2.028,5.015,1.234
2698.0,-19.6,0.175,3.388,-2.028,5.015,1.234
2702.0,-19.6,0.175,3.388,-2.028,5.015,1.234
2706.0,-19.6,-0.136,4.165,-1.9,5.015,1.321
2710.0,-19.6,-0.136,4.165,-1.9,5.015,1.321
2714.0,-19.6,-0.359,4.345,-1.747,5.015,1.265
2718.0,-19.6,-0.359,4.345,-1.747,5.015,1.265
2722.0,-19.6,-0.359,4.345,-1.747,5.015,1.265
2726.0,-19.6,-0.125,4.321,-1.659,5.015,1.09
2730.0,-19.6,-0.125,4.321,-1.659,5.015,1.09
2734.0,-19.6,0.526,4.247,-1.698,5.015,0.829
2738.0,-19.6,0.526,4.247,-1.698,5.015,0.829
2742.0,-19.6,0.526,4.247,-1.698,5.015,0.829
2746.0,-19.6,0.888,3.958,-1.86,4.975,0.504
2750.0,-19.6,0.888,3.958,-1.86,4.975,0.504
2753.0,-19.6,1.335,3.239,-2.136,4.688,0.082
2757.0,-19.6,1.335,3.239,-2.136,4.688,0.082
2761.0,-19.6,1.335,3.239,-2.136,4.688,0.082
2765.0,-19.6,2.32,3.103,-2.522,4.427,-0.437
2769.0,-19.6,2.32,3.103,-2.522,4.427,-0.437
2773.0,-19.6,2.298,2.791,-2.932,4.287,-0.992
2777.0,-19.6,2.298,2.791,-2.932,4.287,-0.992
2781.0,-19.6,2.298,2.791,-2.932,4.287,-0.992
2785.0,-19.6,2.605,3.106,-3.29,4.176,-1.551
2789.0,-19.6,2.605,3.106,-3.29,4.176,-1.551
2793.0,-19.6,2.647,3.517,-3.56,3.996,-1.97
2797.0,-19.6,2.647,3.517,-3.56,3.996,-1.97
2801.0,-19.6,2.647,3.517,-3.56,3.996,-1.97
2805.0,-19.6,2.537,4.114,-3.712,3.751,-2.247
2809.0,-19.6,2.537,4.114,-3.712,3.751,-2.247
2813.0,-19.541,2.088,4.297,-3.727,3.471,-2.385
2817.0,-19.541,2.088,4.297,-3.727,3.471,-2.385
2821.0,-19.541,2.088,4.297,-3.727,3.471,-2.385
2825.0,-18.772,1.529,4.123,-3.64,3.222,-2.425
2829.0,-18.772,1.529,4.123,-3.64,3.222,-2.425
2833.0,-17.76,0.998,3.866,-3.498,3.036,-2.414
2837.0,-17.76,0.998,3.866,-3.498,3.036,-2.414
2841.0,-17.76,0.998,3.722,-3.498,3.036,-2.414
2845.0,-16.826,0.571,3.722,-3.34,2.895,-2.371
2849.0,-16.826,0.571,3.722,-3.34,2.895,-2.371
2853.0,-16.013,0.039,3.66,-3.189,2.777,-2.298
2857.0,-16.013,0.039,3.66,-3.189,2.777,-2.298
2861.0,-15.257,-0.468,3.693,-3.189,2.777,-2.298
2865.0,-15.257,-0.468,3.693,-3.062,2.661,-2.218
2869.0,-15.257,-0.468,3.693,-3.062,2.661,-2.218
2873.0,-14.433,-0.976,3.791,-2.973,2.542,-2.127
2877.0,-14.433,-0.976,3.791,-2.973,2.542,-2.127
2881.0,-13.471,-1.497,3.81,-2.911,2.433,-2.001
2885.0,-13.471,-1.497,3.81,-2.911,2.433,-2.001
2890.0,-13.471,-1.497,3.81,-2.911,2.433,-2.001
2894.0,-12.58,-1.806,4.107,-2.859,2.338,-1.862
2898.0,-12.58,-1.806,4.107,-2.859,2.338,-1.862
2902.0,-11.835,-2.261,4.233,-2.783,2.248,-1.719
2906.0,-11.835,-2.261,4.233,-2.783,2.248,-1.719
2910.0,-11.835,-2.261,4.233,-2.783,2.248,-1.719
2914.0,-11.224,-2.497,4.478,-2.666,2.173,-1.569
2918.0,-11.224,-2.497,4.478,-2.666,2.173,-1.569
2922.0,-10.781,-2.68,4.791,-2.502,2.105,-1.383
2926.0,-10.781,-2.68,4.791,-2.502,2.105,-1.383
2930.0,-10.512,-2.765,5.049,-2.502,2.105,-1.155
2934.0,-10.512,-2.765,5.049,-2.279,2.032,-1.155
2938.0,-10.512,-2.765,5.049,-2.279,2.032,-1.155
2943.0,-10.405,-2.728,5.281,-2.004,1.946,-0.889
2947.0,-10.405,-2.728,5.281,-2.004,1.946,-0.889
2951.0,-10.481,-2.64,5.554,-1.692,1.847,-0.585
2955.0,-10.481,-2.64,5.554,-1.692,1.847,-0.585
2959.0,-10.481,-2.64,5.554,-1.692,1.847,-0.585
2963.0,-10.606,-2.515,5.848,-1.365,1.727,-0.253
2967.0,-10.606,-2.515,5.848,-1.365,1.727,-0.253
2971.0,-10.546,-2.289,6.114,-1.045,1.579,0.085
2975.0,-10.546,-2.289,6.114,-1.045,1.579,0.085
2979.0,-10.546,-2.289,6.31,-1.045,1.579,0.085
2983.0,-10.355,-2.051,6.31,-0.753,1.404,0.4
2987.0,-10.355,-2.051,6.31,-0.753,1.404,0.4
2991.0,-9.904,-1.535,6.498,-0.503,1.211,0.674
2995.0,-9.904,-1.535,6.498,-0.503,1.211,0.674
2999.0,-9.904,-1.535,6.314,-0.503,1.211,0.674
