deltaTime,Acc_X,Acc_Y,Acc_Z,Gyro_X,Gyro_Y,Gyro_Z
0.0,-9.136,-1.027,3.494,-0.062,-0.144,-0.098
3.0,-9.136,-1.027,3.494,-0.062,-0.144,-0.098
6.0,-9.136,-1.027,3.494,-0.062,-0.144,-0.098
9.0,-9.127,-0.744,3.485,-0.023,-0.15,-0.111
12.0,-9.127,-0.744,3.485,-0.023,-0.15,-0.111
15.0,-9.127,-0.744,3.485,-0.023,-0.15,-0.111
18.0,-9.124,-0.583,3.543,-0.039,-0.13,-0.122
21.0,-9.124,-0.583,3.543,-0.039,-0.13,-0.122
24.0,-9.124,-0.583,3.543,-0.039,-0.13,-0.122
27.0,-9.124,-0.583,3.753,-0.039,-0.13,-0.122
30.0,-9.098,-0.479,3.753,-0.095,-0.101,-0.129
34.0,-9.098,-0.479,3.753,-0.095,-0.101,-0.129
38.0,-9.151,-0.552,3.977,-0.169,-0.082,-0.136
42.0,-9.151,-0.552,3.977,-0.169,-0.082,-0.136
46.0,-9.151,-0.552,3.977,-0.169,-0.082,-0.136
49.0,-9.281,-0.767,4.076,-0.22,-0.088,-0.139
53.0,-9.281,-0.767,4.076,-0.22,-0.088,-0.139
57.0,-9.43,-1.149,4.06,-0.222,-0.115,-0.129
61.0,-9.43,-1.149,4.06,-0.222,-0.115,-0.129
65.0,-9.43,-1.149,4.06,-0.222,-0.115,-0.129
69.0,-9.411,-1.403,3.962,-0.16,-0.148,-0.119
73.0,-9.411,-1.403,3.962,-0.16,-0.148,-0.119
77.0,-9.261,-1.351,3.769,-0.16,-0.177,-0.123
81.0,-9.261,-1.351,3.769,-0.065,-0.177,-0.123
85.0,-9.261,-1.351,3.769,-0.065,-0.177,-0.123
89.0,-9.18,-1.204,3.469,0.009,-0.201,-0.144
92.0,-9.18,-1.204,3.469,0.009,-0.201,-0.144
96.0,-9.158,-1.047,3.273,0.009,-0.201,-0.144
100.0,-9.158,-1.047,3.273,0.043,-0.203,-0.168
104.0,-9.158,-1.047,3.273,0.043,-0.203,-0.168
108.0,-9.254,-1.02,3.352,0.034,-0.183,-0.19
112.0,-9.254,-1.02,3.352,0.034,-0.183,-0.19
116.0,-9.254,-1.158,3.554,0.034,-0.183,-0.19
120.0,-9.349,-1.158,3.554,0.025,-0.155,-0.193
123.0,-9.349,-1.158,3.554,0.025,-0.155,-0.193
127.0,-9.398,-1.339,3.747,0.055,-0.141,-0.178
131.0,-9.398,-1.339,3.747,0.055,-0.141,-0.178
135.0,-9.398,-1.339,3.891,0.055,-0.141,-0.178
139.0,-9.363,-1.384,3.891,0.12,-0.142,-0.154
143.0,-9.363,-1.384,3.891,0.12,-0.142,-0.154
147.0,-9.025,-1.205,3.784,0.179,-0.151,-0.14
151.0,-9.025,-1.205,3.784,0.179,-0.151,-0.14
155.0,-9.025,-1.205,3.784,0.179,-0.151,-0.14
159.0,-8.688,-0.917,3.592,0.196,-0.152,-0.148
162.0,-8.688,-0.917,3.592,0.196,-0.152,-0.148
166.0,-8.541,-0.683,3.431,0.172,-0.141,-0.163
170.0,-8.541,-0.683,3.431,0.172,-0.141,-0.163
174.0,-8.541,-0.683,3.431,0.172,-0.141,-0.163
178.0,-8.575,-0.597,3.436,0.12,-0.117,-0.179
182.0,-8.575,-0.597,3.436,0.12,-0.117,-0.179
186.0,-8.674,-0.719,3.531,0.072,-0.091,-0.185
190.0,-8.674,-0.719,3.531,0.072,-0.091,-0.185
194.0,-8.674,-0.719,3.531,0.072,-0.091,-0.185
198.0,-8.663,-0.43,3.469,0.018,-0.061,-0.178
202.0,-8.663,-0.43,3.469,0.018,-0.061,-0.178
205.0,-9.095,-0.739,3.595,-0.078,-0.038,-0.174
209.0,-9.095,-0.739,3.595,-0.078,-0.038,-0.174
213.0,-9.095,-0.739,3.595,-0.078,-0.038,-0.174
217.0,-9.491,-1.311,3.765,-0.098,-0.038,-0.161
221.0,-9.491,-1.311,3.765,-0.098,-0.038,-0.161
225.0,-9.356,-1.447,3.73,0.003,-0.047,-0.13
229.0,-9.356,-1.447,3.73,0.003,-0.047,-0.13
233.0,-9.356,-1.447,3.73,0.003,-0.047,-0.13
237.0,-8.962,-1.25,3.622,0.136,-0.046,-0.098
241.0,-8.962,-1.25,3.622,0.136,-0.046,-0.098
245.0,-8.7,-0.976,3.465,0.232,-0.032,-0.072
249.0,-8.7,-0.976,3.465,0.232,-0.032,-0.072
253.0,-8.7,-0.976,3.465,0.232,-0.032,-0.072
257.0,-8.731,-0.69,3.459,0.274,-0.004,-0.062
261.0,-8.731,-0.69,3.459,0.274,-0.004,-0.062
264.0,-9.013,-0.416,3.695,0.269,0.026,-0.054
268.0,-9.013,-0.416,3.695,0.269,0.026,-0.054
272.0,-9.013,-0.416,3.695,0.269,0.026,-0.054
276.0,-9.31,0.012,3.933,0.225,0.05,-0.054
280.0,-9.31,0.012,3.933,0.225,0.05,-0.054
283.0,-9.31,0.324,4.107,0.225,0.05,-0.054
287.0,-9.422,0.324,4.107,0.133,0.042,-0.057
291.0,-9.422,0.324,4.107,0.133,0.042,-0.057
295.0,-9.4,0.54,4.137,-0.007,0.028,-0.056
298.0,-9.4,0.54,4.137,-0.007,0.028,-0.056
302.0,-9.4,0.54,4.137,-0.007,0.028,-0.056
306.0,-9.389,0.564,4.056,-0.177,0.015,-0.057
310.0,-9.389,0.564,4.056,-0.177,0.015,-0.057
314.0,-9.316,0.289,3.952,-0.177,0.006,-0.044
318.0,-9.316,0.289,3.952,-0.342,0.006,-0.044
321.0,-9.316,0.289,3.952,-0.342,0.006,-0.044
325.0,-9.068,-0.051,3.926,-0.456,0.006,-0.023
329.0,-9.068,-0.051,3.926,-0.456,0.006,-0.023
333.0,-8.474,-0.284,3.781,-0.456,0.006,-0.023
337.0,-8.474,-0.284,3.781,-0.5,0.015,0.0
341.0,-8.474,-0.284,3.781,-0.5,0.015,0.0
345.0,-7.729,-0.33,3.126,-0.486,0.018,0.032
348.0,-7.729,-0.33,3.126,-0.486,0.018,0.032
352.0,-7.729,-0.33,3.126,-0.486,0.018,0.032
356.0,-8.503,-0.336,2.963,-0.436,0.051,0.073
360.0,-8.503,-0.336,2.963,-0.436,0.051,0.073
364.0,-9.731,-0.158,3.321,-0.432,0.132,0.114
367.0,-9.731,-0.158,3.321,-0.432,0.132,0.114
371.0,-9.731,-0.158,3.321,-0.432,0.132,0.114
375.0,-10.049,-0.051,3.823,-0.517,0.171,0.138
379.0,-10.049,-0.051,3.823,-0.517,0.171,0.138
383.0,-9.948,-0.085,4.258,-0.658,0.158,0.146
387.0,-9.948,-0.085,4.258,-0.658,0.158,0.146
391.0,-9.948,-0.085,4.258,-0.658,0.158,0.146
394.0,-9.97,-0.112,4.492,-0.803,0.121,0.145
398.0,-9.97,-0.112,4.492,-0.803,0.121,0.145
402.0,-9.821,-0.323,4.663,-0.803,0.121,0.145
406.0,-9.821,-0.323,4.663,-0.955,0.068,0.136
410.0,-9.821,-0.323,4.663,-0.955,0.068,0.136
413.0,-9.876,-0.784,4.845,-1.086,0.068,0.142
417.0,-9.876,-0.784,4.845,-1.086,0.068,0.142
421.0,-9.876,-0.784,4.845,-1.086,0.068,0.142
425.0,-9.739,-1.26,4.949,-1.11,0.012,0.155
429.0,-9.739,-1.26,4.949,-1.11,0.012,0.155
433.0,-9.464,-1.793,4.925,-1.055,-0.03,0.177
436.0,-9.464,-1.793,4.925,-1.055,-0.03,0.177
440.0,-9.464,-1.793,4.925,-1.055,-0.03,0.177
444.0,-8.734,-1.941,4.603,-0.896,-0.129,0.2
448.0,-8.734,-1.941,4.603,-0.896,-0.129,0.2
452.0,-8.591,-1.917,4.129,-0.729,-0.179,0.204
456.0,-8.591,-1.917,4.129,-0.729,-0.179,0.204
460.0,-8.591,-1.917,4.129,-0.729,-0.179,0.204
464.0,-9.123,-1.581,3.658,-0.587,-0.223,0.167
468.0,-9.123,-1.581,3.658,-0.587,-0.223,0.167
472.0,-9.413,-1.402,3.298,-0.587,-0.294,0.102
475.0,-9.413,-1.402,3.298,-0.5,-0.294,0.102
479.0,-9.413,-1.402,3.298,-0.5,-0.294,0.102
483.0,-9.23,-1.549,2.948,-0.439,-0.362,0.039
487.0,-9.23,-1.549,2.948,-0.439,-0.362,0.039
491.0,-9.129,-1.599,2.614,-0.439,-0.362,-0.007
495.0,-9.129,-1.599,2.614,-0.365,-0.393,-0.007
499.0,-9.129,-1.599,2.614,-0.365,-0.393,-0.007
503.0,-9.191,-1.547,2.386,-0.281,-0.381,-0.041
507.0,-9.191,-1.547,2.386,-0.281,-0.381,-0.041
511.0,-9.437,-1.42,2.286,-0.281,-0.346,-0.071
515.0,-9.437,-1.42,2.286,-0.208,-0.346,-0.071
519.0,-9.437,-1.42,2.286,-0.208,-0.346,-0.071
523.0,-9.688,-1.24,2.282,-0.155,-0.307,-0.096
527.0,-9.688,-1.24,2.282,-0.155,-0.307,-0.096
531.0,-9.896,-1.006,2.314,-0.13,-0.275,-0.117
535.0,-9.896,-1.006,2.314,-0.13,-0.275,-0.117
539.0,-9.896,-1.006,2.314,-0.13,-0.275,-0.117
543.0,-9.929,-0.787,2.341,-0.137,-0.249,-0.132
547.0,-9.929,-0.787,2.341,-0.137,-0.249,-0.132
551.0,-9.738,-0.629,2.331,-0.18,-0.219,-0.142
555.0,-9.738,-0.629,2.331,-0.18,-0.219,-0.142
559.0,-9.738,-0.629,2.331,-0.18,-0.219,-0.142
563.0,-9.404,-0.54,2.383,-0.247,-0.17,-0.155
567.0,-9.404,-0.54,2.383,-0.247,-0.17,-0.155
571.0,-9.034,-0.529,2.511,-0.326,-0.103,-0.171
575.0,-9.034,-0.529,2.511,-0.326,-0.103,-0.171
579.0,-9.034,-0.529,2.511,-0.326,-0.103,-0.171
583.0,-8.671,-0.528,2.751,-0.402,-0.024,-0.184
587.0,-8.671,-0.528,2.751,-0.402,-0.024,-0.184
591.0,-8.395,-0.516,3.042,-0.469,0.048,-0.188
595.0,-8.395,-0.516,3.042,-0.469,0.048,-0.188
599.0,-8.395,-0.516,3.042,-0.469,0.048,-0.188
603.0,-8.378,-0.502,3.3,-0.526,0.098,-0.184
607.0,-8.378,-0.502,3.3,-0.526,0.098,-0.184
610.0,-8.627,-0.465,3.569,-0.571,0.124,-0.165
614.0,-8.627,-0.465,3.569,-0.571,0.124,-0.165
618.0,-8.627,-0.465,3.569,-0.571,0.124,-0.165
622.0,-8.924,-0.462,3.685,-0.606,0.121,-0.125
626.0,-8.924,-0.462,3.685,-0.606,0.121,-0.125
630.0,-9.025,-0.543,3.558,-0.638,0.105,-0.064
634.0,-9.025,-0.543,3.558,-0.638,0.105,-0.064
638.0,-9.025,-0.543,3.558,-0.638,0.105,-0.064
642.0,-8.964,-0.612,3.462,-0.673,0.11,0.002
646.0,-8.964,-0.612,3.462,-0.673,0.11,0.002
649.0,-8.904,-0.704,3.465,-0.703,0.137,0.067
653.0,-8.904,-0.704,3.465,-0.703,0.137,0.067
657.0,-8.904,-0.704,3.465,-0.703,0.137,0.067
661.0,-8.848,-0.849,3.471,-0.723,0.167,0.121
665.0,-8.848,-0.849,3.471,-0.723,0.167,0.121
668.0,-8.795,-0.976,3.573,-0.723,0.167,0.121
672.0,-8.795,-0.976,3.573,-0.732,0.194,0.149
676.0,-8.795,-0.976,3.573,-0.732,0.194,0.149
680.0,-8.894,-1.049,3.862,-0.729,0.208,0.149
684.0,-8.894,-1.049,3.862,-0.729,0.208,0.149
688.0,-8.894,-1.049,3.862,-0.729,0.208,0.149
691.0,-9.226,-1.154,4.247,-0.71,0.193,0.137
695.0,-9.226,-1.154,4.247,-0.71,0.193,0.137
699.0,-9.71,-1.31,4.677,-0.671,0.143,0.124
703.0,-9.71,-1.31,4.677,-0.671,0.143,0.124
707.0,-9.71,-1.31,4.677,-0.671,0.143,0.124
710.0,-10.111,-1.507,5.094,-0.612,0.061,0.102
714.0,-10.111,-1.507,5.094,-0.612,0.061,0.102
718.0,-10.372,-1.629,5.398,-0.612,-0.047,0.062
722.0,-10.372,-1.629,5.398,-0.533,-0.047,0.062
726.0,-10.372,-1.629,5.398,-0.533,-0.047,0.062
730.0,-10.506,-1.614,5.602,-0.439,-0.158,0.002
734.0,-10.506,-1.614,5.602,-0.439,-0.158,0.002
738.0,-10.517,-1.54,5.822,-0.342,-0.257,-0.06
742.0,-10.517,-1.54,5.822,-0.342,-0.257,-0.06
746.0,-10.517,-1.54,5.822,-0.342,-0.257,-0.06
750.0,-10.46,-1.439,6.212,-0.253,-0.342,-0.105
755.0,-10.46,-1.439,6.212,-0.253,-0.342,-0.105
759.0,-10.394,-1.396,6.662,-0.173,-0.428,-0.131
763.0,-10.394,-1.396,6.662,-0.173,-0.428,-0.131
767.0,-10.394,-1.396,7.141,-0.173,-0.428,-0.131
771.0,-10.285,-1.332,7.141,-0.104,-0.528,-0.149
775.0,-10.285,-1.332,7.141,-0.104,-0.528,-0.149
779.0,-10.237,-1.289,7.594,-0.049,-0.649,-0.167
783.0,-10.237,-1.289,7.594,-0.049,-0.649,-0.167
787.0,-10.247,-1.318,7.927,-0.049,-0.649,-0.191
791.0,-10.247,-1.318,7.927,-0.005,-0.792,-0.191
795.0,-10.247,-1.318,7.927,-0.005,-0.792,-0.191
799.0,-10.277,-1.366,8.177,0.032,-0.943,-0.224
803.0,-10.277,-1.366,8.177,0.032,-0.943,-0.224
807.0,-10.342,-1.423,8.344,0.07,-1.093,-0.26
811.0,-10.342,-1.423,8.344,0.07,-1.093,-0.26
815.0,-10.342,-1.423,8.344,0.07,-1.093,-0.26
819.0,-10.465,-1.566,8.457,0.111,-1.238,-0.291
823.0,-10.465,-1.566,8.457,0.111,-1.238,-0.291
827.0,-10.784,-1.838,8.671,0.161,-1.376,-0.318
831.0,-10.784,-1.838,8.671,0.161,-1.376,-0.318
835.0,-10.784,-1.838,8.671,0.161,-1.376,-0.318
839.0,-11.246,-2.064,8.985,0.227,-1.525,-0.344
843.0,-11.246,-2.064,8.985,0.227,-1.525,-0.344
847.0,-11.561,-2.19,9.267,0.31,-1.699,-0.372
851.0,-11.561,-2.19,9.267,0.31,-1.699,-0.372
855.0,-11.561,-2.19,9.267,0.31,-1.699,-0.372
859.0,-11.671,-2.215,9.522,0.4,-1.894,-0.402
863.0,-11.671,-2.215,9.522,0.4,-1.894,-0.402
867.0,-11.619,-2.211,9.681,0.492,-2.092,-0.433
871.0,-11.619,-2.211,9.681,0.492,-2.092,-0.433
875.0,-11.619,-2.211,9.681,0.492,-2.092,-0.433
879.0,-11.573,-2.222,9.785,0.583,-2.278,-0.458
883.0,-11.573,-2.222,9.785,0.583,-2.278,-0.458
887.0,-11.566,-2.244,9.947,0.676,-2.456,-0.477
891.0,-11.566,-2.244,9.947,0.676,-2.456,-0.477
895.0,-11.566,-2.244,10.094,0.676,-2.456,-0.477
899.0,-11.608,-2.293,10.094,0.769,-2.638,-0.49
903.0,-11.608,-2.293,10.094,0.769,-2.638,-0.49
908.0,-11.635,-2.399,10.126,0.859,-2.831,-0.505
912.0,-11.635,-2.399,10.126,0.859,-2.831,-0.505
916.0,-11.629,-2.498,10.134,0.859,-3.02,-0.519
920.0,-11.629,-2.498,10.134,0.946,-3.02,-0.519
924.0,-11.629,-2.498,10.134,0.946,-3.02,-0.519
928.0,-11.533,-2.64,10.14,1.034,-3.201,-0.526
932.0,-11.533,-2.64,10.14,1.034,-3.201,-0.526
936.0,-11.258,-2.812,10.049,1.124,-3.372,-0.529
940.0,-11.258,-2.812,10.049,1.124,-3.372,-0.529
944.0,-11.258,-2.812,10.049,1.124,-3.372,-0.529
948.0,-10.794,-2.919,10.022,1.212,-3.517,-0.536
952.0,-10.794,-2.919,10.022,1.212,-3.517,-0.536
956.0,-10.319,-2.941,10.096,1.3,-3.629,-0.545
961.0,-10.319,-2.941,10.096,1.3,-3.629,-0.545
965.0,-10.063,-3.026,10.251,1.3,-3.629,-0.545
969.0,-10.063,-3.026,10.251,1.396,-3.72,-0.542
973.0,-10.063,-3.026,10.251,1.396,-3.72,-0.542
977.0,-10.003,-3.223,10.467,1.505,-3.809,-0.523
981.0,-10.003,-3.223,10.467,1.505,-3.809,-0.523
985.0,-9.91,-3.278,10.761,1.627,-3.902,-0.501
989.0,-9.91,-3.278,10.761,1.627,-3.902,-0.501
993.0,-9.91,-3.278,10.761,1.627,-3.902,-0.501
997.0,-9.75,-2.972,11.094,1.753,-4.005,-0.486
1001.0,-9.75,-2.972,11.094,1.753,-4.005,-0.486
1005.0,-9.494,-2.782,11.345,1.861,-4.136,-0.47
1009.0,-9.494,-2.782,11.345,1.861,-4.136,-0.47
1013.0,-9.494,-2.782,11.345,1.861,-4.136,-0.47
1017.0,-9.23,-2.866,11.451,1.952,-4.277,-0.452
1021.0,-9.23,-2.866,11.451,1.952,-4.277,-0.452
1025.0,-8.891,-3.151,11.632,2.025,-4.399,-0.438
1030.0,-8.891,-3.151,11.632,2.025,-4.399,-0.438
1034.0,-8.773,-3.591,11.887,2.025,-4.399,-0.438
1038.0,-8.773,-3.591,11.887,2.087,-4.451,-0.432
1042.0,-8.773,-3.591,11.887,2.087,-4.451,-0.432
1046.0,-8.661,-3.948,12.022,2.188,-4.53,-0.439
1050.0,-8.661,-3.948,12.022,2.188,-4.53,-0.439
1054.0,-8.173,-3.746,12.106,2.334,-4.65,-0.447
1058.0,-8.173,-3.746,12.106,2.334,-4.65,-0.447
1062.0,-8.173,-3.746,12.106,2.334,-4.65,-0.447
1066.0,-8.027,-3.708,12.343,2.471,-4.738,-0.457
1070.0,-8.027,-3.708,12.343,2.471,-4.738,-0.457
1074.0,-7.904,-3.728,12.383,2.616,-4.831,-0.488
1079.0,-7.904,-3.728,12.383,2.616,-4.831,-0.488
1083.0,-7.904,-3.728,12.383,2.616,-4.831,-0.488
1087.0,-7.659,-3.605,12.354,2.741,-4.914,-0.544
1091.0,-7.659,-3.605,12.354,2.741,-4.914,-0.544
1095.0,-7.496,-3.587,12.591,2.837,-4.975,-0.62
1099.0,-7.496,-3.587,12.591,2.837,-4.975,-0.62
1103.0,-7.037,-3.666,12.549,2.837,-4.975,-0.719
1107.0,-7.037,-3.666,12.549,2.914,-4.992,-0.719
1111.0,-7.037,-3.666,12.549,2.914,-4.992,-0.719
1115.0,-6.326,-3.364,12.305,2.981,-4.992,-0.848
1119.0,-6.326,-3.364,12.305,2.981,-4.992,-0.848
1123.0,-5.563,-2.773,12.229,3.052,-4.992,-0.985
1127.0,-5.563,-2.773,12.229,3.052,-4.992,-0.985
1132.0,-5.563,-2.773,12.229,3.052,-4.992,-0.985
1136.0,-4.823,-2.378,12.376,3.141,-4.992,-1.109
1140.0,-4.823,-2.378,12.376,3.141,-4.992,-1.109
1144.0,-4.22,-2.359,12.309,3.241,-4.992,-1.216
1148.0,-4.22,-2.359,12.309,3.241,-4.992,-1.216
1152.0,-4.22,-2.632,12.208,3.241,-4.992,-1.216
1156.0,-3.892,-2.632,12.208,3.326,-4.992,-1.328
1160.0,-3.892,-2.632,12.208,3.326,-4.992,-1.328
1164.0,-3.402,-2.523,11.41,3.386,-4.992,-1.464
1168.0,-3.402,-2.523,11.41,3.386,-4.992,-1.464
1172.0,-2.61,-2.1,10.062,3.386,-4.992,-1.617
1176.0,-2.61,-2.1,10.062,3.411,-4.992,-1.617
1181.0,-2.61,-2.1,10.062,3.411,-4.992,-1.617
1185.0,-1.549,-1.604,8.557,3.413,-4.992,-1.777
1189.0,-1.549,-1.604,8.557,3.413,-4.992,-1.777
1193.0,-0.686,-1.08,7.286,3.402,-4.992,-1.932
1197.0,-0.686,-1.08,7.286,3.402,-4.992,-1.932
1201.0,-0.686,-1.08,7.286,3.402,-4.992,-1.932
1205.0,-0.093,-0.677,6.407,3.41,-4.982,-2.069
1209.0,-0.093,-0.677,6.407,3.41,-4.982,-2.069
1213.0,0.337,-0.44,5.667,3.432,-4.88,-2.187
1216.0,0.337,-0.44,5.667,3.432,-4.88,-2.187
1220.0,0.337,-0.44,5.667,3.432,-4.88,-2.187
1224.0,0.601,0.013,5.089,3.464,-4.693,-2.286
1228.0,0.601,0.013,5.089,3.464,-4.693,-2.286
1232.0,0.693,0.625,4.84,3.522,-4.495,-2.358
1236.0,0.693,0.625,4.84,3.522,-4.495,-2.358
1240.0,0.693,0.625,4.84,3.522,-4.495,-2.358
1243.0,0.967,1.129,4.438,3.594,-4.321,-2.395
1247.0,0.967,1.129,4.438,3.594,-4.321,-2.395
1251.0,1.22,1.463,3.919,3.594,-4.321,-2.397
1255.0,1.22,1.463,3.919,3.675,-4.146,-2.397
1259.0,1.22,1.463,3.919,3.675,-4.146,-2.397
1262.0,1.431,1.825,3.156,3.777,-3.964,-2.366
1266.0,1.431,1.825,3.156,3.777,-3.964,-2.366
1270.0,1.431,1.825,3.156,3.777,-3.964,-2.366
1274.0,1.834,2.441,2.246,3.889,-3.774,-2.301
1278.0,1.834,2.441,2.246,3.889,-3.774,-2.301
1282.0,2.448,3.197,1.402,3.995,-3.56,-2.21
1285.0,2.448,3.197,1.402,3.995,-3.56,-2.21
1289.0,2.448,3.197,1.402,3.995,-3.56,-2.21
1293.0,3.036,4.65,0.59,4.089,-3.307,-2.109
1297.0,3.036,4.65,0.59,4.089,-3.307,-2.109
1301.0,3.458,6.615,-0.11,4.089,-3.008,-1.961
1305.0,3.458,6.615,-0.11,4.182,-3.008,-1.961
1308.0,3.458,6.615,-0.11,4.182,-3.008,-1.961
1312.0,3.923,8.905,-0.906,4.284,-2.697,-1.726
1316.0,3.923,8.905,-0.906,4.284,-2.697,-1.726
1320.0,4.664,10.895,-1.988,4.284,-2.697,-1.384
1324.0,4.664,10.895,-1.988,4.396,-2.374,-1.384
1328.0,4.664,10.895,-1.988,4.396,-2.374,-1.384
1332.0,5.615,12.405,-3.132,4.505,-2.011,-0.962
1336.0,5.615,12.405,-3.132,4.505,-2.011,-0.962
1340.0,6.424,14.006,-4.417,4.505,-1.593,-0.506
1344.0,6.424,14.006,-4.417,4.617,-1.593,-0.506
1348.0,6.424,14.006,-4.417,4.617,-1.593,-0.506
1352.0,6.955,15.727,-5.394,4.744,-1.118,0.004
1356.0,6.955,15.727,-5.394,4.744,-1.118,0.004
1360.0,7.48,17.568,-6.497,4.883,-0.594,0.589
1364.0,7.48,17.568,-6.497,4.883,-0.594,0.589
1368.0,7.48,17.568,-6.497,4.883,-0.594,0.589
1372.0,8.462,18.639,-8.374,4.982,-0.007,1.259
1376.0,8.462,18.639,-8.374,4.982,-0.007,1.259
1379.0,9.701,19.291,-10.47,4.982,-0.007,1.946
1383.0,9.701,19.291,-10.47,4.995,0.689,1.946
1387.0,9.701,19.291,-10.47,4.995,0.689,1.946
1391.0,10.878,19.595,-12.724,4.995,1.519,2.603
1395.0,10.878,19.595,-12.724,4.995,1.519,2.603
1399.0,11.381,19.596,-13.388,4.995,2.457,3.271
1403.0,11.381,19.596,-13.388,4.971,2.457,3.271
1407.0,11.381,19.596,-13.388,4.971,2.457,3.271
1411.0,10.847,19.596,-12.797,4.764,3.4,3.972
1415.0,10.847,19.596,-12.797,4.764,3.4,3.972
1419.0,9.634,19.596,-10.494,4.33,4.209,4.634
1423.0,9.634,19.596,-10.494,4.33,4.209,4.634
1427.0,9.634,19.596,-10.494,4.33,4.209,4.634
1431.0,7.268,19.592,-8.071,3.695,4.843,4.989
1435.0,7.268,19.592,-8.071,3.695,4.843,4.989
1439.0,3.934,18.41,-6.003,3.695,4.843,5.013
1442.0,3.934,18.41,-6.003,2.882,5.015,5.013
1446.0,3.934,18.41,-6.003,2.882,5.015,5.013
1450.0,-0.128,15.988,-4.261,1.946,5.015,5.013
1454.0,-0.128,15.988,-4.261,1.946,5.015,5.013
1458.0,-0.128,15.988,-2.939,1.946,5.015,5.013
1462.0,-4.667,14.198,-2.939,0.903,5.015,5.013
1466.0,-4.667,14.198,-2.939,0.903,5.015,5.013
1470.0,-10.065,12.834,-1.984,-0.314,5.015,5.013
1474.0,-10.065,12.834,-1.984,-0.314,5.015,5.013
1478.0,-10.065,10.613,-1.196,-0.314,5.015,5.013
1482.0,-15.896,10.613,-1.196,-1.777,5.015,5.013
1486.0,-15.896,10.613,-1.196,-1.777,5.015,5.013
1490.0,-19.546,6.182,1.319,-3.38,5.003,5.013
1494.0,-19.546,6.182,1.319,-3.38,5.003,5.013
1498.0,-19.6,-0.059,3.605,-3.38,5.003,5.007
1502.0,-19.6,-0.059,3.605,-4.7,4.491,5.007
1506.0,-19.6,-0.059,3.605,-4.7,4.491,5.007
1510.0,-19.6,-5.985,4.702,-5.013,3.235,4.598
1514.0,-19.6,-5.985,4.702,-5.013,3.235,4.598
1518.0,-19.402,-10.839,5.998,-5.013,1.952,3.472
1522.0,-19.402,-10.839,5.998,-5.013,1.952,3.472
1526.0,-19.402,-10.839,5.998,-5.013,1.952,3.472
1530.0,-16.499,-14.166,6.415,-5.013,0.765,2.19
1534.0,-16.499,-14.166,6.415,-5.013,0.765,2.19
1538.0,-13.232,-16.269,6.307,-5.003,-0.316,0.917
1542.0,-13.232,-16.269,6.307,-5.003,-0.316,0.917
1546.0,-13.232,-16.269,6.307,-5.003,-0.316,0.917
1551.0,-9.872,-17.645,5.784,-4.449,-1.206,-0.206
1555.0,-9.872,-17.645,5.784,-4.449,-1.206,-0.206
1559.0,-6.689,-17.649,5.054,-2.968,-1.796,-1.114
1563.0,-6.689,-17.649,5.054,-2.968,-1.796,-1.114
1567.0,-4.325,-16.724,4.338,-1.293,-2.114,-1.777
1571.0,-4.325,-16.724,4.338,-1.293,-2.114,-1.777
1576.0,-4.325,-16.724,4.338,-1.293,-2.114,-1.777
1580.0,-2.875,-15.05,3.781,0.359,-2.291,-2.194
1584.0,-2.875,-15.05,3.781,0.359,-2.291,-2.194
1588.0,-2.132,-12.659,2.888,1.776,-2.445,-2.45
1592.0,-2.132,-12.659,2.888,1.776,-2.445,-2.45
1596.0,-2.132,-9.894,1.739,1.776,-2.445,-2.45
1600.0,-1.921,-9.894,1.739,2.788,-2.62,-2.65
1604.0,-1.921,-9.894,1.739,2.788,-2.62,-2.65
1608.0,-1.993,-7.134,0.859,3.322,-2.826,-2.848
1612.0,-1.993,-7.134,0.859,3.322,-2.826,-2.848
1616.0,-1.849,-4.469,0.278,3.322,-2.826,-2.848
1620.0,-1.849,-4.469,0.278,3.42,-3.044,-3.056
1624.0,-1.849,-4.469,0.278,3.42,-3.044,-3.056
1628.0,-1.351,-2.185,0.026,3.194,-3.221,-3.273
1632.0,-1.351,-2.185,0.026,3.194,-3.221,-3.273
1636.0,-0.435,-0.136,-0.117,3.194,-3.221,-3.492
1640.0,-0.435,-0.136,-0.117,2.788,-3.347,-3.492
1644.0,-0.435,-0.136,-0.117,2.788,-3.347,-3.492
1648.0,1.141,1.533,-0.354,2.337,-3.423,-3.694
1652.0,1.141,1.533,-0.354,2.337,-3.423,-3.694
1656.0,3.262,2.812,-0.706,1.941,-3.443,-3.863
1660.0,3.262,2.812,-0.706,1.941,-3.443,-3.863
1664.0,3.262,2.812,-0.706,1.941,-3.443,-3.863
1668.0,5.606,3.717,-1.181,1.668,-3.406,-3.998
1672.0,5.606,3.717,-1.181,1.668,-3.406,-3.998
1676.0,7.75,4.55,-1.819,1.668,-3.319,-4.104
1680.0,7.75,4.55,-1.819,1.542,-3.319,-4.104
1683.0,7.75,4.55,-1.819,1.542,-3.319,-4.104
1687.0,9.23,5.258,-2.24,1.526,-3.211,-4.173
1691.0,9.23,5.258,-2.24,1.526,-3.211,-4.173
1695.0,9.886,6.124,-2.291,1.526,-3.211,-4.234
1699.0,9.886,6.124,-2.291,1.535,-3.122,-4.234
1703.0,9.886,6.124,-2.291,1.535,-3.122,-4.234
1707.0,9.748,7.829,-2.563,1.518,-3.074,-4.31
1711.0,9.748,7.829,-2.563,1.518,-3.074,-4.31
1715.0,9.598,10.37,-3.949,1.518,-3.074,-4.31
1719.0,9.598,10.37,-3.949,1.479,-3.023,-4.314
1723.0,9.598,10.37,-3.949,1.479,-3.023,-4.314
1727.0,9.925,13.067,-5.672,1.435,-2.949,-4.18
1731.0,9.925,13.067,-5.672,1.435,-2.949,-4.18
1735.0,11.684,16.351,-8.1,1.435,-2.949,-3.935
1739.0,11.684,16.351,-8.1,1.385,-2.823,-3.935
1743.0,11.684,16.351,-8.1,1.385,-2.823,-3.935
1747.0,14.174,19.317,-10.88,1.293,-2.608,-3.568
1751.0,14.174,19.317,-10.88,1.293,-2.608,-3.568
1755.0,15.927,19.596,-13.074,1.076,-2.28,-3.12
1759.0,15.927,19.596,-13.074,1.076,-2.28,-3.12
1764.0,15.927,19.596,-13.074,1.076,-2.28,-3.12
1768.0,17.271,19.596,-15.76,0.741,-1.845,-2.603
1772.0,17.271,19.596,-15.76,0.741,-1.845,-2.603
1776.0,17.205,19.596,-17.642,0.327,-1.234,-2.019
1780.0,17.205,19.596,-17.642,0.327,-1.234,-2.019
1784.0,15.544,19.596,-17.078,-0.1,-0.529,-1.401
1789.0,15.544,19.596,-17.078,-0.1,-0.529,-1.401
1793.0,15.544,19.596,-17.078,-0.1,-0.529,-1.401
1797.0,13.625,19.596,-15.229,-0.381,0.119,-0.729
1801.0,13.625,19.596,-15.229,-0.381,0.119,-0.729
1806.0,12.772,19.596,-12.846,-0.41,0.672,-0.006
1810.0,12.772,19.596,-12.846,-0.41,0.672,-0.006
1814.0,12.79,19.596,-10.989,-0.41,1.156,0.704
1818.0,12.79,19.596,-10.989,-0.22,1.156,0.704
1822.0,12.79,19.596,-10.989,-0.22,1.156,0.704
1826.0,13.231,19.596,-11.203,0.088,1.632,1.368
1830.0,13.231,19.596,-11.203,0.088,1.632,1.368
1834.0,13.733,19.596,-12.197,0.397,2.183,1.976
1838.0,13.733,19.596,-12.197,0.397,2.183,1.976
1842.0,13.733,19.596,-12.197,0.397,2.183,1.976
1846.0,14.072,19.596,-12.891,0.58,2.789,2.521
1850.0,14.072,19.596,-12.891,0.58,2.789,2.521
1854.0,14.667,19.596,-13.683,0.561,3.419,3.032
1858.0,14.667,19.596,-13.683,0.561,3.419,3.032
1862.0,14.667,19.596,-13.683,0.561,3.419,3.032
1866.0,14.852,19.596,-13.27,0.395,4.106,3.532
1870.0,14.852,19.596,-13.27,0.395,4.106,3.532
1874.0,14.192,19.226,-12.043,0.218,4.756,4.022
1878.0,14.192,19.226,-12.043,0.218,4.756,4.022
1882.0,14.192,19.226,-12.043,0.218,4.756,4.022
1886.0,12.307,17.441,-9.803,0.076,5.011,4.506
1890.0,12.307,17.441,-9.803,0.076,5.011,4.506
1894.0,9.537,15.266,-7.366,-0.04,5.015,4.915
1898.0,9.537,15.266,-7.366,-0.04,5.015,4.915
1902.0,9.537,15.266,-7.366,-0.04,5.015,4.915
1906.0,6.124,13.138,-4.86,-0.153,5.015,5.013
1909.0,6.124,13.138,-4.86,-0.153,5.015,5.013
1913.0,2.326,10.856,-2.341,-0.318,5.015,5.013
1917.0,2.326,10.856,-2.341,-0.318,5.015,5.013
1921.0,2.326,10.856,-2.341,-0.318,5.015,5.013
1925.0,-1.442,8.696,-0.866,-0.573,5.015,5.013
1929.0,-1.442,8.696,-0.866,-0.573,5.015,5.013
1933.0,-4.88,7.204,-0.868,-0.94,5.015,5.013
1937.0,-4.88,7.204,-0.868,-0.94,5.015,5.013
1941.0,-4.88,7.204,-0.868,-0.94,5.015,5.013
1945.0,-8.559,6.549,-1.226,-1.431,5.015,5.013
1948.0,-8.559,6.549,-1.226,-1.431,5.015,5.013
1952.0,-13.767,5.332,-0.893,-2.049,5.015,5.013
1956.0,-13.767,5.332,-0.893,-2.049,5.015,5.013
1960.0,-13.767,5.332,-0.893,-2.049,5.015,5.013
1964.0,-19.158,2.923,0.304,-2.735,5.015,5.013
1968.0,-19.158,2.923,0.304,-2.735,5.015,5.013
1972.0,-19.6,-1.938,3.248,-3.254,5.015,5.013
1976.0,-19.6,-1.938,3.248,-3.254,5.015,5.013
1980.0,-19.6,-1.938,3.248,-3.254,5.015,5.013
1984.0,-19.6,-7.528,7.616,-3.253,4.667,4.908
1988.0,-19.6,-7.528,7.616,-3.253,4.667,4.908
1992.0,-19.595,-10.367,8.881,-2.701,2.822,4.267
1996.0,-19.595,-10.367,8.881,-2.701,2.822,4.267
2000.0,-19.595,-10.367,8.881,-2.701,2.822,4.267
2004.0,-12.517,-11.056,4.165,-2.027,0.906,3.374
2008.0,-12.517,-11.056,4.165,-2.027,0.906,3.374
2013.0,-1.476,-10.097,1.251,-1.594,0.015,2.097
2017.0,-1.476,-10.097,1.251,-1.594,0.015,2.097
2021.0,-1.476,-8.743,2.613,-1.594,0.015,2.097
2024.0,3.339,-8.743,2.613,-1.464,-0.279,0.666
2028.0,3.339,-8.743,2.613,-1.464,-0.279,0.666
2032.0,4.961,-7.378,4.595,-1.413,-0.624,-0.569
2036.0,4.961,-7.378,4.595,-1.413,-0.624,-0.569
2040.0,4.961,-5.691,5.774,-1.413,-0.624,-0.569
2044.0,5.574,-5.691,5.774,-1.274,-1.054,-1.51
2048.0,5.574,-5.691,5.774,-1.274,-1.054,-1.51
2052.0,5.23,-4.345,5.946,-1.082,-1.348,-2.052
2056.0,5.23,-4.345,5.946,-1.082,-1.348,-2.052
2060.0,4.559,-3.94,5.45,-1.082,-1.348,-2.052
2064.0,4.559,-3.94,5.45,-0.91,-1.484,-2.229
2068.0,4.559,-3.94,5.45,-0.91,-1.484,-2.229
2072.0,4.353,-3.884,4.579,-0.779,-1.48,-2.254
2076.0,4.353,-3.884,4.579,-0.779,-1.48,-2.254
2080.0,5.277,-3.175,3.388,-0.779,-1.48,-2.252
2084.0,5.277,-3.175,3.388,-0.664,-1.378,-2.252
2088.0,5.277,-3.175,3.388,-0.664,-1.378,-2.252
2092.0,7.871,-2.27,2.207,-0.564,-1.215,-2.204
2096.0,7.871,-2.27,2.207,-0.564,-1.215,-2.204
2100.0,11.183,-1.092,2.075,-0.564,-0.893,-2.119
2104.0,11.183,-1.092,2.075,-0.47,-0.893,-2.119
2108.0,11.183,-1.092,2.075,-0.47,-0.893,-2.119
2112.0,14.106,-0.127,3.114,-0.333,-0.466,-1.96
2116.0,14.106,-0.127,3.114,-0.333,-0.466,-1.96
2121.0,15.498,0.924,4.139,-0.125,-0.107,-1.726
2125.0,15.498,0.924,4.139,-0.125,-0.107,-1.726
2129.0,15.498,0.924,4.139,-0.125,-0.107,-1.726
2133.0,14.519,2.137,4.473,0.138,0.138,-1.435
2136.0,14.519,2.137,4.473,0.138,0.138,-1.435
2140.0,12.744,2.946,4.487,0.418,0.315,-1.11
2144.0,12.744,2.946,4.487,0.418,0.315,-1.11
2148.0,12.744,2.946,4.487,0.418,0.315,-1.11
2152.0,11.383,3.201,4.632,0.678,0.438,-0.817
2155.0,11.383,3.201,4.632,0.678,0.438,-0.817
2159.0,10.446,3.351,4.708,0.678,0.491,-0.62
2163.0,10.446,3.351,4.708,0.904,0.491,-0.62
2167.0,10.446,3.351,4.708,0.904,0.491,-0.62
2171.0,9.364,3.459,4.695,1.087,0.498,-0.51
2174.0,9.364,3.459,4.695,1.087,0.498,-0.51
2178.0,9.364,3.459,4.695,1.087,0.498,-0.51
2182.0,8.292,3.489,4.499,1.223,0.459,-0.457
2186.0,8.292,3.489,4.499,1.223,0.459,-0.457
2189.0,7.408,3.58,4.132,1.312,0.395,-0.456
2193.0,7.408,3.58,4.132,1.312,0.395,-0.456
2197.0,7.408,3.58,4.132,1.312,0.395,-0.456
2201.0,6.751,3.687,3.659,1.35,0.323,-0.482
2204.0,6.751,3.687,3.659,1.35,0.323,-0.482
2208.0,6.751,3.752,3.056,1.35,0.323,-0.482
2212.0,6.348,3.752,3.056,1.331,0.259,-0.511
2215.0,6.348,3.752,3.056,1.331,0.259,-0.511
2219.0,6.114,3.699,2.435,1.258,0.221,-0.534
2223.0,6.114,3.699,2.435,1.258,0.221,-0.534
2227.0,6.114,3.699,2.435,1.258,0.221,-0.534
2230.0,5.959,3.494,1.912,1.137,0.207,-0.566
2234.0,5.959,3.494,1.912,1.137,0.207,-0.566
2238.0,5.739,3.151,1.439,1.137,0.207,-0.566
2242.0,5.739,3.151,1.439,0.972,0.211,-0.619
2245.0,5.739,3.151,1.439,0.972,0.211,-0.619
2249.0,5.308,2.819,1.108,0.768,0.231,-0.71
2253.0,5.308,2.819,1.108,0.768,0.231,-0.71
2257.0,5.308,2.819,1.108,0.768,0.231,-0.71
2260.0,4.59,2.608,0.988,0.533,0.251,-0.836
2264.0,4.59,2.608,0.988,0.533,0.251,-0.836
2268.0,3.811,2.422,0.916,0.533,0.251,-0.983
2271.0,3.811,2.422,0.916,0.277,0.253,-0.983
2275.0,3.811,2.422,0.916,0.277,0.253,-0.983
2279.0,3.051,2.24,0.896,0.012,0.244,-1.154
2283.0,3.051,2.24,0.896,0.012,0.244,-1.154
2286.0,3.051,2.24,0.896,0.012,0.244,-1.154
2290.0,2.384,2.002,0.876,-0.246,0.232,-1.355
2294.0,2.384,2.002,0.876,-0.246,0.232,-1.355
2298.0,1.864,1.749,0.79,-0.485,0.214,-1.581
2302.0,1.864,1.749,0.79,-0.485,0.214,-1.581
2305.0,1.864,1.749,0.79,-0.485,0.214,-1.581
2309.0,1.478,1.513,0.625,-0.699,0.207,-1.821
2313.0,1.478,1.513,0.625,-0.699,0.207,-1.821
2317.0,1.158,1.326,0.508,-0.699,0.207,-1.821
2321.0,1.158,1.326,0.508,-0.884,0.223,-2.064
2325.0,1.158,1.326,0.508,-0.884,0.223,-2.064
2328.0,0.867,1.161,0.386,-1.044,0.26,-2.29
2332.0,0.867,1.161,0.386,-1.044,0.26,-2.29
2336.0,0.867,1.161,0.386,-1.044,0.26,-2.29
2340.0,0.581,1.032,0.236,-1.182,0.316,-2.481
2344.0,0.581,1.032,0.236,-1.182,0.316,-2.481
2347.0,0.417,0.878,0.062,-1.307,0.393,-2.63
2351.0,0.417,0.878,0.062,-1.307,0.393,-2.63
2355.0,0.417,0.878,0.062,-1.307,0.393,-2.63
2359.0,0.455,0.68,-0.09,-1.419,0.512,-2.76
2363.0,0.455,0.68,-0.09,-1.419,0.512,-2.76
2367.0,0.614,0.482,-0.106,-1.511,0.683,-2.897
2371.0,0.614,0.482,-0.106,-1.511,0.683,-2.897
2375.0,0.614,0.482,-0.106,-1.511,0.683,-2.897
2378.0,0.799,0.305,0.065,-1.576,0.892,-3.037
2382.0,0.799,0.305,0.065,-1.576,0.892,-3.037
2386.0,0.914,0.136,0.26,-1.576,0.892,-3.152
2390.0,0.914,0.136,0.26,-1.614,1.108,-3.152
2394.0,0.914,0.136,0.26,-1.614,1.108,-3.152
2398.0,0.909,-0.004,0.379,-1.635,1.321,-3.227
2401.0,0.909,-0.004,0.379,-1.635,1.321,-3.227
2405.0,0.909,-0.004,0.342,-1.635,1.321,-3.227
2409.0,0.705,-0.096,0.342,-1.651,1.537,-3.251
2413.0,0.705,-0.096,0.342,-1.651,1.537,-3.251
2417.0,0.456,-0.181,0.194,-1.677,1.761,-3.213
2421.0,0.456,-0.181,0.194,-1.677,1.761,-3.213
2425.0,0.456,-0.181,0.194,-1.677,1.761,-3.213
2429.0,0.281,-0.233,0.017,-1.722,2.01,-3.13
2433.0,0.281,-0.233,0.017,-1.722,2.01,-3.13
2437.0,0.304,-0.357,-0.086,-1.785,2.304,-3.029
2441.0,0.304,-0.357,-0.086,-1.785,2.304,-3.029
2445.0,0.304,-0.357,-0.086,-1.785,2.304,-3.029
2449.0,0.517,-0.545,-0.004,-1.855,2.652,-2.95
2453.0,0.517,-0.545,-0.004,-1.855,2.652,-2.95
2457.0,0.682,-0.677,0.185,-1.916,3.052,-2.915
2460.0,0.682,-0.677,0.185,-1.916,3.052,-2.915
2464.0,0.682,-0.677,0.185,-1.916,3.052,-2.915
2468.0,0.556,-0.668,0.379,-1.972,3.468,-2.898
2472.0,0.556,-0.668,0.379,-1.972,3.468,-2.898
2476.0,0.196,-0.532,0.51,-2.039,3.871,-2.84
2480.0,0.196,-0.532,0.51,-2.039,3.871,-2.84
2484.0,0.196,-0.532,0.51,-2.039,3.871,-2.84
2488.0,-0.254,-0.304,0.637,-2.134,4.261,-2.72
2492.0,-0.254,-0.304,0.637,-2.134,4.261,-2.72
2496.0,-0.767,-0.1,0.659,-2.261,4.654,-2.541
2500.0,-0.767,-0.1,0.659,-2.261,4.654,-2.541
2504.0,-0.767,-0.1,0.659,-2.261,4.654,-2.541
2508.0,-0.836,-0.226,0.584,-2.421,4.966,-2.311
2512.0,-0.836,-0.226,0.584,-2.421,4.966,-2.311
2516.0,-0.718,-0.438,1.056,-2.58,5.015,-2.15
2520.0,-0.718,-0.438,1.056,-2.58,5.015,-2.15
2524.0,-0.718,-0.438,1.737,-2.58,5.015,-2.15
2528.0,-1.346,-0.439,1.737,-2.691,5.015,-2.11
2532.0,-1.346,-0.439,1.737,-2.691,5.015,-2.11
2536.0,-2.416,-0.528,2.11,-2.756,5.015,-2.081
2540.0,-2.416,-0.528,2.11,-2.756,5.015,-2.081
2544.0,-2.416,-0.763,2.608,-2.756,5.015,-2.081
2548.0,-3.903,-0.763,2.608,-2.815,5.015,-2.008
2552.0,-3.903,-0.763,2.608,-2.815,5.015,-2.008
2556.0,-5.959,-1.008,3.212,-2.897,5.015,-1.863
2560.0,-5.959,-1.008,3.212,-2.897,5.015,-1.863
2564.0,-8.209,-1.403,3.605,-2.897,5.015,-1.863
2568.0,-8.209,-1.403,3.605,-2.986,5.015,-1.623
2572.0,-8.209,-1.403,3.605,-2.986,5.015,-1.623
2576.0,-10.252,-2.166,4.146,-3.051,5.015,-1.324
2580.0,-10.252,-2.166,4.146,-3.051,5.015,-1.324
2584.0,-12.255,-2.6,4.612,-3.051,5.015,-1.055
2588.0,-12.255,-2.6,4.612,-3.041,5.015,-1.055
2592.0,-12.255,-2.6,4.612,-3.041,5.015,-1.055
2596.0,-14.199,-2.567,4.692,-2.934,5.015,-0.828
2600.0,-14.199,-2.567,4.692,-2.934,5.015,-0.828
2604.0,-16.286,-2.206,4.377,-2.724,5.015,-0.621
2608.0,-16.286,-2.206,4.377,-2.724,5.015,-0.621
2612.0,-16.286,-2.206,4.377,-2.724,5.015,-0.621
2616.0,-18.612,-1.635,3.705,-2.433,5.015,-0.391
2621.0,-18.612,-1.635,3.705,-2.433,5.015,-0.391
2625.0,-19.6,-1.073,2.892,-2.11,5.015,-0.071
2629.0,-19.6,-1.073,2.892,-2.11,5.015,-0.071
2633.0,-19.6,-0.912,2.474,-2.11,5.015,-0.071
2637.0,-19.6,-0.912,2.474,-1.802,5.015,0.375
2641.0,-19.6,-0.912,2.474,-1.802,5.015,0.375
2645.0,-19.6,-1.161,2.551,-1.516,5.015,0.923
2649.0,-19.6,-1.161,2.551,-1.516,5.015,0.923
2653.0,-19.6,-1.466,3.096,-1.516,5.015,1.517
2657.0,-19.6,-1.466,3.096,-1.221,5.015,1.517
2661.0,-19.6,-1.466,3.096,-1.221,5.015,1.517
2665.0,-19.6,-1.731,4.038,-0.884,5.015,2.088
2669.0,-19.6,-1.731,4.038,-0.884,5.015,2.088
2673.0,-19.6,-2.104,4.719,-0.508,5.015,2.519
2677.0,-19.6,-2.104,4.719,-0.508,5.015,2.519
2681.0,-19.6,-2.104,4.719,-0.508,5.015,2.519
2685.0,-19.6,-1.91,4.306,-0.14,5.015,2.717
2689.0,-19.6,-1.91,4.306,-0.14,5.015,2.717
2693.0,-19.6,-1.274,2.589,0.107,5.015,2.662
2697.0,-19.6,-1.274,2.589,0.107,5.015,2.662
2701.0,-19.6,-1.274,2.589,0.107,5.015,2.662
2704.0,-19.6,0.152,0.834,0.107,5.015,2.335
2708.0,-19.6,0.152,0.834,0.107,5.015,2.335
2712.0,-19.6,1.932,0.123,0.107,5.015,1.686
2716.0,-19.6,1.932,0.123,-0.207,5.015,1.686
2720.0,-19.6,1.932,0.123,-0.207,5.015,1.686
2724.0,-19.6,3.836,0.641,-0.856,5.015,0.569
2728.0,-19.6,3.836,0.641,-0.856,5.015,0.569
2732.0,-19.6,4.282,1.101,-0.856,5.015,-0.776
2736.0,-19.6,4.282,1.101,-1.814,5.015,-0.776
2740.0,-19.6,4.282,1.101,-1.814,5.015,-0.776
2744.0,-19.6,5.319,2.855,-2.901,4.872,-2.035
2748.0,-19.6,5.319,2.855,-2.901,4.872,-2.035
2752.0,-19.6,6.767,4.608,-2.901,4.276,-2.963
2756.0,-19.6,6.767,4.608,-3.799,4.276,-2.963
2759.0,-19.6,6.767,4.608,-3.799,4.276,-2.963
2763.0,-19.6,6.814,4.401,-4.456,3.606,-3.391
2767.0,-19.6,6.814,4.401,-4.456,3.606,-3.391
2771.0,-19.537,6.051,4.024,-4.901,3.118,-3.508
2775.0,-19.537,6.051,4.024,-4.901,3.118,-3.508
2779.0,-19.537,6.051,4.024,-4.901,3.118,-3.508
2783.0,-18.235,4.971,3.719,-5.012,2.841,-3.519
2787.0,-18.235,4.971,3.719,-5.012,2.841,-3.519
2791.0,-17.616,4.096,3.555,-5.013,2.729,-3.484
2795.0,-17.616,4.096,3.555,-5.013,2.729,-3.484
2799.0,-17.616,4.096,3.555,-5.013,2.729,-3.484
2803.0,-17.953,2.894,3.291,-5.013,2.707,-3.358
2807.0,-17.953,2.894,3.291,-5.013,2.707,-3.358
2811.0,-18.348,1.496,3.246,-5.013,2.723,-3.156
2815.0,-18.348,1.496,3.246,-5.013,2.723,-3.156
2819.0,-18.348,1.496,3.246,-5.013,2.723,-3.156
2823.0,-17.492,-0.065,3.562,-5.013,2.714,-2.921
2827.0,-17.492,-0.065,3.562,-5.013,2.714,-2.921
2832.0,-16.088,-1.387,4.129,-5.013,2.663,-2.678
2836.0,-16.088,-1.387,4.129,-5.013,2.663,-2.678
2840.0,-16.088,-2.656,4.41,-5.013,2.663,-2.678
2844.0,-15.047,-2.656,4.41,-5.013,2.6,-2.394
2848.0,-15.047,-2.656,4.41,-5.013,2.6,-2.394
2852.0,-14.373,-4.009,4.579,-5.013,2.535,-2.1
2856.0,-14.373,-4.009,4.579,-5.013,2.535,-2.1
2860.0,-13.114,-4.869,5.233,-5.013,2.454,-1.85
2864.0,-13.114,-4.869,5.233,-4.995,2.454,-1.85
2868.0,-13.114,-4.869,5.233,-4.995,2.454,-1.85
2872.0,-12.343,-5.678,6.081,-4.822,2.392,-1.624
2876.0,-12.343,-5.678,6.081,-4.822,2.392,-1.624
2881.0,-12.225,-5.713,7.65,-4.507,2.188,-1.416
2885.0,-12.225,-5.713,7.65,-4.507,2.188,-1.416
2889.0,-12.225,-5.713,7.65,-4.507,2.188,-1.416
2893.0,-11.434,-6.707,6.762,-3.978,1.96,-1.202
2897.0,-11.434,-6.707,6.762,-3.978,1.96,-1.202
2901.0,-10.236,-6.206,7.682,-3.286,1.718,-0.998
2905.0,-10.236,-6.206,7.682,-3.286,1.718,-0.998
2909.0,-9.598,-5.562,8.062,-3.286,1.718,-0.998
2913.0,-9.598,-5.562,8.062,-2.585,1.434,-0.758
2917.0,-9.598,-5.562,8.062,-2.585,1.434,-0.758
2921.0,-9.292,-4.984,8.075,-1.868,1.158,-0.48
2925.0,-9.292,-4.984,8.075,-1.868,1.158,-0.48
2929.0,-9.192,-4.71,7.832,-1.868,1.158,-0.205
2933.0,-9.192,-4.71,7.832,-1.151,0.879,-0.205
2937.0,-9.192,-4.71,7.832,-1.151,0.879,-0.205
2941.0,-8.9,-4.369,7.444,-0.458,0.59,0.016
2945.0,-8.9,-4.369,7.444,-0.458,0.59,0.016
2949.0,-8.376,-3.844,6.867,-0.458,0.59,0.19
2953.0,-8.376,-3.844,6.867,0.177,0.298,0.19
2957.0,-8.376,-3.844,6.867,0.177,0.298,0.19
2960.0,-7.85,-3.232,6.169,0.725,0.033,0.341
2964.0,-7.85,-3.232,6.169,0.725,0.033,0.341
2968.0,-7.85,-3.232,5.429,0.725,0.033,0.341
2972.0,-7.467,-2.651,5.429,1.162,-0.179,0.474
2976.0,-7.467,-2.651,5.429,1.162,-0.179,0.474
2980.0,-7.298,-2.106,4.792,1.484,-0.339,0.583
2984.0,-7.298,-2.106,4.792,1.484,-0.339,0.583
2987.0,-7.298,-2.106,4.792,1.484,-0.339,0.583
2991.0,-7.427,-1.543,4.381,1.695,-0.462,0.668
2995.0,-7.427,-1.543,4.381,1.695,-0.462,0.668
2999.0,-7.796,-1.005,4.082,1.808,-0.568,0.734
