deltaTime,Acc_X,Acc_Y,Acc_Z,Gyro_X,Gyro_Y,Gyro_Z
0.0,-8.892,-1.141,3.034,-0.101,-0.042,0.208
3.0,-8.892,-1.141,3.034,-0.101,-0.042,0.208
6.0,-9.121,-0.88,3.028,-0.136,-0.043,0.176
9.0,-9.121,-0.88,3.028,-0.136,-0.043,0.176
12.0,-9.121,-0.88,3.028,-0.136,-0.043,0.176
15.0,-9.467,-1.289,3.169,-0.136,-0.043,0.176
18.0,-9.467,-1.289,3.169,-0.214,-0.067,0.146
21.0,-9.467,-1.289,3.169,-0.214,-0.067,0.146
24.0,-9.467,-1.289,3.169,-0.214,-0.067,0.146
27.0,-9.458,-1.56,3.528,-0.24,-0.089,0.139
30.0,-9.458,-1.56,3.528,-0.24,-0.089,0.139
33.0,-9.458,-1.56,3.528,-0.24,-0.089,0.139
37.0,-9.693,-1.655,3.666,-0.218,-0.061,0.114
40.0,-9.693,-1.655,3.666,-0.218,-0.061,0.114
44.0,-9.635,-1.582,3.669,-0.218,-0.061,0.114
48.0,-9.635,-1.582,3.669,-0.171,-0.083,0.076
52.0,-9.635,-1.582,3.669,-0.171,-0.083,0.076
56.0,-9.345,-1.449,3.52,-0.13,-0.109,0.037
60.0,-9.345,-1.449,3.52,-0.13,-0.109,0.037
63.0,-9.345,-1.449,3.52,-0.13,-0.109,0.037
67.0,-9.177,-1.162,3.383,-0.104,-0.114,-0.006
71.0,-9.177,-1.162,3.383,-0.104,-0.114,-0.006
75.0,-9.315,-0.601,3.254,-0.124,-0.107,-0.055
79.0,-9.315,-0.601,3.254,-0.124,-0.107,-0.055
83.0,-9.315,-0.601,3.254,-0.124,-0.107,-0.055
87.0,-9.63,-0.374,3.367,-0.223,-0.116,-0.097
91.0,-9.63,-0.374,3.367,-0.223,-0.116,-0.097
95.0,-9.997,-1.056,3.668,-0.295,-0.135,-0.114
98.0,-9.997,-1.056,3.668,-0.295,-0.135,-0.114
102.0,-9.997,-1.056,3.668,-0.295,-0.135,-0.114
106.0,-9.912,-1.413,3.811,-0.232,-0.163,-0.086
110.0,-9.912,-1.413,3.811,-0.232,-0.163,-0.086
114.0,-9.529,-1.429,3.763,-0.111,-0.191,-0.054
118.0,-9.529,-1.429,3.763,-0.111,-0.191,-0.054
122.0,-9.529,-1.429,3.763,-0.111,-0.191,-0.054
126.0,-9.186,-1.439,3.6,0.004,-0.21,-0.033
130.0,-9.186,-1.439,3.6,0.004,-0.21,-0.033
134.0,-9.162,-1.437,3.605,0.113,-0.22,-0.017
138.0,-9.162,-1.437,3.605,0.113,-0.22,-0.017
142.0,-9.162,-1.437,3.605,0.113,-0.22,-0.017
146.0,-9.158,-1.247,3.596,0.21,-0.219,-0.003
150.0,-9.158,-1.247,3.596,0.21,-0.219,-0.003
154.0,-9.073,-1.13,3.572,0.266,-0.209,-0.003
158.0,-9.073,-1.13,3.572,0.266,-0.209,-0.003
162.0,-9.073,-1.13,3.572,0.266,-0.209,-0.003
165.0,-9.076,-1.013,3.553,0.304,-0.208,-0.017
169.0,-9.076,-1.013,3.553,0.304,-0.208,-0.017
173.0,-9.379,-1.549,3.343,0.368,-0.212,-0.038
177.0,-9.379,-1.549,3.343,0.368,-0.212,-0.038
181.0,-9.379,-1.549,3.343,0.368,-0.212,-0.038
185.0,-9.147,-1.086,3.249,0.512,-0.219,-0.038
189.0,-9.147,-1.086,3.249,0.512,-0.219,-0.038
193.0,-8.915,-0.511,3.207,0.512,-0.202,-0.037
197.0,-8.915,-0.511,3.207,0.584,-0.202,-0.037
201.0,-8.915,-0.511,3.207,0.584,-0.202,-0.037
204.0,-8.831,-0.004,3.179,0.572,-0.183,-0.046
208.0,-8.831,-0.004,3.179,0.572,-0.183,-0.046
212.0,-8.608,0.276,3.245,0.572,-0.183,-0.06
216.0,-8.608,0.276,3.245,0.485,-0.169,-0.06
220.0,-8.608,0.276,3.245,0.485,-0.169,-0.06
224.0,-8.496,0.473,3.331,0.363,-0.132,-0.07
228.0,-8.496,0.473,3.331,0.363,-0.132,-0.07
231.0,-8.496,0.473,3.331,0.363,-0.132,-0.07
235.0,-8.771,0.599,3.405,0.224,-0.092,-0.068
239.0,-8.771,0.599,3.405,0.224,-0.092,-0.068
243.0,-9.095,0.215,3.552,0.084,-0.059,-0.038
247.0,-9.095,0.215,3.552,0.084,-0.059,-0.038
250.0,-9.095,0.215,3.552,0.084,-0.059,-0.038
254.0,-9.251,-0.448,3.754,-0.0,-0.025,0.013
258.0,-9.251,-0.448,3.754,-0.0,-0.025,0.013
262.0,-9.395,-1.067,3.973,0.017,0.016,0.065
266.0,-9.395,-1.067,3.973,0.017,0.016,0.065
270.0,-9.395,-1.067,3.973,0.017,0.016,0.065
273.0,-9.464,-1.272,3.986,0.113,0.061,0.119
277.0,-9.464,-1.272,3.986,0.113,0.061,0.119
281.0,-9.464,-1.272,3.986,0.113,0.061,0.119
285.0,-9.406,-1.179,3.951,0.211,0.101,0.162
288.0,-9.406,-1.179,3.951,0.211,0.101,0.162
292.0,-9.34,-0.981,4.042,0.274,0.14,0.191
296.0,-9.34,-0.981,4.042,0.274,0.14,0.191
299.0,-9.34,-0.981,4.042,0.274,0.14,0.191
303.0,-9.335,-0.797,4.153,0.315,0.17,0.207
307.0,-9.335,-0.797,4.153,0.315,0.17,0.207
311.0,-9.335,-0.634,4.178,0.315,0.17,0.207
314.0,-9.23,-0.634,4.178,0.333,0.193,0.219
318.0,-9.23,-0.634,4.178,0.333,0.193,0.219
322.0,-8.962,-0.237,4.181,0.309,0.221,0.218
326.0,-8.962,-0.237,4.181,0.309,0.221,0.218
329.0,-8.962,-0.237,4.181,0.309,0.221,0.218
333.0,-8.831,0.283,4.108,0.211,0.258,0.2
337.0,-8.831,0.283,4.108,0.211,0.258,0.2
340.0,-8.831,0.935,4.065,0.211,0.258,0.2
344.0,-8.91,0.935,4.065,0.006,0.297,0.166
348.0,-8.91,0.935,4.065,0.006,0.297,0.166
351.0,-9.26,1.131,4.186,-0.327,0.326,0.123
355.0,-9.26,1.131,4.186,-0.327,0.326,0.123
359.0,-9.26,1.131,4.186,-0.327,0.326,0.123
362.0,-9.899,0.276,4.581,-0.668,0.335,0.081
366.0,-9.899,0.276,4.581,-0.668,0.335,0.081
370.0,-9.899,-0.97,4.921,-0.668,0.335,0.081
374.0,-10.414,-0.97,4.921,-0.808,0.316,0.083
378.0,-10.414,-0.97,4.921,-0.808,0.316,0.083
382.0,-10.394,-2.104,5.085,-0.708,0.252,0.143
385.0,-10.394,-2.104,5.085,-0.708,0.252,0.143
389.0,-10.394,-2.104,5.035,-0.708,0.252,0.143
393.0,-10.157,-3.112,5.035,-0.451,0.192,0.218
397.0,-10.157,-3.112,5.035,-0.451,0.192,0.218
401.0,-9.985,-3.571,4.756,-0.079,0.114,0.263
405.0,-9.985,-3.571,4.756,-0.079,0.114,0.263
409.0,-9.985,-3.571,4.756,-0.079,0.114,0.263
413.0,-9.801,-3.567,4.337,0.295,0.022,0.251
416.0,-9.801,-3.567,4.337,0.295,0.022,0.251
420.0,-9.326,-3.022,3.922,0.605,-0.063,0.181
424.0,-9.326,-3.022,3.922,0.605,-0.063,0.181
428.0,-9.326,-3.022,3.922,0.605,-0.063,0.181
431.0,-9.059,-1.856,3.336,0.781,-0.13,0.05
435.0,-9.059,-1.856,3.336,0.781,-0.13,0.05
439.0,-9.038,-0.602,2.85,0.781,-0.13,0.05
443.0,-9.038,-0.602,2.85,0.737,-0.205,-0.147
447.0,-9.038,-0.602,2.85,0.737,-0.205,-0.147
451.0,-9.004,-0.34,2.667,0.529,-0.259,-0.333
455.0,-9.004,-0.34,2.667,0.529,-0.259,-0.333
459.0,-9.004,-0.34,2.675,0.529,-0.259,-0.333
462.0,-9.029,-0.353,2.675,0.323,-0.271,-0.447
466.0,-9.029,-0.353,2.675,0.323,-0.271,-0.447
470.0,-9.264,-0.383,2.792,0.167,-0.251,-0.509
474.0,-9.264,-0.383,2.792,0.167,-0.251,-0.509
478.0,-9.264,-0.383,2.792,0.167,-0.251,-0.509
482.0,-9.626,-0.427,2.97,0.054,-0.232,-0.544
486.0,-9.626,-0.427,2.97,0.054,-0.232,-0.544
490.0,-10.015,-0.451,3.168,-0.029,-0.224,-0.565
494.0,-10.015,-0.451,3.168,-0.029,-0.224,-0.565
498.0,-10.015,-0.451,3.354,-0.029,-0.224,-0.565
502.0,-10.371,-0.47,3.354,-0.095,-0.229,-0.577
506.0,-10.371,-0.47,3.354,-0.095,-0.229,-0.577
510.0,-10.584,-0.523,3.503,-0.152,-0.244,-0.578
514.0,-10.584,-0.523,3.503,-0.152,-0.244,-0.578
518.0,-10.592,-0.622,3.586,-0.152,-0.244,-0.567
522.0,-10.592,-0.622,3.586,-0.202,-0.262,-0.567
527.0,-10.592,-0.622,3.586,-0.202,-0.262,-0.567
531.0,-10.34,-0.749,3.628,-0.245,-0.281,-0.549
535.0,-10.34,-0.749,3.628,-0.245,-0.281,-0.549
539.0,-9.9,-0.932,3.616,-0.273,-0.296,-0.534
543.0,-9.9,-0.932,3.616,-0.273,-0.296,-0.534
547.0,-9.9,-0.932,3.616,-0.273,-0.296,-0.534
551.0,-9.459,-1.053,3.582,-0.277,-0.3,-0.524
555.0,-9.459,-1.053,3.582,-0.277,-0.3,-0.524
559.0,-9.106,-1.15,3.591,-0.254,-0.288,-0.517
563.0,-9.106,-1.15,3.591,-0.254,-0.288,-0.517
567.0,-9.106,-1.15,3.591,-0.254,-0.288,-0.517
571.0,-8.82,-1.259,3.708,-0.201,-0.274,-0.51
575.0,-8.82,-1.259,3.708,-0.201,-0.274,-0.51
579.0,-8.803,-1.334,3.989,-0.113,-0.271,-0.503
583.0,-8.803,-1.334,3.989,-0.113,-0.271,-0.503
587.0,-8.803,-1.334,3.989,-0.113,-0.271,-0.503
591.0,-8.967,-1.38,4.234,0.021,-0.29,-0.494
595.0,-8.967,-1.38,4.234,0.021,-0.29,-0.494
598.0,-9.206,-1.316,4.322,0.19,-0.321,-0.475
602.0,-9.206,-1.316,4.322,0.19,-0.321,-0.475
606.0,-9.206,-1.316,4.322,0.19,-0.321,-0.475
610.0,-9.431,-1.297,4.417,0.359,-0.352,-0.444
614.0,-9.431,-1.297,4.417,0.359,-0.352,-0.444
618.0,-9.641,-1.332,4.696,0.525,-0.388,-0.411
622.0,-9.641,-1.332,4.696,0.525,-0.388,-0.411
626.0,-9.641,-1.332,4.696,0.525,-0.388,-0.411
630.0,-9.86,-1.375,4.973,0.691,-0.438,-0.384
634.0,-9.86,-1.375,4.973,0.691,-0.438,-0.384
638.0,-10.018,-1.438,5.226,0.859,-0.501,-0.37
642.0,-10.018,-1.438,5.226,0.859,-0.501,-0.37
646.0,-10.018,-1.438,5.226,0.859,-0.501,-0.37
650.0,-9.998,-1.52,5.639,1.027,-0.575,-0.377
653.0,-9.998,-1.52,5.639,1.027,-0.575,-0.377
657.0,-10.004,-1.588,6.239,1.197,-0.661,-0.413
661.0,-10.004,-1.588,6.239,1.197,-0.661,-0.413
665.0,-10.004,-1.588,6.239,1.197,-0.661,-0.413
669.0,-10.153,-1.58,6.775,1.379,-0.76,-0.465
673.0,-10.153,-1.58,6.775,1.379,-0.76,-0.465
677.0,-10.527,-1.478,7.276,1.576,-0.865,-0.514
681.0,-10.527,-1.478,7.276,1.576,-0.865,-0.514
685.0,-10.527,-1.478,7.276,1.576,-0.865,-0.514
689.0,-11.042,-1.33,7.903,1.775,-0.982,-0.532
693.0,-11.042,-1.33,7.903,1.775,-0.982,-0.532
697.0,-11.675,-1.211,8.819,1.959,-1.124,-0.505
701.0,-11.675,-1.211,8.819,1.959,-1.124,-0.505
705.0,-11.675,-1.211,9.848,1.959,-1.124,-0.505
709.0,-12.209,-1.041,9.848,2.113,-1.32,-0.44
713.0,-12.209,-1.041,9.848,2.113,-1.32,-0.44
717.0,-12.435,-0.842,10.625,2.235,-1.572,-0.357
721.0,-12.435,-0.842,10.625,2.235,-1.572,-0.357
725.0,-12.37,-0.689,11.238,2.235,-1.572,-0.357
729.0,-12.37,-0.689,11.238,2.305,-1.851,-0.276
734.0,-12.37,-0.689,11.238,2.305,-1.851,-0.276
738.0,-12.745,-0.941,11.885,2.301,-2.075,-0.219
742.0,-12.745,-0.941,11.885,2.301,-2.075,-0.219
746.0,-12.608,-0.576,12.534,2.316,-2.408,-0.215
750.0,-12.608,-0.576,12.534,2.316,-2.408,-0.215
754.0,-12.608,-0.576,12.534,2.316,-2.408,-0.215
758.0,-12.644,0.125,12.933,2.28,-2.721,-0.252
762.0,-12.644,0.125,12.933,2.28,-2.721,-0.252
766.0,-12.898,0.787,13.229,2.202,-3.02,-0.3
770.0,-12.898,0.787,13.229,2.202,-3.02,-0.3
774.0,-12.898,0.787,13.229,2.202,-3.02,-0.3
778.0,-13.274,1.064,13.67,2.081,-3.308,-0.317
782.0,-13.274,1.064,13.67,2.081,-3.308,-0.317
786.0,-13.47,0.964,14.151,1.935,-3.602,-0.319
790.0,-13.47,0.964,14.151,1.935,-3.602,-0.319
794.0,-13.47,0.964,14.151,1.935,-3.602,-0.319
798.0,-13.63,0.702,14.716,1.79,-3.907,-0.339
802.0,-13.63,0.702,14.716,1.79,-3.907,-0.339
806.0,-13.837,0.421,15.179,1.656,-4.214,-0.377
810.0,-13.837,0.421,15.179,1.656,-4.214,-0.377
814.0,-13.837,0.421,15.413,1.656,-4.214,-0.377
818.0,-13.883,0.059,15.413,1.528,-4.509,-0.413
822.0,-13.883,0.059,15.413,1.528,-4.509,-0.413
826.0,-13.677,-0.605,15.801,1.414,-4.791,-0.451
830.0,-13.677,-0.605,15.801,1.414,-4.791,-0.451
834.0,-13.474,-1.411,16.108,1.414,-4.791,-0.451
838.0,-13.474,-1.411,16.108,1.359,-4.973,-0.521
842.0,-13.474,-1.411,16.108,1.359,-4.973,-0.521
846.0,-13.224,-2.113,16.263,1.388,-4.992,-0.606
850.0,-13.224,-2.113,16.263,1.388,-4.992,-0.606
854.0,-12.762,-2.632,16.098,1.498,-4.992,-0.674
859.0,-12.762,-2.632,16.098,1.498,-4.992,-0.674
863.0,-12.762,-2.632,16.098,1.498,-4.992,-0.674
867.0,-12.095,-3.106,15.898,1.679,-4.992,-0.718
871.0,-12.095,-3.106,15.898,1.679,-4.992,-0.718
875.0,-11.636,-3.639,15.583,1.918,-4.992,-0.765
879.0,-11.636,-3.639,15.583,1.918,-4.992,-0.765
883.0,-11.636,-3.639,15.044,1.918,-4.992,-0.765
887.0,-11.296,-4.277,15.044,2.181,-4.992,-0.82
891.0,-11.296,-4.277,15.044,2.181,-4.992,-0.82
895.0,-10.662,-4.832,14.52,2.447,-4.992,-0.889
899.0,-10.662,-4.832,14.52,2.447,-4.992,-0.889
903.0,-9.766,-5.416,13.778,2.447,-4.992,-0.975
907.0,-9.766,-5.416,13.778,2.716,-4.992,-0.975
911.0,-9.766,-5.416,13.778,2.716,-4.992,-0.975
915.0,-8.697,-5.739,12.907,2.968,-4.992,-1.072
919.0,-8.697,-5.739,12.907,2.968,-4.992,-1.072
923.0,-7.86,-5.751,12.132,3.165,-4.992,-1.151
927.0,-7.86,-5.751,12.132,3.165,-4.992,-1.151
931.0,-7.86,-5.751,12.132,3.165,-4.992,-1.151
935.0,-7.437,-5.792,11.319,3.372,-4.992,-1.209
939.0,-7.437,-5.792,11.319,3.372,-4.992,-1.209
943.0,-6.826,-5.887,10.577,3.596,-4.992,-1.256
947.0,-6.826,-5.887,10.577,3.596,-4.992,-1.256
951.0,-6.826,-5.887,10.577,3.596,-4.992,-1.256
955.0,-6.354,-5.812,9.742,3.788,-4.992,-1.323
959.0,-6.354,-5.812,9.742,3.788,-4.992,-1.323
963.0,-5.57,-5.644,8.809,3.955,-4.992,-1.391
967.0,-5.57,-5.644,8.809,3.955,-4.992,-1.391
971.0,-5.57,-5.644,8.809,3.955,-4.992,-1.391
975.0,-4.738,-5.528,8.047,4.085,-4.992,-1.471
979.0,-4.738,-5.528,8.047,4.085,-4.992,-1.471
983.0,-4.266,-5.389,7.261,4.175,-4.992,-1.56
987.0,-4.266,-5.389,7.261,4.175,-4.992,-1.56
990.0,-4.266,-5.389,7.261,4.175,-4.992,-1.56
994.0,-3.839,-5.183,6.413,4.216,-4.992,-1.621
998.0,-3.839,-5.183,6.413,4.216,-4.992,-1.621
1002.0,-3.371,-4.922,5.691,4.216,-4.992,-1.675
1006.0,-3.371,-4.922,5.691,4.229,-4.992,-1.675
1010.0,-3.371,-4.922,5.691,4.229,-4.992,-1.675
1014.0,-2.856,-4.657,4.81,4.243,-4.964,-1.742
1018.0,-2.856,-4.657,4.81,4.243,-4.964,-1.742
1022.0,-2.303,-4.376,3.955,4.237,-4.845,-1.808
1026.0,-2.303,-4.376,3.955,4.237,-4.845,-1.808
1030.0,-2.303,-4.376,3.955,4.237,-4.845,-1.808
1034.0,-1.95,-3.961,3.206,4.21,-4.695,-1.869
1038.0,-1.95,-3.961,3.206,4.21,-4.695,-1.869
1042.0,-1.73,-3.353,2.515,4.17,-4.545,-1.93
1046.0,-1.73,-3.353,2.515,4.17,-4.545,-1.93
1050.0,-1.73,-3.353,2.515,4.17,-4.545,-1.93
1054.0,-1.434,-2.516,2.016,4.121,-4.399,-1.989
1058.0,-1.434,-2.516,2.016,4.121,-4.399,-1.989
1062.0,-1.204,-1.777,1.601,4.073,-4.251,-2.026
1066.0,-1.204,-1.777,1.601,4.073,-4.251,-2.026
1070.0,-1.204,-1.777,1.601,4.073,-4.251,-2.026
1074.0,-1.034,-1.242,1.247,4.031,-4.107,-2.036
1078.0,-1.034,-1.242,1.247,4.031,-4.107,-2.036
1082.0,-0.945,-0.562,0.873,3.981,-3.969,-2.01
1086.0,-0.945,-0.562,0.873,3.981,-3.969,-2.01
1090.0,-0.945,-0.562,0.873,3.981,-3.969,-2.01
1094.0,-0.738,0.307,0.578,3.921,-3.819,-1.936
1098.0,-0.738,0.307,0.578,3.921,-3.819,-1.936
1102.0,-0.564,1.387,0.23,3.877,-3.661,-1.851
1106.0,-0.564,1.387,0.23,3.877,-3.661,-1.851
1110.0,-0.564,1.387,0.23,3.877,-3.661,-1.851
1114.0,-0.361,2.698,-0.224,3.838,-3.517,-1.774
1118.0,-0.361,2.698,-0.224,3.838,-3.517,-1.774
1122.0,0.091,3.966,-0.821,3.775,-3.372,-1.687
1125.0,0.091,3.966,-0.821,3.775,-3.372,-1.687
1129.0,0.091,3.966,-0.821,3.775,-3.372,-1.687
1133.0,0.653,5.269,-1.416,3.663,-3.199,-1.581
1137.0,0.653,5.269,-1.416,3.663,-3.199,-1.581
1141.0,1.085,6.706,-1.917,3.506,-3.002,-1.463
1145.0,1.085,6.706,-1.917,3.506,-3.002,-1.463
1149.0,1.085,6.706,-1.917,3.506,-3.002,-1.463
1153.0,1.547,8.239,-2.466,3.319,-2.796,-1.32
1157.0,1.547,8.239,-2.466,3.319,-2.796,-1.32
1161.0,2.184,9.718,-3.149,3.132,-2.567,-1.142
1165.0,2.184,9.718,-3.149,3.132,-2.567,-1.142
1168.0,2.184,9.718,-3.149,3.132,-2.567,-1.142
1172.0,3.035,11.063,-4.217,2.983,-2.306,-0.912
1176.0,3.035,11.063,-4.217,2.983,-2.306,-0.912
1180.0,4.253,12.223,-5.526,2.881,-1.982,-0.623
1184.0,4.253,12.223,-5.526,2.881,-1.982,-0.623
1188.0,4.253,12.223,-5.526,2.881,-1.982,-0.623
1192.0,5.476,13.435,-6.812,2.852,-1.57,-0.296
1196.0,5.476,13.435,-6.812,2.852,-1.57,-0.296
1200.0,6.469,14.751,-7.92,2.89,-1.078,0.077
1204.0,6.469,14.751,-7.92,2.89,-1.078,0.077
1208.0,6.469,14.751,-7.92,2.89,-1.078,0.077
1212.0,7.131,16.003,-8.58,2.942,-0.522,0.524
1216.0,7.131,16.003,-8.58,2.942,-0.522,0.524
1220.0,7.679,16.692,-8.951,2.968,0.067,1.014
1224.0,7.679,16.692,-8.951,2.968,0.067,1.014
1227.0,7.679,16.692,-8.951,2.968,0.067,1.014
1231.0,7.871,17.142,-9.188,2.978,0.665,1.479
1235.0,7.871,17.142,-9.188,2.978,0.665,1.479
1239.0,7.945,17.682,-9.355,2.978,0.665,1.962
1243.0,7.945,17.682,-9.355,2.944,1.238,1.962
1247.0,7.945,17.682,-9.355,2.944,1.238,1.962
1250.0,7.951,17.775,-9.696,2.828,1.796,2.516
1254.0,7.951,17.775,-9.696,2.828,1.796,2.516
1258.0,7.951,17.775,-10.223,2.828,1.796,2.516
1262.0,8.487,17.356,-10.223,2.631,2.374,3.05
1266.0,8.487,17.356,-10.223,2.631,2.374,3.05
1270.0,8.667,16.902,-10.146,2.441,3.03,3.357
1274.0,8.667,16.902,-10.146,2.441,3.03,3.357
1278.0,8.667,16.902,-10.146,2.441,3.03,3.357
1281.0,8.028,16.543,-8.605,2.239,3.637,3.559
1285.0,8.028,16.543,-8.605,2.239,3.637,3.559
1289.0,6.913,15.576,-6.63,1.934,4.103,3.876
1293.0,6.913,15.576,-6.63,1.934,4.103,3.876
1297.0,6.913,15.576,-6.63,1.934,4.103,3.876
1301.0,5.174,13.87,-5.073,1.521,4.422,4.308
1304.0,5.174,13.87,-5.073,1.521,4.422,4.308
1308.0,2.842,11.658,-3.86,1.521,4.606,4.719
1312.0,2.842,11.658,-3.86,1.031,4.606,4.719
1316.0,2.842,11.658,-3.86,1.031,4.606,4.719
1320.0,0.127,9.478,-3.029,0.499,4.72,4.947
1323.0,0.127,9.478,-3.029,0.499,4.72,4.947
1327.0,0.127,9.478,-2.235,0.499,4.72,4.947
1331.0,-2.463,7.783,-2.235,-0.077,4.772,4.962
1335.0,-2.463,7.783,-2.235,-0.077,4.772,4.962
1339.0,-4.764,6.536,-1.195,-0.721,4.708,4.842
1343.0,-4.764,6.536,-1.195,-0.721,4.708,4.842
1346.0,-4.764,6.536,-1.195,-0.721,4.708,4.842
1350.0,-7.288,4.843,0.971,-1.452,4.466,4.652
1354.0,-7.288,4.843,0.971,-1.452,4.466,4.652
1358.0,-10.328,2.186,3.399,-2.233,4.027,4.339
1362.0,-10.328,2.186,3.399,-2.233,4.027,4.339
1366.0,-10.328,2.186,3.399,-2.233,4.027,4.339
1370.0,-14.655,-1.316,5.38,-2.936,3.417,3.791
1374.0,-14.655,-1.316,5.38,-2.936,3.417,3.791
1378.0,-17.813,-4.962,6.14,-3.424,2.587,2.993
1382.0,-17.813,-4.962,6.14,-3.424,2.587,2.993
1386.0,-17.813,-4.962,6.14,-3.424,2.587,2.993
1390.0,-15.31,-7.837,6.494,-3.626,1.612,2.086
1394.0,-15.31,-7.837,6.494,-3.626,1.612,2.086
1398.0,-10.222,-10.088,6.712,-3.502,0.684,1.115
1402.0,-10.222,-10.088,6.712,-3.502,0.684,1.115
1406.0,-10.222,-10.088,6.712,-3.502,0.684,1.115
1410.0,-6.572,-11.373,6.339,-3.088,-0.138,0.051
1414.0,-6.572,-11.373,6.339,-3.088,-0.138,0.051
1418.0,-4.49,-11.645,5.765,-2.506,-0.832,-1.011
1422.0,-4.49,-11.645,5.765,-2.506,-0.832,-1.011
1426.0,-3.285,-10.932,5.129,-2.506,-0.832,-1.929
1431.0,-3.285,-10.932,5.129,-1.85,-1.354,-1.929
1435.0,-3.285,-10.932,5.129,-1.85,-1.354,-1.929
1439.0,-2.625,-9.695,4.882,-1.183,-1.707,-2.63
1443.0,-2.625,-9.695,4.882,-1.183,-1.707,-2.63
1447.0,-2.375,-8.245,4.809,-0.567,-1.983,-3.119
1451.0,-2.375,-8.245,4.809,-0.567,-1.983,-3.119
1455.0,-2.375,-8.245,4.809,-0.567,-1.983,-3.119
1459.0,-2.445,-6.709,4.473,-0.05,-2.234,-3.454
1463.0,-2.445,-6.709,4.473,-0.05,-2.234,-3.454
1467.0,-2.676,-5.174,3.845,0.326,-2.456,-3.701
1471.0,-2.676,-5.174,3.845,0.326,-2.456,-3.701
1475.0,-2.676,-3.7,3.292,0.326,-2.456,-3.701
1479.0,-2.768,-3.7,3.292,0.546,-2.641,-3.907
1483.0,-2.768,-3.7,3.292,0.546,-2.641,-3.907
1487.0,-2.539,-2.195,3.057,0.637,-2.799,-4.107
1491.0,-2.539,-2.195,3.057,0.637,-2.799,-4.107
1495.0,-1.722,-0.29,2.587,0.637,-2.799,-4.107
1499.0,-1.722,-0.29,2.587,0.656,-2.932,-4.317
1503.0,-1.722,-0.29,2.587,0.656,-2.932,-4.317
1507.0,-0.432,1.769,2.064,0.669,-2.998,-4.527
1511.0,-0.432,1.769,2.064,0.669,-2.998,-4.527
1515.0,1.249,3.84,1.716,0.669,-2.998,-4.527
1519.0,1.249,3.84,1.716,0.733,-2.978,-4.724
1523.0,1.249,3.84,1.716,0.733,-2.978,-4.724
1527.0,2.871,5.557,1.674,0.881,-2.906,-4.873
1530.0,2.871,5.557,1.674,0.881,-2.906,-4.873
1534.0,2.871,5.557,1.674,0.881,-2.906,-4.873
1538.0,4.024,6.735,1.966,1.11,-2.846,-4.961
1542.0,4.024,6.735,1.966,1.11,-2.846,-4.961
1546.0,4.479,7.841,1.986,1.369,-2.823,-4.989
1550.0,4.479,7.841,1.986,1.369,-2.823,-4.989
1553.0,4.479,7.841,1.986,1.369,-2.823,-4.989
1557.0,3.99,9.378,1.606,1.612,-2.822,-4.994
1561.0,3.99,9.378,1.606,1.612,-2.822,-4.994
1565.0,3.281,11.433,0.557,1.612,-2.852,-4.974
1569.0,3.281,11.433,0.557,1.83,-2.852,-4.974
1573.0,3.281,11.433,0.557,1.83,-2.852,-4.974
1577.0,2.652,14.288,-1.665,2.042,-2.884,-4.847
1581.0,2.652,14.288,-1.665,2.042,-2.884,-4.847
1585.0,3.056,17.402,-4.361,2.042,-2.868,-4.579
1589.0,3.056,17.402,-4.361,2.208,-2.868,-4.579
1593.0,3.056,17.402,-4.361,2.208,-2.868,-4.579
1597.0,4.719,19.548,-7.229,2.241,-2.725,-4.212
1601.0,4.719,19.548,-7.229,2.241,-2.725,-4.212
1605.0,6.267,19.596,-10.045,2.036,-2.375,-3.803
1609.0,6.267,19.596,-10.045,2.036,-2.375,-3.803
1613.0,6.267,19.596,-10.045,2.036,-2.375,-3.803
1617.0,9.346,19.596,-11.672,1.505,-2.073,-3.363
1621.0,9.346,19.596,-11.672,1.505,-2.073,-3.363
1625.0,10.532,19.596,-13.607,0.635,-1.589,-2.927
1629.0,10.532,19.596,-13.607,0.635,-1.589,-2.927
1633.0,10.532,19.596,-13.777,0.635,-1.589,-2.927
1637.0,9.988,19.596,-13.777,-0.281,-0.949,-2.433
1642.0,9.988,19.596,-13.777,-0.281,-0.949,-2.433
1646.0,8.565,19.596,-12.729,-0.956,-0.223,-1.863
1650.0,8.565,19.596,-12.729,-0.956,-0.223,-1.863
1654.0,6.985,19.596,-11.318,-1.248,0.507,-1.209
1658.0,6.985,19.596,-11.318,-1.248,0.507,-1.209
1662.0,6.985,19.596,-11.318,-1.248,0.507,-1.209
1666.0,5.526,19.596,-9.51,-1.214,1.179,-0.439
1670.0,5.526,19.596,-9.51,-1.214,1.179,-0.439
1674.0,4.957,19.596,-7.811,-0.96,1.735,0.425
1678.0,4.957,19.596,-7.811,-0.96,1.735,0.425
1682.0,4.957,19.596,-7.811,-0.96,1.735,0.425
1686.0,5.233,19.596,-6.924,-0.572,2.18,1.287
1690.0,5.233,19.596,-6.924,-0.572,2.18,1.287
1694.0,6.028,19.596,-7.705,-0.12,2.591,2.112
1698.0,6.028,19.596,-7.705,-0.12,2.591,2.112
1702.0,6.028,19.596,-7.705,-0.12,2.591,2.112
1706.0,6.988,19.596,-8.957,0.303,3.062,2.875
1709.0,6.988,19.596,-8.957,0.303,3.062,2.875
1713.0,8.036,19.596,-10.012,0.605,3.597,3.533
1717.0,8.036,19.596,-10.012,0.605,3.597,3.533
1721.0,8.036,19.596,-10.012,0.605,3.597,3.533
1725.0,8.849,19.596,-10.634,0.73,4.18,4.07
1729.0,8.849,19.596,-10.634,0.73,4.18,4.07
1733.0,9.179,19.596,-9.913,0.73,4.77,4.549
1737.0,9.179,19.596,-9.913,0.691,4.77,4.549
1740.0,9.179,19.596,-9.913,0.691,4.77,4.549
1744.0,8.671,19.484,-7.846,0.551,5.011,4.93
1748.0,8.671,19.484,-7.846,0.551,5.011,4.93
1752.0,8.671,18.003,-5.876,0.551,5.011,4.93
1756.0,7.393,18.003,-5.876,0.383,5.015,5.013
1759.0,7.393,18.003,-5.876,0.383,5.015,5.013
1763.0,4.583,15.437,-3.086,0.207,5.015,5.013
1767.0,4.583,15.437,-3.086,0.207,5.015,5.013
1771.0,4.583,15.437,-3.086,0.207,5.015,5.013
1775.0,0.514,12.622,-0.8,0.024,5.015,5.013
1779.0,0.514,12.622,-0.8,0.024,5.015,5.013
1782.0,-3.739,9.986,0.731,-0.188,5.015,5.013
1786.0,-3.739,9.986,0.731,-0.188,5.015,5.013
1790.0,-3.739,9.986,0.731,-0.188,5.015,5.013
1794.0,-7.761,7.476,1.866,-0.465,5.015,5.013
1798.0,-7.761,7.476,1.866,-0.465,5.015,5.013
1802.0,-11.164,5.109,2.959,-0.465,5.015,5.013
1805.0,-11.164,5.109,2.959,-0.844,5.015,5.013
1809.0,-11.164,5.109,2.959,-0.844,5.015,5.013
1813.0,-15.812,3.254,4.192,-1.325,5.015,5.013
1817.0,-15.812,3.254,4.192,-1.325,5.015,5.013
1821.0,-19.555,1.213,4.723,-1.325,5.015,5.013
1825.0,-19.555,1.213,4.723,-1.782,4.999,5.013
1829.0,-19.555,1.213,4.723,-1.782,4.999,5.013
1833.0,-19.6,-2.161,4.664,-1.972,4.491,5.013
1837.0,-19.6,-2.161,4.664,-1.972,4.491,5.013
1841.0,-19.6,-5.793,5.112,-1.972,4.491,5.013
1845.0,-19.6,-5.793,5.112,-1.722,3.269,5.013
1849.0,-19.6,-5.793,5.112,-1.722,3.269,5.013
1853.0,-16.126,-8.823,4.391,-1.18,1.925,4.836
1857.0,-16.126,-8.823,4.391,-1.18,1.925,4.836
1861.0,-7.07,-10.495,3.036,-1.18,1.925,4.836
1865.0,-7.07,-10.495,3.036,-0.584,0.958,4.002
1869.0,-7.07,-10.495,3.036,-0.584,0.958,4.002
1873.0,-0.932,-9.938,2.697,-0.158,0.466,2.711
1877.0,-0.932,-9.938,2.697,-0.158,0.466,2.711
1880.0,2.105,-7.76,3.776,-0.158,0.466,1.309
1884.0,2.105,-7.76,3.776,0.008,0.1,1.309
1888.0,2.105,-7.76,3.776,0.008,0.1,1.309
1892.0,3.62,-4.963,4.723,-0.022,-0.348,0.067
1896.0,3.62,-4.963,4.723,-0.022,-0.348,0.067
1900.0,3.62,-4.963,4.723,-0.022,-0.348,0.067
1903.0,4.4,-2.28,4.834,-0.195,-0.817,-0.883
1907.0,4.4,-2.28,4.834,-0.195,-0.817,-0.883
1911.0,4.241,-0.477,4.769,-0.481,-1.138,-1.529
1915.0,4.241,-0.477,4.769,-0.481,-1.138,-1.529
1919.0,4.241,-0.477,4.456,-0.481,-1.138,-1.529
1923.0,4.204,-0.187,4.456,-0.787,-1.289,-1.955
1927.0,4.204,-0.187,4.456,-0.787,-1.289,-1.955
1931.0,5.451,-0.442,3.812,-0.995,-1.337,-2.251
1935.0,5.451,-0.442,3.812,-0.995,-1.337,-2.251
1939.0,5.451,-0.297,3.159,-0.995,-1.337,-2.251
1943.0,7.356,-0.297,3.159,-1.046,-1.288,-2.424
1947.0,7.356,-0.297,3.159,-1.046,-1.288,-2.424
1951.0,9.044,-0.247,3.197,-0.938,-1.102,-2.445
1955.0,9.044,-0.247,3.197,-0.938,-1.102,-2.445
1959.0,10.067,-0.172,3.638,-0.938,-1.102,-2.445
1963.0,10.067,-0.172,3.638,-0.661,-0.847,-2.379
1968.0,10.067,-0.172,3.638,-0.661,-0.847,-2.379
1972.0,10.459,0.482,3.957,-0.228,-0.63,-2.265
1976.0,10.459,0.482,3.957,-0.228,-0.63,-2.265
1980.0,10.32,1.87,3.866,0.287,-0.482,-2.096
1984.0,10.32,1.87,3.866,0.287,-0.482,-2.096
1987.0,10.32,1.87,3.866,0.287,-0.482,-2.096
1991.0,10.177,3.357,3.645,0.803,-0.381,-1.828
1995.0,10.177,3.357,3.645,0.803,-0.381,-1.828
1999.0,10.222,4.515,3.567,0.803,-0.304,-1.495
2003.0,10.222,4.515,3.567,1.264,-0.304,-1.495
2007.0,10.222,4.515,3.567,1.264,-0.304,-1.495
2011.0,9.881,5.212,3.579,1.634,-0.258,-1.173
2015.0,9.881,5.212,3.579,1.634,-0.258,-1.173
2019.0,9.098,5.934,3.473,1.634,-0.258,-1.173
2022.0,9.098,5.934,3.473,1.891,-0.245,-0.919
2026.0,9.098,5.934,3.473,1.891,-0.245,-0.919
2030.0,8.435,6.687,3.15,2.027,-0.261,-0.733
2034.0,8.435,6.687,3.15,2.027,-0.261,-0.733
2038.0,8.435,6.687,3.15,2.027,-0.261,-0.733
2041.0,8.318,7.502,2.588,2.05,-0.259,-0.595
2045.0,8.318,7.502,2.588,2.05,-0.259,-0.595
2049.0,8.783,8.111,2.185,1.97,-0.222,-0.466
2053.0,8.783,8.111,2.185,1.97,-0.222,-0.466
2057.0,8.783,8.111,2.185,1.97,-0.222,-0.466
2061.0,9.351,8.617,1.994,1.79,-0.163,-0.357
2064.0,9.351,8.617,1.994,1.79,-0.163,-0.357
2068.0,9.482,8.893,2.003,1.79,-0.163,-0.286
2072.0,9.482,8.893,2.003,1.522,-0.104,-0.286
2076.0,9.482,8.893,2.003,1.522,-0.104,-0.286
2080.0,8.956,8.904,2.066,1.177,-0.067,-0.258
2083.0,8.956,8.904,2.066,1.177,-0.067,-0.258
2087.0,8.956,8.904,2.106,1.177,-0.067,-0.258
2091.0,8.124,8.772,2.106,0.78,-0.047,-0.264
2095.0,8.124,8.772,2.106,0.78,-0.047,-0.264
2099.0,7.441,8.495,2.168,0.371,-0.033,-0.289
2103.0,7.441,8.495,2.168,0.371,-0.033,-0.289
2106.0,7.441,8.495,2.168,0.371,-0.033,-0.289
2110.0,7.115,8.069,2.31,-0.01,-0.028,-0.318
2114.0,7.115,8.069,2.31,-0.01,-0.028,-0.318
2118.0,6.866,7.596,2.425,-0.331,-0.023,-0.358
2122.0,6.866,7.596,2.425,-0.331,-0.023,-0.358
2126.0,6.866,7.596,2.425,-0.331,-0.023,-0.358
2130.0,6.603,7.163,2.498,-0.584,-0.015,-0.392
2134.0,6.603,7.163,2.498,-0.584,-0.015,-0.392
2138.0,6.565,6.818,2.468,-0.765,-0.011,-0.404
2141.0,6.565,6.818,2.468,-0.765,-0.011,-0.404
2145.0,6.565,6.818,2.468,-0.765,-0.011,-0.404
2149.0,6.679,6.586,2.638,-0.873,0.005,-0.4
2153.0,6.679,6.586,2.638,-0.873,0.005,-0.4
2157.0,6.698,6.352,2.922,-0.873,0.005,-0.361
2161.0,6.698,6.352,2.922,-0.917,0.014,-0.361
2165.0,6.698,6.352,2.922,-0.917,0.014,-0.361
2168.0,6.625,6.036,3.077,-0.908,0.007,-0.293
2172.0,6.625,6.036,3.077,-0.908,0.007,-0.293
2176.0,6.625,6.036,3.077,-0.908,0.007,-0.293
2180.0,6.655,5.708,3.179,-0.856,-0.008,-0.23
2184.0,6.655,5.708,3.179,-0.856,-0.008,-0.23
2188.0,6.683,5.496,3.275,-0.778,-0.023,-0.193
2192.0,6.683,5.496,3.275,-0.778,-0.023,-0.193
2195.0,6.683,5.496,3.275,-0.778,-0.023,-0.193
2199.0,6.697,5.439,3.299,-0.69,-0.042,-0.17
2203.0,6.697,5.439,3.299,-0.69,-0.042,-0.17
2207.0,6.904,5.418,3.204,-0.606,-0.061,-0.154
2211.0,6.904,5.418,3.204,-0.606,-0.061,-0.154
2215.0,6.904,5.418,3.204,-0.606,-0.061,-0.154
2219.0,7.219,5.431,3.207,-0.535,-0.066,-0.156
2223.0,7.219,5.431,3.207,-0.535,-0.066,-0.156
2227.0,7.361,5.559,3.189,-0.489,-0.055,-0.184
2231.0,7.361,5.559,3.189,-0.489,-0.055,-0.184
2234.0,7.361,5.559,3.189,-0.489,-0.055,-0.184
2238.0,7.321,5.73,3.275,-0.466,-0.024,-0.213
2242.0,7.321,5.73,3.275,-0.466,-0.024,-0.213
2246.0,7.203,5.861,3.461,-0.459,0.017,-0.231
2250.0,7.203,5.861,3.461,-0.459,0.017,-0.231
2254.0,7.203,5.861,3.461,-0.459,0.017,-0.231
2258.0,7.147,5.895,3.717,-0.449,0.056,-0.239
2261.0,7.147,5.895,3.717,-0.449,0.056,-0.239
2265.0,7.105,5.795,3.954,-0.449,0.056,-0.239
2269.0,7.105,5.795,3.954,-0.417,0.087,-0.244
2273.0,7.105,5.795,3.954,-0.417,0.087,-0.244
2277.0,7.098,5.671,4.152,-0.353,0.111,-0.251
2281.0,7.098,5.671,4.152,-0.353,0.111,-0.251
2284.0,7.098,5.671,4.152,-0.353,0.111,-0.251
2288.0,7.131,5.544,4.306,-0.252,0.133,-0.256
2292.0,7.131,5.544,4.306,-0.252,0.133,-0.256
2296.0,7.088,5.432,4.47,-0.12,0.151,-0.248
2300.0,7.088,5.432,4.47,-0.12,0.151,-0.248
2303.0,7.088,5.432,4.47,-0.12,0.151,-0.248
2307.0,6.872,5.371,4.523,0.026,0.157,-0.216
2311.0,6.872,5.371,4.523,0.026,0.157,-0.216
2315.0,6.559,5.331,4.449,0.026,0.157,-0.216
2319.0,6.559,5.331,4.449,0.168,0.146,-0.166
2322.0,6.559,5.331,4.449,0.168,0.146,-0.166
2326.0,6.371,5.358,4.396,0.295,0.122,-0.113
2330.0,6.371,5.358,4.396,0.295,0.122,-0.113
2333.0,6.371,5.358,4.396,0.295,0.122,-0.113
2337.0,6.218,5.378,4.345,0.395,0.085,-0.065
2341.0,6.218,5.378,4.345,0.395,0.085,-0.065
2345.0,6.093,5.464,4.213,0.395,0.027,-0.016
2348.0,6.093,5.464,4.213,0.457,0.027,-0.016
2352.0,6.093,5.464,4.213,0.457,0.027,-0.016
2356.0,6.055,5.557,3.954,0.478,-0.036,0.022
2360.0,6.055,5.557,3.954,0.478,-0.036,0.022
2363.0,6.055,5.557,3.954,0.478,-0.036,0.022
2367.0,6.257,5.678,3.739,0.455,-0.09,0.04
2371.0,6.257,5.678,3.739,0.455,-0.09,0.04
2374.0,6.588,5.81,3.639,0.388,-0.131,0.029
2378.0,6.588,5.81,3.639,0.388,-0.131,0.029
2382.0,6.588,5.81,3.639,0.388,-0.131,0.029
2386.0,6.807,5.929,3.574,0.288,-0.165,-0.003
2390.0,6.807,5.929,3.574,0.288,-0.165,-0.003
2393.0,6.807,5.929,3.506,0.288,-0.165,-0.003
2397.0,6.83,6.035,3.506,0.165,-0.189,-0.045
2401.0,6.83,6.035,3.506,0.165,-0.189,-0.045
2405.0,6.907,6.08,3.483,0.033,-0.209,-0.086
2409.0,6.907,6.08,3.483,0.033,-0.209,-0.086
2412.0,6.907,6.08,3.483,0.033,-0.209,-0.086
2416.0,7.037,6.053,3.491,-0.095,-0.222,-0.132
2420.0,7.037,6.053,3.491,-0.095,-0.222,-0.132
2424.0,7.107,6.005,3.452,-0.208,-0.225,-0.176
2428.0,7.107,6.005,3.452,-0.208,-0.225,-0.176
2432.0,7.107,6.005,3.452,-0.208,-0.225,-0.176
2436.0,7.284,5.919,3.287,-0.298,-0.221,-0.203
2440.0,7.284,5.919,3.287,-0.298,-0.221,-0.203
2444.0,7.515,5.804,3.162,-0.365,-0.204,-0.222
2448.0,7.515,5.804,3.162,-0.365,-0.204,-0.222
2451.0,7.515,5.804,3.162,-0.365,-0.204,-0.222
2455.0,7.657,5.784,3.142,-0.411,-0.174,-0.242
2459.0,7.657,5.784,3.142,-0.411,-0.174,-0.242
2463.0,7.618,5.807,3.252,-0.411,-0.132,-0.244
2467.0,7.618,5.807,3.252,-0.433,-0.132,-0.244
2471.0,7.618,5.807,3.252,-0.433,-0.132,-0.244
2475.0,7.463,5.755,3.357,-0.433,-0.097,-0.213
2479.0,7.463,5.755,3.357,-0.433,-0.097,-0.213
2483.0,7.28,5.684,3.461,-0.433,-0.097,-0.168
2487.0,7.28,5.684,3.461,-0.413,-0.071,-0.168
2490.0,7.28,5.684,3.461,-0.413,-0.071,-0.168
2494.0,6.956,5.581,3.578,-0.375,-0.056,-0.129
2498.0,6.956,5.581,3.578,-0.375,-0.056,-0.129
2502.0,6.584,5.406,3.595,-0.375,-0.056,-0.129
2506.0,6.584,5.406,3.595,-0.327,-0.061,-0.089
2510.0,6.584,5.406,3.595,-0.327,-0.061,-0.089
2514.0,6.29,5.155,3.488,-0.272,-0.086,-0.06
2518.0,6.29,5.155,3.488,-0.272,-0.086,-0.06
2522.0,6.29,4.901,3.274,-0.272,-0.086,-0.06
2526.0,6.223,4.901,3.274,-0.218,-0.125,-0.057
2530.0,6.223,4.901,3.274,-0.218,-0.125,-0.057
2533.0,6.183,4.747,3.047,-0.172,-0.161,-0.086
2537.0,6.183,4.747,3.047,-0.172,-0.161,-0.086
2541.0,6.183,4.747,2.932,-0.172,-0.161,-0.086
2545.0,6.12,4.619,2.932,-0.137,-0.191,-0.128
2549.0,6.12,4.619,2.932,-0.137,-0.191,-0.128
2553.0,6.056,4.554,2.809,-0.115,-0.219,-0.177
2557.0,6.056,4.554,2.809,-0.115,-0.219,-0.177
2561.0,6.056,4.554,2.809,-0.115,-0.219,-0.177
2565.0,5.959,4.458,2.578,-0.112,-0.248,-0.234
2569.0,5.959,4.458,2.578,-0.112,-0.248,-0.234
2573.0,5.797,4.33,2.345,-0.137,-0.276,-0.311
2576.0,5.797,4.33,2.345,-0.137,-0.276,-0.311
2580.0,5.797,4.33,2.345,-0.137,-0.276,-0.311
2584.0,5.491,4.195,2.118,-0.192,-0.309,-0.417
2588.0,5.491,4.195,2.118,-0.192,-0.309,-0.417
2592.0,5.022,4.085,1.963,-0.27,-0.353,-0.547
2596.0,5.022,4.085,1.963,-0.27,-0.353,-0.547
2600.0,5.022,4.085,1.963,-0.27,-0.353,-0.547
2604.0,4.466,3.927,1.829,-0.367,-0.415,-0.69
2608.0,4.466,3.927,1.829,-0.367,-0.415,-0.69
2612.0,3.998,3.75,1.723,-0.479,-0.483,-0.856
2615.0,3.998,3.75,1.723,-0.479,-0.483,-0.856
2619.0,3.998,3.75,1.723,-0.479,-0.483,-0.856
2623.0,3.504,3.651,1.688,-0.592,-0.544,-1.051
2627.0,3.504,3.651,1.688,-0.592,-0.544,-1.051
2631.0,3.057,3.593,1.708,-0.701,-0.609,-1.249
2635.0,3.057,3.593,1.708,-0.701,-0.609,-1.249
2639.0,3.057,3.593,1.708,-0.701,-0.609,-1.249
2643.0,2.67,3.505,1.738,-0.799,-0.684,-1.431
2647.0,2.67,3.505,1.738,-0.799,-0.684,-1.431
2651.0,2.334,3.388,1.762,-0.799,-0.759,-1.596
2655.0,2.334,3.388,1.762,-0.883,-0.759,-1.596
2658.0,2.334,3.388,1.762,-0.883,-0.759,-1.596
2662.0,2.089,3.242,1.78,-0.951,-0.83,-1.743
2666.0,2.089,3.242,1.78,-0.951,-0.83,-1.743
2670.0,2.054,3.014,1.816,-0.951,-0.83,-1.743
2674.0,2.054,3.014,1.816,-1.003,-0.884,-1.889
2678.0,2.054,3.014,1.816,-1.003,-0.884,-1.889
2682.0,2.175,2.785,1.783,-1.032,-0.911,-2.056
2686.0,2.175,2.785,1.783,-1.032,-0.911,-2.056
2690.0,2.28,2.783,1.88,-1.032,-0.911,-2.056
2694.0,2.28,2.783,1.88,-1.031,-0.914,-2.224
2697.0,2.28,2.783,1.88,-1.031,-0.914,-2.224
2701.0,2.5,2.982,1.996,-0.988,-0.906,-2.345
2705.0,2.5,2.982,1.996,-0.988,-0.906,-2.345
2709.0,2.5,2.982,2.087,-0.988,-0.906,-2.345
2713.0,2.843,3.252,2.087,-0.879,-0.896,-2.402
2717.0,2.843,3.252,2.087,-0.879,-0.896,-2.402
2721.0,3.309,3.423,2.043,-0.707,-0.895,-2.409
2725.0,3.309,3.423,2.043,-0.707,-0.895,-2.409
2729.0,3.309,3.423,2.043,-0.707,-0.895,-2.409
2733.0,3.722,3.609,2.026,-0.488,-0.875,-2.393
2737.0,3.722,3.609,2.026,-0.488,-0.875,-2.393
2740.0,3.86,3.703,2.104,-0.238,-0.831,-2.363
2744.0,3.86,3.703,2.104,-0.238,-0.831,-2.363
2748.0,3.86,3.703,2.104,-0.238,-0.831,-2.363
2752.0,3.698,3.668,2.163,0.016,-0.786,-2.328
2756.0,3.698,3.668,2.163,0.016,-0.786,-2.328
2760.0,3.25,3.634,2.224,0.24,-0.755,-2.307
2764.0,3.25,3.634,2.224,0.24,-0.755,-2.307
2767.0,3.25,3.634,2.224,0.24,-0.755,-2.307
2771.0,2.629,3.66,2.294,0.414,-0.751,-2.309
2775.0,2.629,3.66,2.294,0.414,-0.751,-2.309
2779.0,2.03,3.671,2.228,0.414,-0.77,-2.333
2783.0,2.03,3.671,2.228,0.526,-0.77,-2.333
2787.0,2.03,3.671,2.228,0.526,-0.77,-2.333
2790.0,1.567,3.708,1.996,0.561,-0.79,-2.359
2794.0,1.567,3.708,1.996,0.561,-0.79,-2.359
2798.0,1.567,3.708,1.68,0.561,-0.79,-2.359
2802.0,1.455,3.645,1.68,0.519,-0.781,-2.394
2806.0,1.455,3.645,1.68,0.519,-0.781,-2.394
2809.0,1.674,3.611,1.568,0.423,-0.719,-2.489
2813.0,1.674,3.611,1.568,0.423,-0.719,-2.489
2817.0,1.674,3.611,1.568,0.423,-0.719,-2.489
2821.0,1.793,3.901,1.811,0.304,-0.617,-2.661
2825.0,1.793,3.901,1.811,0.304,-0.617,-2.661
2829.0,1.775,4.301,2.029,0.169,-0.533,-2.831
2832.0,1.775,4.301,2.029,0.169,-0.533,-2.831
2836.0,1.775,4.301,2.029,0.169,-0.533,-2.831
2840.0,1.817,4.68,2.093,0.01,-0.476,-2.943
2844.0,1.817,4.68,2.093,0.01,-0.476,-2.943
2848.0,1.734,5.0,1.997,0.01,-0.476,-2.943
2851.0,1.734,5.0,1.997,-0.181,-0.421,-2.997
2855.0,1.734,5.0,1.997,-0.181,-0.421,-2.997
2859.0,1.55,5.203,1.697,-0.417,-0.362,-2.982
2863.0,1.55,5.203,1.697,-0.417,-0.362,-2.982
2867.0,1.55,5.203,1.257,-0.417,-0.362,-2.982
2871.0,1.501,5.212,1.257,-0.717,-0.288,-2.906
2875.0,1.501,5.212,1.257,-0.717,-0.288,-2.906
2879.0,1.619,5.029,0.826,-1.084,-0.162,-2.826
2883.0,1.619,5.029,0.826,-1.084,-0.162,-2.826
2887.0,1.619,5.029,0.826,-1.084,-0.162,-2.826
2891.0,1.887,4.665,0.399,-1.506,0.038,-2.786
2894.0,1.887,4.665,0.399,-1.506,0.038,-2.786
2898.0,2.142,4.266,0.072,-1.955,0.317,-2.853
2902.0,2.142,4.266,0.072,-1.955,0.317,-2.853
2906.0,2.142,4.266,0.072,-1.955,0.317,-2.853
2910.0,2.198,4.059,-0.097,-2.407,0.642,-3.028
2914.0,2.198,4.059,-0.097,-2.407,0.642,-3.028
2917.0,2.198,4.069,-0.266,-2.869,0.982,-3.237
2921.0,2.198,4.069,-0.266,-2.869,0.982,-3.237
2925.0,2.198,4.069,-0.266,-2.869,0.982,-3.237
2929.0,2.118,4.251,-0.434,-3.359,1.349,-3.415
2933.0,2.118,4.251,-0.434,-3.359,1.349,-3.415
2937.0,2.008,4.441,-0.54,-3.359,1.744,-3.504
2941.0,2.008,4.441,-0.54,-3.886,1.744,-3.504
2945.0,2.008,4.441,-0.54,-3.886,1.744,-3.504
2949.0,1.877,4.6,-0.465,-4.451,2.156,-3.477
2953.0,1.877,4.6,-0.465,-4.451,2.156,-3.477
2957.0,1.75,4.413,-0.371,-4.451,2.156,-3.344
2960.0,1.75,4.413,-0.371,-4.928,2.576,-3.344
2964.0,1.75,4.413,-0.371,-4.928,2.576,-3.344
2968.0,1.746,3.513,-0.213,-5.013,3.034,-3.173
2972.0,1.746,3.513,-0.213,-5.013,3.034,-3.173
2976.0,1.161,2.574,0.099,-5.013,3.034,-3.173
2980.0,1.161,2.574,0.099,-5.013,3.569,-3.089
2984.0,1.161,2.574,0.099,-5.013,3.569,-3.089
2988.0,-0.243,1.875,0.561,-5.013,4.101,-3.076
2991.0,-0.243,1.875,0.561,-5.013,4.101,-3.076
2995.0,-0.243,1.875,1.446,-5.013,4.101,-3.076
2999.0,-1.868,1.277,1.446,-5.013,4.55,-3.047
