deltaTime,Acc_X,Acc_Y,Acc_Z,Gyro_X,Gyro_Y,Gyro_Z
0.0,-7.971,-3.234,3.433,0.521,-0.543,0.348
3.0,-7.971,-3.234,3.433,0.521,-0.543,0.348
6.0,-7.971,-3.234,3.433,0.521,-0.543,0.348
9.0,-8.538,-2.628,2.841,0.187,-0.545,0.283
12.0,-8.538,-2.628,2.841,0.187,-0.545,0.283
15.0,-8.538,-2.628,2.841,0.187,-0.545,0.283
18.0,-8.538,-2.632,2.469,0.187,-0.545,0.283
21.0,-9.138,-2.632,2.469,-0.251,-0.472,0.298
24.0,-9.138,-2.632,2.469,-0.251,-0.472,0.298
27.0,-9.138,-2.632,2.469,-0.251,-0.472,0.298
30.0,-9.313,-2.972,2.561,-0.681,-0.379,0.36
33.0,-9.313,-2.972,2.561,-0.681,-0.379,0.36
37.0,-9.313,-2.972,2.561,-0.681,-0.379,0.36
40.0,-9.058,-3.186,2.864,-1.063,-0.274,0.422
44.0,-9.058,-3.186,2.864,-1.063,-0.274,0.422
48.0,-8.897,-3.685,3.179,-1.063,-0.274,0.422
52.0,-8.897,-3.685,3.179,-1.418,-0.171,0.443
56.0,-8.897,-3.685,3.179,-1.418,-0.171,0.443
60.0,-8.562,-4.211,3.599,-1.689,-0.101,0.406
63.0,-8.562,-4.211,3.599,-1.689,-0.101,0.406
67.0,-8.562,-4.211,3.599,-1.689,-0.101,0.406
71.0,-8.042,-4.642,4.005,-1.83,-0.054,0.333
75.0,-8.042,-4.642,4.005,-1.83,-0.054,0.333
79.0,-7.645,-5.265,4.338,-1.809,-0.014,0.272
82.0,-7.645,-5.265,4.338,-1.809,-0.014,0.272
86.0,-7.645,-5.265,4.338,-1.809,-0.014,0.272
90.0,-7.443,-5.745,4.571,-1.595,0.028,0.256
94.0,-7.443,-5.745,4.571,-1.595,0.028,0.256
98.0,-7.301,-5.9,4.665,-1.595,0.028,0.275
101.0,-7.301,-5.9,4.665,-1.24,0.07,0.275
105.0,-7.301,-5.9,4.665,-1.24,0.07,0.275
109.0,-7.2,-5.6,4.519,-0.843,0.104,0.295
113.0,-7.2,-5.6,4.519,-0.843,0.104,0.295
117.0,-7.2,-5.6,4.519,-0.843,0.104,0.295
120.0,-7.108,-4.855,4.148,-0.511,0.132,0.288
124.0,-7.108,-4.855,4.148,-0.511,0.132,0.288
128.0,-7.062,-3.87,3.721,-0.325,0.164,0.252
132.0,-7.062,-3.87,3.721,-0.325,0.164,0.252
136.0,-7.062,-3.87,3.721,-0.325,0.164,0.252
139.0,-7.102,-2.891,3.328,-0.311,0.2,0.204
143.0,-7.102,-2.891,3.328,-0.311,0.2,0.204
147.0,-7.121,-2.284,3.093,-0.311,0.228,0.154
151.0,-7.121,-2.284,3.093,-0.438,0.228,0.154
155.0,-7.121,-2.284,3.093,-0.438,0.228,0.154
159.0,-7.063,-2.12,3.024,-0.626,0.244,0.103
162.0,-7.063,-2.12,3.024,-0.626,0.244,0.103
166.0,-7.063,-2.246,3.112,-0.626,0.244,0.103
170.0,-7.042,-2.246,3.112,-0.792,0.246,0.058
174.0,-7.042,-2.246,3.112,-0.792,0.246,0.058
178.0,-7.029,-2.544,3.275,-0.886,0.235,0.034
181.0,-7.029,-2.544,3.275,-0.886,0.235,0.034
185.0,-7.029,-2.544,3.275,-0.886,0.235,0.034
189.0,-6.848,-2.389,3.309,-0.909,0.207,0.033
193.0,-6.848,-2.389,3.309,-0.909,0.207,0.033
197.0,-6.483,-2.641,3.601,-0.911,0.196,0.04
201.0,-6.483,-2.641,3.601,-0.911,0.196,0.04
204.0,-6.483,-2.641,3.601,-0.911,0.196,0.04
208.0,-6.362,-2.734,3.787,-0.868,0.197,0.07
212.0,-6.362,-2.734,3.787,-0.868,0.197,0.07
216.0,-6.291,-2.884,3.963,-0.868,0.197,0.07
220.0,-6.291,-2.884,3.963,-0.801,0.177,0.088
223.0,-6.291,-2.884,3.963,-0.801,0.177,0.088
227.0,-6.275,-3.017,3.961,-0.685,0.112,0.072
231.0,-6.275,-3.017,3.961,-0.685,0.112,0.072
235.0,-6.275,-3.017,3.961,-0.685,0.112,0.072
239.0,-6.355,-3.015,4.003,-0.534,0.044,0.037
243.0,-6.355,-3.015,4.003,-0.534,0.044,0.037
246.0,-6.17,-2.591,4.19,-0.39,0.009,0.006
250.0,-6.17,-2.591,4.19,-0.39,0.009,0.006
254.0,-6.17,-2.591,4.19,-0.39,0.009,0.006
258.0,-6.304,-2.165,4.262,-0.334,0.013,-0.017
262.0,-6.304,-2.165,4.262,-0.334,0.013,-0.017
266.0,-6.863,-2.169,4.195,-0.364,-0.018,-0.04
270.0,-6.863,-2.169,4.195,-0.364,-0.018,-0.04
274.0,-6.863,-2.169,4.195,-0.364,-0.018,-0.04
278.0,-7.079,-2.304,4.091,-0.395,-0.098,-0.058
282.0,-7.079,-2.304,4.091,-0.395,-0.098,-0.058
286.0,-7.031,-2.394,3.907,-0.398,-0.157,-0.081
290.0,-7.031,-2.394,3.907,-0.398,-0.157,-0.081
294.0,-7.031,-2.394,3.907,-0.398,-0.157,-0.081
298.0,-7.239,-2.557,3.735,-0.396,-0.168,-0.095
302.0,-7.239,-2.557,3.735,-0.396,-0.168,-0.095
306.0,-7.743,-2.7,3.688,-0.401,-0.129,-0.075
310.0,-7.743,-2.7,3.688,-0.401,-0.129,-0.075
314.0,-7.743,-2.7,3.688,-0.401,-0.129,-0.075
318.0,-8.332,-2.877,3.872,-0.42,-0.06,-0.008
322.0,-8.332,-2.877,3.872,-0.42,-0.06,-0.008
326.0,-8.828,-3.067,4.218,-0.449,-0.005,0.092
329.0,-8.828,-3.067,4.218,-0.449,-0.005,0.092
333.0,-8.828,-3.067,4.218,-0.449,-0.005,0.092
337.0,-9.087,-3.269,4.586,-0.475,-0.003,0.191
341.0,-9.087,-3.269,4.586,-0.475,-0.003,0.191
345.0,-9.02,-3.452,4.751,-0.482,-0.061,0.248
349.0,-9.02,-3.452,4.751,-0.482,-0.061,0.248
353.0,-9.02,-3.452,4.751,-0.482,-0.061,0.248
357.0,-8.694,-3.482,4.627,-0.47,-0.151,0.245
361.0,-8.694,-3.482,4.627,-0.47,-0.151,0.245
365.0,-8.331,-3.404,4.346,-0.453,-0.232,0.204
369.0,-8.331,-3.404,4.346,-0.453,-0.232,0.204
372.0,-8.331,-3.404,4.346,-0.453,-0.232,0.204
376.0,-8.058,-3.293,4.037,-0.442,-0.273,0.159
380.0,-8.058,-3.293,4.037,-0.442,-0.273,0.159
384.0,-7.892,-3.196,3.84,-0.444,-0.264,0.135
388.0,-7.892,-3.196,3.84,-0.444,-0.264,0.135
392.0,-7.892,-3.196,3.84,-0.444,-0.264,0.135
396.0,-7.775,-3.155,3.786,-0.456,-0.214,0.141
400.0,-7.775,-3.155,3.786,-0.456,-0.214,0.141
404.0,-7.682,-3.178,3.874,-0.456,-0.143,0.167
408.0,-7.682,-3.178,3.874,-0.466,-0.143,0.167
412.0,-7.682,-3.178,3.874,-0.466,-0.143,0.167
415.0,-7.646,-3.287,4.007,-0.46,-0.068,0.195
419.0,-7.646,-3.287,4.007,-0.46,-0.068,0.195
423.0,-7.727,-3.343,4.17,-0.46,-0.068,0.217
427.0,-7.727,-3.343,4.17,-0.428,0.005,0.217
431.0,-7.727,-3.343,4.17,-0.428,0.005,0.217
435.0,-7.82,-3.354,4.284,-0.378,0.075,0.232
439.0,-7.82,-3.354,4.284,-0.378,0.075,0.232
442.0,-7.82,-3.354,4.494,-0.378,0.075,0.232
446.0,-7.93,-3.344,4.494,-0.322,0.146,0.248
450.0,-7.93,-3.344,4.494,-0.322,0.146,0.248
454.0,-8.215,-3.523,4.972,-0.26,0.214,0.271
458.0,-8.215,-3.523,4.972,-0.26,0.214,0.271
462.0,-8.215,-3.523,4.972,-0.26,0.214,0.271
465.0,-8.769,-3.69,5.603,-0.159,0.265,0.312
469.0,-8.769,-3.69,5.603,-0.159,0.265,0.312
473.0,-9.472,-3.728,6.279,-0.016,0.26,0.364
477.0,-9.472,-3.728,6.279,-0.016,0.26,0.364
481.0,-9.472,-3.728,6.279,-0.016,0.26,0.364
484.0,-10.152,-3.826,6.837,0.155,0.185,0.413
488.0,-10.152,-3.826,6.837,0.155,0.185,0.413
492.0,-10.769,-3.992,7.234,0.155,0.185,0.413
496.0,-10.769,-3.992,7.234,0.36,0.051,0.458
500.0,-10.769,-3.992,7.234,0.36,0.051,0.458
504.0,-11.215,-4.303,7.568,0.605,-0.121,0.481
507.0,-11.215,-4.303,7.568,0.605,-0.121,0.481
511.0,-11.215,-4.303,7.568,0.605,-0.121,0.481
515.0,-11.42,-4.479,7.899,0.887,-0.312,0.454
519.0,-11.42,-4.479,7.899,0.887,-0.312,0.454
523.0,-11.49,-4.49,8.438,1.197,-0.513,0.385
527.0,-11.49,-4.49,8.438,1.197,-0.513,0.385
531.0,-11.49,-4.49,8.438,1.197,-0.513,0.385
535.0,-11.69,-4.628,9.121,1.503,-0.721,0.279
539.0,-11.69,-4.628,9.121,1.503,-0.721,0.279
543.0,-12.125,-4.678,10.203,1.806,-0.93,0.131
547.0,-12.125,-4.678,10.203,1.806,-0.93,0.131
551.0,-12.125,-4.678,10.203,1.806,-0.93,0.131
555.0,-13.013,-4.365,11.757,2.103,-1.17,-0.03
559.0,-13.013,-4.365,11.757,2.103,-1.17,-0.03
563.0,-14.396,-3.927,13.292,2.369,-1.489,-0.125
567.0,-14.396,-3.927,13.292,2.369,-1.489,-0.125
571.0,-14.396,-3.552,14.245,2.369,-1.489,-0.125
575.0,-15.345,-3.552,14.245,2.548,-1.877,-0.103
579.0,-15.345,-3.552,14.245,2.548,-1.877,-0.103
583.0,-15.359,-2.947,14.97,2.575,-2.278,0.01
587.0,-15.359,-2.947,14.97,2.575,-2.278,0.01
591.0,-15.059,-2.372,15.69,2.575,-2.278,0.129
595.0,-15.059,-2.372,15.69,2.45,-2.666,0.129
599.0,-15.059,-2.372,15.69,2.45,-2.666,0.129
603.0,-14.88,-2.103,16.113,2.247,-3.06,0.153
607.0,-14.88,-2.103,16.113,2.247,-3.06,0.153
611.0,-14.841,-1.719,16.405,2.036,-3.475,0.06
615.0,-14.841,-1.719,16.405,2.036,-3.475,0.06
619.0,-14.841,-1.719,16.405,2.036,-3.475,0.06
623.0,-14.983,-1.603,16.548,1.851,-3.909,-0.08
627.0,-14.983,-1.603,16.548,1.851,-3.909,-0.08
631.0,-14.883,-2.064,16.329,1.69,-4.325,-0.221
635.0,-14.883,-2.064,16.329,1.69,-4.325,-0.221
639.0,-14.883,-2.064,16.329,1.69,-4.325,-0.221
643.0,-14.606,-2.683,16.193,1.567,-4.679,-0.352
648.0,-14.606,-2.683,16.193,1.567,-4.679,-0.352
652.0,-14.438,-3.555,16.39,1.488,-4.936,-0.464
656.0,-14.438,-3.555,16.39,1.488,-4.936,-0.464
660.0,-14.438,-4.713,16.601,1.488,-4.936,-0.464
664.0,-14.42,-4.713,16.601,1.466,-4.992,-0.571
668.0,-14.42,-4.713,16.601,1.466,-4.992,-0.571
672.0,-14.366,-5.855,16.508,1.551,-4.992,-0.685
676.0,-14.366,-5.855,16.508,1.551,-4.992,-0.685
680.0,-14.026,-6.718,16.052,1.767,-4.992,-0.799
684.0,-14.026,-6.718,16.052,1.767,-4.992,-0.799
688.0,-14.026,-6.718,16.052,1.767,-4.992,-0.799
692.0,-13.242,-7.266,15.349,2.084,-4.992,-0.894
696.0,-13.242,-7.266,15.349,2.084,-4.992,-0.894
701.0,-12.346,-7.75,14.491,2.446,-4.992,-0.967
705.0,-12.346,-7.75,14.491,2.446,-4.992,-0.967
709.0,-12.346,-7.75,14.491,2.446,-4.992,-0.967
713.0,-11.59,-8.252,13.652,2.791,-4.992,-1.023
717.0,-11.59,-8.252,13.652,2.791,-4.992,-1.023
721.0,-10.799,-8.343,12.791,3.118,-4.992,-1.088
725.0,-10.799,-8.343,12.791,3.118,-4.992,-1.088
729.0,-9.779,-8.045,11.958,3.118,-4.992,-1.088
733.0,-9.779,-8.045,11.958,3.425,-4.992,-1.16
737.0,-9.779,-8.045,11.958,3.425,-4.992,-1.16
741.0,-8.687,-7.634,10.95,3.688,-4.992,-1.215
745.0,-8.687,-7.634,10.95,3.688,-4.992,-1.215
749.0,-7.558,-7.351,9.756,3.688,-4.992,-1.251
753.0,-7.558,-7.351,9.756,3.894,-4.992,-1.251
757.0,-7.558,-7.351,9.756,3.894,-4.992,-1.251
761.0,-6.259,-7.108,8.682,4.09,-4.992,-1.293
765.0,-6.259,-7.108,8.682,4.09,-4.992,-1.293
769.0,-5.337,-6.97,7.651,4.09,-4.992,-1.358
773.0,-5.337,-6.97,7.651,4.256,-4.992,-1.358
776.0,-5.337,-6.97,7.651,4.256,-4.992,-1.358
780.0,-4.531,-6.781,6.629,4.39,-4.992,-1.44
784.0,-4.531,-6.781,6.629,4.39,-4.992,-1.44
788.0,-3.744,-6.786,5.788,4.39,-4.992,-1.44
792.0,-3.744,-6.786,5.788,4.506,-4.992,-1.519
796.0,-3.744,-6.786,5.788,4.506,-4.992,-1.519
800.0,-2.966,-6.692,4.832,4.605,-4.984,-1.6
804.0,-2.966,-6.692,4.832,4.605,-4.984,-1.6
808.0,-2.966,-6.692,3.867,4.605,-4.984,-1.6
812.0,-2.27,-6.389,3.867,4.678,-4.826,-1.682
815.0,-2.27,-6.389,3.867,4.678,-4.826,-1.682
819.0,-1.742,-6.126,3.346,4.732,-4.517,-1.764
823.0,-1.742,-6.126,3.346,4.732,-4.517,-1.764
827.0,-1.742,-6.126,3.346,4.732,-4.517,-1.764
831.0,-1.385,-5.62,2.961,4.785,-4.211,-1.836
835.0,-1.385,-5.62,2.961,4.785,-4.211,-1.836
839.0,-1.077,-4.765,2.728,4.853,-3.912,-1.894
843.0,-1.077,-4.765,2.728,4.853,-3.912,-1.894
847.0,-1.077,-4.765,2.728,4.853,-3.912,-1.894
851.0,-0.828,-3.625,2.694,4.932,-3.639,-1.922
855.0,-0.828,-3.625,2.694,4.932,-3.639,-1.922
858.0,-0.683,-2.258,2.815,4.984,-3.41,-1.89
862.0,-0.683,-2.258,2.815,4.984,-3.41,-1.89
866.0,-0.683,-2.258,2.815,4.984,-3.41,-1.89
870.0,-0.662,-0.52,3.19,4.995,-3.228,-1.776
874.0,-0.662,-0.52,3.19,4.995,-3.228,-1.776
878.0,-0.931,1.738,4.256,4.995,-3.102,-1.579
882.0,-0.931,1.738,4.256,4.995,-3.102,-1.579
886.0,-0.931,1.738,4.256,4.995,-3.102,-1.579
889.0,-1.14,3.891,4.711,4.995,-3.084,-1.304
893.0,-1.14,3.891,4.711,4.995,-3.084,-1.304
897.0,-0.667,5.993,3.872,4.995,-3.084,-0.933
901.0,-0.667,5.993,3.872,4.995,-3.141,-0.933
905.0,-0.667,5.993,3.872,4.995,-3.141,-0.933
909.0,0.745,7.694,2.265,4.995,-3.131,-0.48
912.0,0.745,7.694,2.265,4.995,-3.131,-0.48
916.0,0.745,7.694,2.265,4.995,-3.131,-0.48
920.0,2.671,9.397,-0.039,4.995,-2.965,-0.027
924.0,2.671,9.397,-0.039,4.995,-2.965,-0.027
927.0,4.986,11.563,-2.6,4.995,-2.596,0.428
931.0,4.986,11.563,-2.6,4.995,-2.596,0.428
935.0,4.986,11.563,-2.6,4.995,-2.596,0.428
939.0,6.961,13.778,-3.906,4.995,-2.023,0.871
943.0,6.961,13.778,-3.906,4.995,-2.023,0.871
946.0,7.863,16.024,-4.787,4.995,-1.325,1.286
950.0,7.863,16.024,-4.787,4.995,-1.325,1.286
954.0,7.863,16.024,-4.787,4.995,-1.325,1.286
958.0,9.103,18.495,-5.536,4.995,-0.691,1.734
962.0,9.103,18.495,-5.536,4.995,-0.691,1.734
966.0,9.103,18.495,-6.023,4.995,-0.691,1.734
969.0,10.108,19.588,-6.023,4.99,-0.012,2.208
973.0,10.108,19.588,-6.023,4.99,-0.012,2.208
977.0,10.811,19.596,-6.25,4.668,0.71,2.678
981.0,10.811,19.596,-6.25,4.668,0.71,2.678
985.0,10.811,19.596,-6.25,4.668,0.71,2.678
989.0,11.154,19.596,-6.053,3.84,1.42,3.079
992.0,11.154,19.596,-6.053,3.84,1.42,3.079
996.0,11.015,19.337,-6.013,3.022,2.114,3.452
1000.0,11.015,19.337,-6.013,3.022,2.114,3.452
1004.0,11.015,19.337,-6.013,3.022,2.114,3.452
1008.0,9.984,18.455,-5.058,2.315,2.799,3.895
1012.0,9.984,18.455,-5.058,2.315,2.799,3.895
1016.0,8.108,17.091,-3.689,2.315,3.391,4.419
1019.0,8.108,17.091,-3.689,1.701,3.391,4.419
1023.0,8.108,17.091,-3.689,1.701,3.391,4.419
1027.0,5.445,15.178,-2.078,1.143,3.842,4.9
1031.0,5.445,15.178,-2.078,1.143,3.842,4.9
1035.0,5.445,15.178,-0.498,1.143,3.842,4.9
1038.0,2.124,12.717,-0.498,0.625,4.149,5.013
1042.0,2.124,12.717,-0.498,0.625,4.149,5.013
1046.0,-1.389,10.025,0.827,0.151,4.306,5.013
1050.0,-1.389,10.025,0.827,0.151,4.306,5.013
1054.0,-1.389,10.025,0.827,0.151,4.306,5.013
1058.0,-4.988,7.11,1.932,-0.318,4.303,5.013
1061.0,-4.988,7.11,1.932,-0.318,4.303,5.013
1065.0,-8.435,3.787,1.918,-0.876,4.118,5.013
1069.0,-8.435,3.787,1.918,-0.876,4.118,5.013
1073.0,-8.435,3.787,1.918,-0.876,4.118,5.013
1077.0,-12.404,1.058,1.226,-1.576,3.827,5.013
1081.0,-12.404,1.058,1.226,-1.576,3.827,5.013
1085.0,-18.14,-2.762,0.392,-1.576,3.827,5.013
1088.0,-18.14,-2.762,0.392,-2.303,3.492,5.013
1092.0,-18.14,-2.762,0.392,-2.303,3.492,5.013
1096.0,-19.6,-7.134,1.059,-2.75,3.034,4.977
1100.0,-19.6,-7.134,1.059,-2.75,3.034,4.977
1104.0,-19.6,-9.392,5.509,-2.75,2.198,4.372
1108.0,-19.6,-9.392,5.509,-2.804,2.198,4.372
1112.0,-19.6,-9.392,5.509,-2.804,2.198,4.372
1116.0,-18.938,-10.379,8.505,-2.701,0.915,3.175
1121.0,-18.938,-10.379,8.505,-2.701,0.915,3.175
1125.0,-15.051,-10.626,7.593,-2.595,-0.35,1.761
1129.0,-15.051,-10.626,7.593,-2.595,-0.35,1.761
1133.0,-15.051,-10.626,7.593,-2.595,-0.35,1.761
1137.0,-11.293,-10.71,5.701,-2.496,-1.318,0.359
1141.0,-11.293,-10.71,5.701,-2.496,-1.318,0.359
1145.0,-8.207,-11.143,4.284,-2.287,-1.944,-0.856
1150.0,-8.207,-11.143,4.284,-2.287,-1.944,-0.856
1154.0,-6.02,-11.396,3.426,-2.287,-2.29,-1.812
1158.0,-6.02,-11.396,3.426,-1.796,-2.29,-1.812
1162.0,-6.02,-11.396,3.426,-1.796,-2.29,-1.812
1166.0,-4.614,-11.538,3.413,-0.977,-2.464,-2.474
1170.0,-4.614,-11.538,3.413,-0.977,-2.464,-2.474
1175.0,-3.817,-10.964,3.486,0.043,-2.58,-2.894
1179.0,-3.817,-10.964,3.486,0.043,-2.58,-2.894
1183.0,-3.817,-10.964,2.984,0.043,-2.58,-2.894
1187.0,-3.441,-9.549,2.984,1.051,-2.691,-3.138
1191.0,-3.441,-9.549,2.984,1.051,-2.691,-3.138
1195.0,-3.097,-7.622,1.775,1.858,-2.807,-3.286
1199.0,-3.097,-7.622,1.775,1.858,-2.807,-3.286
1203.0,-2.379,-5.525,0.649,1.858,-2.807,-3.286
1207.0,-2.379,-5.525,0.649,2.387,-2.886,-3.418
1211.0,-2.379,-5.525,0.649,2.387,-2.886,-3.418
1215.0,-1.181,-3.556,-0.01,2.668,-2.918,-3.582
1219.0,-1.181,-3.556,-0.01,2.668,-2.918,-3.582
1223.0,0.553,-1.78,-0.535,2.668,-2.899,-3.802
1227.0,0.553,-1.78,-0.535,2.77,-2.899,-3.802
1231.0,0.553,-1.78,-0.535,2.77,-2.899,-3.802
1235.0,2.427,-0.035,-0.766,2.763,-2.821,-4.072
1239.0,2.427,-0.035,-0.766,2.763,-2.821,-4.072
1243.0,4.365,1.711,-0.73,2.7,-2.727,-4.331
1247.0,4.365,1.711,-0.73,2.7,-2.727,-4.331
1251.0,4.365,1.711,-0.73,2.7,-2.727,-4.331
1255.0,6.416,3.45,-0.704,2.605,-2.644,-4.522
1259.0,6.416,3.45,-0.704,2.605,-2.644,-4.522
1262.0,8.415,5.123,-0.886,2.605,-2.562,-4.623
1266.0,8.415,5.123,-0.886,2.495,-2.562,-4.623
1270.0,8.415,5.123,-0.886,2.495,-2.562,-4.623
1274.0,9.656,6.441,-1.489,2.388,-2.48,-4.646
1278.0,9.656,6.441,-1.489,2.388,-2.48,-4.646
1282.0,10.244,7.275,-2.217,2.388,-2.48,-4.62
1286.0,10.244,7.275,-2.217,2.274,-2.417,-4.62
1290.0,10.244,7.275,-2.217,2.274,-2.417,-4.62
1294.0,10.046,7.855,-3.081,2.12,-2.343,-4.621
1298.0,10.046,7.855,-3.081,2.12,-2.343,-4.621
1302.0,9.8,8.915,-3.96,2.12,-2.278,-4.677
1306.0,9.8,8.915,-3.96,1.937,-2.278,-4.677
1310.0,9.8,8.915,-3.96,1.937,-2.278,-4.677
1314.0,9.744,10.636,-4.559,1.75,-2.222,-4.748
1318.0,9.744,10.636,-4.559,1.75,-2.222,-4.748
1322.0,9.928,13.301,-5.584,1.75,-2.164,-4.75
1326.0,9.928,13.301,-5.584,1.59,-2.164,-4.75
1330.0,9.928,13.301,-5.584,1.59,-2.164,-4.75
1334.0,10.397,16.172,-6.44,1.477,-2.078,-4.578
1338.0,10.397,16.172,-6.44,1.477,-2.078,-4.578
1342.0,10.847,18.851,-7.195,1.396,-1.961,-4.248
1346.0,10.847,18.851,-7.195,1.396,-1.961,-4.248
1350.0,10.847,18.851,-7.195,1.396,-1.961,-4.248
1354.0,11.532,19.595,-8.974,1.306,-1.797,-3.804
1358.0,11.532,19.595,-8.974,1.306,-1.797,-3.804
1362.0,11.79,19.596,-10.046,1.141,-1.521,-3.312
1366.0,11.79,19.596,-10.046,1.141,-1.521,-3.312
1371.0,11.448,19.596,-10.897,1.141,-1.521,-3.312
1375.0,11.448,19.596,-10.897,0.895,-1.168,-2.814
1379.0,11.448,19.596,-10.897,0.895,-1.168,-2.814
1383.0,11.088,19.596,-12.844,0.607,-0.751,-2.269
1387.0,11.088,19.596,-12.844,0.607,-0.751,-2.269
1391.0,10.778,19.596,-14.404,0.314,-0.205,-1.59
1396.0,10.778,19.596,-14.404,0.314,-0.205,-1.59
1400.0,10.778,19.596,-14.404,0.314,-0.205,-1.59
1404.0,11.064,19.596,-15.346,0.075,0.439,-0.79
1408.0,11.064,19.596,-15.346,0.075,0.439,-0.79
1412.0,11.1,19.596,-14.834,-0.099,1.149,0.074
1416.0,11.1,19.596,-14.834,-0.099,1.149,0.074
1420.0,10.379,19.596,-13.67,-0.099,1.149,0.992
1424.0,10.379,19.596,-13.67,-0.246,1.868,0.992
1428.0,10.379,19.596,-13.67,-0.246,1.868,0.992
1432.0,9.461,19.596,-12.838,-0.385,2.551,1.938
1436.0,9.461,19.596,-12.838,-0.385,2.551,1.938
1440.0,8.626,19.596,-11.966,-0.466,3.199,2.868
1444.0,8.626,19.596,-11.966,-0.466,3.199,2.868
1448.0,8.626,19.596,-11.966,-0.466,3.199,2.868
1452.0,8.194,19.596,-11.104,-0.409,3.799,3.764
1456.0,8.194,19.596,-11.104,-0.409,3.799,3.764
1460.0,7.408,19.596,-9.646,-0.248,4.356,4.597
1464.0,7.408,19.596,-9.646,-0.248,4.356,4.597
1468.0,7.408,19.596,-9.646,-0.248,4.356,4.597
1472.0,6.726,19.596,-8.6,-0.039,4.837,4.996
1476.0,6.726,19.596,-8.6,-0.039,4.837,4.996
1480.0,5.634,19.461,-6.853,0.194,5.013,5.013
1484.0,5.634,19.461,-6.853,0.194,5.013,5.013
1488.0,5.634,19.461,-6.853,0.194,5.013,5.013
1491.0,4.42,17.569,-5.657,0.361,5.015,5.013
1495.0,4.42,17.569,-5.657,0.361,5.015,5.013
1499.0,2.559,14.962,-4.312,0.361,5.015,5.013
1503.0,2.559,14.962,-4.312,0.416,5.015,5.013
1507.0,2.559,14.962,-4.312,0.416,5.015,5.013
1510.0,-0.851,12.276,-2.217,0.323,5.015,5.013
1514.0,-0.851,12.276,-2.217,0.323,5.015,5.013
1518.0,-0.851,12.276,-0.613,0.323,5.015,5.013
1522.0,-5.274,10.433,-0.613,0.073,5.015,5.013
1526.0,-5.274,10.433,-0.613,0.073,5.015,5.013
1530.0,-10.366,9.364,0.311,-0.349,5.015,5.013
1534.0,-10.366,9.364,0.311,-0.349,5.015,5.013
1538.0,-10.366,9.364,0.311,-0.349,5.015,5.013
1542.0,-16.831,9.09,0.599,-0.944,5.015,5.013
1546.0,-16.831,9.09,0.599,-0.944,5.015,5.013
1550.0,-19.596,8.065,1.525,-1.68,5.015,5.013
1553.0,-19.596,8.065,1.525,-1.68,5.015,5.013
1557.0,-19.596,8.065,1.525,-1.68,5.015,5.013
1561.0,-19.6,4.314,3.665,-2.467,5.015,5.013
1565.0,-19.6,4.314,3.665,-2.467,5.015,5.013
1569.0,-19.6,-1.248,4.701,-3.063,4.576,5.013
1573.0,-19.6,-1.248,4.701,-3.063,4.576,5.013
1577.0,-19.6,-1.248,4.701,-3.063,4.576,5.013
1581.0,-19.6,-5.371,3.216,-3.376,2.875,5.013
1585.0,-19.6,-5.371,3.216,-3.376,2.875,5.013
1589.0,-15.212,-7.448,0.023,-3.672,1.361,4.753
1593.0,-15.212,-7.448,0.023,-3.672,1.361,4.753
1597.0,-15.212,-7.448,0.023,-3.672,1.361,4.753
1601.0,-5.456,-7.77,-0.464,-4.028,0.481,3.342
1605.0,-5.456,-7.77,-0.464,-4.028,0.481,3.342
1609.0,-0.501,-6.335,1.273,-4.334,-0.083,1.628
1613.0,-0.501,-6.335,1.273,-4.334,-0.083,1.628
1617.0,-0.501,-6.335,2.582,-4.334,-0.083,1.628
1621.0,2.561,-5.929,2.582,-4.527,-0.668,0.321
1625.0,2.561,-5.929,2.582,-4.527,-0.668,0.321
1629.0,5.335,-7.744,3.187,-4.45,-1.174,-0.587
1633.0,5.335,-7.744,3.187,-4.45,-1.174,-0.587
1637.0,5.335,-7.744,3.207,-4.45,-1.174,-0.587
1641.0,7.118,-8.94,3.207,-4.023,-1.395,-1.305
1645.0,7.118,-8.94,3.207,-4.023,-1.395,-1.305
1649.0,8.02,-9.361,3.108,-3.344,-1.369,-1.774
1653.0,8.02,-9.361,3.108,-3.344,-1.369,-1.774
1657.0,8.02,-9.255,2.92,-3.344,-1.369,-1.774
1661.0,8.627,-9.255,2.92,-2.534,-1.256,-2.002
1665.0,8.627,-9.255,2.92,-2.534,-1.256,-2.002
1669.0,9.494,-8.206,2.41,-1.667,-1.106,-2.078
1673.0,9.494,-8.206,2.41,-1.667,-1.106,-2.078
1677.0,10.39,-6.243,2.113,-1.667,-1.106,-2.078
1681.0,10.39,-6.243,2.113,-0.793,-0.84,-2.052
1685.0,10.39,-6.243,2.113,-0.793,-0.84,-2.052
1689.0,10.783,-4.135,2.503,0.03,-0.474,-1.89
1693.0,10.783,-4.135,2.503,0.03,-0.474,-1.89
1697.0,10.878,-2.517,3.018,0.738,-0.155,-1.585
1701.0,10.878,-2.517,3.018,0.738,-0.155,-1.585
1705.0,10.878,-2.517,3.018,0.738,-0.155,-1.585
1709.0,10.75,-1.467,3.301,1.297,0.064,-1.236
1713.0,10.75,-1.467,3.301,1.297,0.064,-1.236
1717.0,10.437,-0.596,3.219,1.724,0.205,-0.956
1721.0,10.437,-0.596,3.219,1.724,0.205,-0.956
1725.0,10.437,-0.596,3.219,1.724,0.205,-0.956
1728.0,10.379,0.404,2.896,2.049,0.302,-0.767
1732.0,10.379,0.404,2.896,2.049,0.302,-0.767
1736.0,10.531,1.35,2.726,2.049,0.302,-0.627
1740.0,10.531,1.35,2.726,2.287,0.379,-0.627
1744.0,10.531,1.35,2.726,2.287,0.379,-0.627
1748.0,10.293,2.239,2.604,2.43,0.431,-0.535
1751.0,10.293,2.239,2.604,2.43,0.431,-0.535
1755.0,10.293,2.239,2.484,2.43,0.431,-0.535
1759.0,9.562,3.041,2.484,2.451,0.445,-0.484
1763.0,9.562,3.041,2.484,2.451,0.445,-0.484
1766.0,8.815,3.507,2.319,2.353,0.423,-0.454
1770.0,8.815,3.507,2.319,2.353,0.423,-0.454
1774.0,8.815,3.507,2.319,2.353,0.423,-0.454
1778.0,8.03,3.823,2.007,2.167,0.382,-0.436
1781.0,8.03,3.823,2.007,2.167,0.382,-0.436
1785.0,7.368,3.964,1.61,2.167,0.382,-0.436
1789.0,7.368,3.964,1.61,1.904,0.34,-0.452
1793.0,7.368,3.964,1.61,1.904,0.34,-0.452
1796.0,6.918,4.004,1.012,1.582,0.308,-0.508
1800.0,6.918,4.004,1.012,1.582,0.308,-0.508
1804.0,6.918,4.004,1.012,1.582,0.308,-0.508
1808.0,6.625,3.937,0.406,1.227,0.304,-0.595
1811.0,6.625,3.937,0.406,1.227,0.304,-0.595
1815.0,6.296,3.814,0.035,1.227,0.304,-0.717
1819.0,6.296,3.814,0.035,0.858,0.324,-0.717
1822.0,6.296,3.814,0.035,0.858,0.324,-0.717
1826.0,5.751,3.607,-0.081,0.493,0.356,-0.886
1830.0,5.751,3.607,-0.081,0.493,0.356,-0.886
1834.0,5.751,3.607,-0.081,0.493,0.356,-0.886
1838.0,4.881,3.351,0.067,0.156,0.388,-1.101
1841.0,4.881,3.351,0.067,0.156,0.388,-1.101
1845.0,3.879,3.018,0.354,-0.133,0.4,-1.339
1849.0,3.879,3.018,0.354,-0.133,0.4,-1.339
1853.0,3.879,3.018,0.354,-0.133,0.4,-1.339
1857.0,3.002,2.846,0.384,-0.371,0.381,-1.582
1860.0,3.002,2.846,0.384,-0.371,0.381,-1.582
1864.0,2.495,2.775,0.17,-0.371,0.381,-1.582
1868.0,2.495,2.775,0.17,-0.559,0.36,-1.792
1872.0,2.495,2.775,0.17,-0.559,0.36,-1.792
1876.0,2.345,2.684,-0.118,-0.704,0.377,-1.943
1880.0,2.345,2.684,-0.118,-0.704,0.377,-1.943
1883.0,2.345,2.684,-0.28,-0.704,0.377,-1.943
1887.0,2.38,2.425,-0.28,-0.812,0.439,-2.041
1891.0,2.38,2.425,-0.28,-0.812,0.439,-2.041
1895.0,2.466,2.006,-0.272,-0.893,0.512,-2.126
1899.0,2.466,2.006,-0.272,-0.893,0.512,-2.126
1903.0,2.466,2.006,-0.272,-0.893,0.512,-2.126
1907.0,2.328,1.668,-0.135,-0.958,0.575,-2.237
1911.0,2.328,1.668,-0.135,-0.958,0.575,-2.237
1915.0,1.948,1.472,0.08,-1.03,0.622,-2.37
1919.0,1.948,1.472,0.08,-1.03,0.622,-2.37
1922.0,1.948,1.472,0.08,-1.03,0.622,-2.37
1926.0,1.522,1.372,0.343,-1.115,0.662,-2.513
1930.0,1.522,1.372,0.343,-1.115,0.662,-2.513
1934.0,1.041,1.288,0.659,-1.208,0.706,-2.656
1938.0,1.041,1.288,0.659,-1.208,0.706,-2.656
1941.0,1.041,1.288,0.659,-1.208,0.706,-2.656
1945.0,0.647,1.348,0.967,-1.296,0.749,-2.776
1949.0,0.647,1.348,0.967,-1.296,0.749,-2.776
1953.0,0.429,1.599,1.326,-1.296,0.749,-2.776
1957.0,0.429,1.599,1.326,-1.358,0.8,-2.852
1961.0,0.429,1.599,1.326,-1.358,0.8,-2.852
1964.0,0.556,1.859,1.635,-1.375,0.861,-2.863
1968.0,0.556,1.859,1.635,-1.375,0.861,-2.863
1972.0,0.556,1.859,1.635,-1.375,0.861,-2.863
1976.0,1.072,2.236,1.984,-1.33,0.945,-2.821
1980.0,1.072,2.236,1.984,-1.33,0.945,-2.821
1983.0,1.845,2.538,2.409,-1.222,1.048,-2.74
1987.0,1.845,2.538,2.409,-1.222,1.048,-2.74
1991.0,1.845,2.538,2.409,-1.222,1.048,-2.74
1995.0,2.663,2.689,2.8,-1.077,1.159,-2.636
1999.0,2.663,2.689,2.8,-1.077,1.159,-2.636
2003.0,3.248,2.761,3.06,-1.077,1.159,-2.524
2006.0,3.248,2.761,3.06,-0.928,1.273,-2.524
2010.0,3.248,2.761,3.06,-0.928,1.273,-2.524
2014.0,3.379,2.815,3.022,-0.801,1.409,-2.412
2018.0,3.379,2.815,3.022,-0.801,1.409,-2.412
2022.0,3.379,2.815,2.875,-0.801,1.409,-2.412
2025.0,3.016,2.887,2.875,-0.721,1.587,-2.297
2029.0,3.016,2.887,2.875,-0.721,1.587,-2.297
2033.0,2.432,3.025,2.755,-0.698,1.801,-2.17
2037.0,2.432,3.025,2.755,-0.698,1.801,-2.17
2041.0,2.432,3.025,2.755,-0.698,1.801,-2.17
2045.0,1.933,3.199,2.606,-0.735,2.038,-2.025
2048.0,1.933,3.199,2.606,-0.735,2.038,-2.025
2052.0,1.539,3.418,2.574,-0.823,2.293,-1.868
2056.0,1.539,3.418,2.574,-0.823,2.293,-1.868
2060.0,1.539,3.418,2.574,-0.823,2.293,-1.868
2064.0,1.341,3.538,2.423,-0.953,2.555,-1.695
2067.0,1.341,3.538,2.423,-0.953,2.555,-1.695
2071.0,1.488,3.548,2.356,-0.953,2.555,-1.695
2075.0,1.488,3.548,2.356,-1.127,2.845,-1.514
2079.0,1.488,3.548,2.356,-1.127,2.845,-1.514
2083.0,1.64,3.467,2.524,-1.321,3.197,-1.371
2087.0,1.64,3.467,2.524,-1.321,3.197,-1.371
2090.0,1.64,3.467,2.524,-1.321,3.197,-1.371
2094.0,1.492,3.203,2.733,-1.516,3.579,-1.264
2098.0,1.492,3.203,2.733,-1.516,3.579,-1.264
2102.0,1.035,2.911,2.989,-1.705,3.955,-1.174
2106.0,1.035,2.911,2.989,-1.705,3.955,-1.174
2109.0,1.035,2.911,2.989,-1.705,3.955,-1.174
2113.0,0.099,2.718,3.503,-1.89,4.309,-1.081
2117.0,0.099,2.718,3.503,-1.89,4.309,-1.081
2121.0,-1.052,2.435,3.953,-1.89,4.309,-0.955
2125.0,-1.052,2.435,3.953,-2.093,4.605,-0.955
2129.0,-1.052,2.435,3.953,-2.093,4.605,-0.955
2133.0,-2.341,2.165,4.585,-2.335,4.853,-0.798
2137.0,-2.341,2.165,4.585,-2.335,4.853,-0.798
2140.0,-3.475,1.635,5.332,-2.335,4.853,-0.798
2144.0,-3.475,1.635,5.332,-2.606,5.001,-0.654
2148.0,-3.475,1.635,5.332,-2.606,5.001,-0.654
2152.0,-4.633,1.013,6.176,-2.857,5.015,-0.597
2156.0,-4.633,1.013,6.176,-2.857,5.015,-0.597
2160.0,-4.633,0.035,6.991,-2.857,5.015,-0.597
2164.0,-5.609,0.035,6.991,-3.062,5.015,-0.612
2168.0,-5.609,0.035,6.991,-3.062,5.015,-0.612
2172.0,-6.503,-0.791,7.871,-3.206,5.015,-0.693
2176.0,-6.503,-0.791,7.871,-3.206,5.015,-0.693
2180.0,-6.503,-0.791,8.148,-3.206,5.015,-0.693
2184.0,-7.362,-1.407,8.148,-3.288,5.015,-0.787
2188.0,-7.362,-1.407,8.148,-3.288,5.015,-0.787
2192.0,-8.279,-1.53,8.065,-3.322,5.015,-0.823
2196.0,-8.279,-1.53,8.065,-3.322,5.015,-0.823
2200.0,-9.327,-1.027,8.154,-3.322,5.015,-0.823
2204.0,-9.327,-1.027,8.154,-3.312,5.015,-0.721
2208.0,-9.327,-1.027,8.154,-3.312,5.015,-0.721
2212.0,-10.254,-0.324,8.145,-3.255,5.015,-0.428
2216.0,-10.254,-0.324,8.145,-3.255,5.015,-0.428
2220.0,-10.781,-0.089,7.464,-3.255,5.015,0.016
2224.0,-10.781,-0.089,7.464,-3.168,5.015,0.016
2228.0,-10.781,-0.089,7.464,-3.168,5.015,0.016
2232.0,-11.08,-0.36,6.622,-3.065,5.015,0.479
2236.0,-11.08,-0.36,6.622,-3.065,5.015,0.479
2240.0,-11.576,-1.029,6.6,-2.94,5.015,0.839
2244.0,-11.576,-1.029,6.6,-2.94,5.015,0.839
2248.0,-11.576,-1.029,6.6,-2.94,5.015,0.839
2252.0,-12.392,-1.78,6.654,-2.761,5.015,1.015
2256.0,-12.392,-1.78,6.654,-2.761,5.015,1.015
2260.0,-13.766,-1.955,6.616,-2.514,5.015,1.04
2264.0,-13.766,-1.955,6.616,-2.514,5.015,1.04
2268.0,-13.766,-1.955,6.616,-2.514,5.015,1.04
2272.0,-15.571,-1.549,6.849,-2.232,5.015,1.033
2276.0,-15.571,-1.549,6.849,-2.232,5.015,1.033
2280.0,-17.378,-1.067,6.884,-1.969,5.015,1.087
2284.0,-17.378,-1.067,6.884,-1.969,5.015,1.087
2288.0,-17.378,-1.067,6.884,-1.969,5.015,1.087
2292.0,-19.114,-0.683,6.614,-1.762,5.015,1.229
2296.0,-19.114,-0.683,6.614,-1.762,5.015,1.229
2300.0,-19.6,-0.315,6.456,-1.636,5.015,1.442
2304.0,-19.6,-0.315,6.456,-1.636,5.015,1.442
2308.0,-19.6,-0.315,6.456,-1.636,5.015,1.442
2312.0,-19.6,0.1,6.88,-1.572,5.015,1.681
2316.0,-19.6,0.1,6.88,-1.572,5.015,1.681
2319.0,-19.6,-0.053,7.198,-1.537,5.015,1.91
2323.0,-19.6,-0.053,7.198,-1.537,5.015,1.91
2327.0,-19.6,-0.053,7.198,-1.537,5.015,1.91
2331.0,-19.6,-0.122,7.338,-1.509,5.015,2.061
2335.0,-19.6,-0.122,7.338,-1.509,5.015,2.061
2339.0,-19.6,-0.105,7.356,-1.505,5.015,2.121
2343.0,-19.6,-0.105,7.356,-1.505,5.015,2.121
2347.0,-19.6,-0.105,6.891,-1.505,5.015,2.121
2351.0,-19.6,-0.033,6.891,-1.549,5.015,2.083
2355.0,-19.6,-0.033,6.891,-1.549,5.015,2.083
2359.0,-19.6,0.084,5.877,-1.658,5.015,1.937
2363.0,-19.6,0.084,5.877,-1.658,5.015,1.937
2367.0,-19.6,0.084,4.973,-1.658,5.015,1.937
2371.0,-19.6,0.547,4.973,-1.847,4.941,1.685
2375.0,-19.6,0.547,4.973,-1.847,4.941,1.685
2379.0,-19.6,0.633,4.252,-2.096,4.71,1.336
2383.0,-19.6,0.633,4.252,-2.096,4.71,1.336
2387.0,-19.6,0.633,4.252,-2.096,4.71,1.336
2391.0,-19.6,1.25,4.571,-2.343,4.508,0.832
2395.0,-19.6,1.25,4.571,-2.343,4.508,0.832
2398.0,-19.6,1.773,4.806,-2.527,4.284,0.183
2402.0,-19.6,1.773,4.806,-2.527,4.284,0.183
2406.0,-19.6,1.773,4.806,-2.527,4.284,0.183
2410.0,-19.455,2.454,4.901,-2.679,3.992,-0.439
2414.0,-19.455,2.454,4.901,-2.679,3.992,-0.439
2418.0,-19.097,2.818,4.939,-2.826,3.677,-0.854
2422.0,-19.097,2.818,4.939,-2.826,3.677,-0.854
2426.0,-19.097,2.818,4.939,-2.826,3.677,-0.854
2430.0,-18.56,2.686,4.883,-2.919,3.397,-1.083
2434.0,-18.56,2.686,4.883,-2.919,3.397,-1.083
2438.0,-17.968,2.269,4.723,-2.934,3.194,-1.212
2442.0,-17.968,2.269,4.723,-2.934,3.194,-1.212
2446.0,-17.968,2.269,4.518,-2.934,3.194,-1.212
2450.0,-17.45,1.824,4.518,-2.912,3.061,-1.272
2454.0,-17.45,1.824,4.518,-2.912,3.061,-1.272
2458.0,-17.032,1.357,4.365,-2.901,2.978,-1.274
2462.0,-17.032,1.357,4.365,-2.901,2.978,-1.274
2466.0,-17.032,0.744,4.214,-2.901,2.978,-1.274
2470.0,-16.621,0.744,4.214,-2.92,2.922,-1.231
2474.0,-16.621,0.744,4.214,-2.92,2.922,-1.231
2478.0,-16.21,0.045,4.143,-2.972,2.874,-1.164
2482.0,-16.21,0.045,4.143,-2.972,2.874,-1.164
2486.0,-15.815,-0.623,4.15,-2.972,2.874,-1.164
2490.0,-15.815,-0.623,4.15,-3.052,2.827,-1.07
2494.0,-15.815,-0.623,4.15,-3.052,2.827,-1.07
2498.0,-15.348,-1.292,4.357,-3.14,2.765,-0.948
2502.0,-15.348,-1.292,4.357,-3.14,2.765,-0.948
2506.0,-14.725,-1.915,4.631,-3.211,2.677,-0.81
2511.0,-14.725,-1.915,4.631,-3.211,2.677,-0.81
2515.0,-14.725,-1.915,4.631,-3.211,2.677,-0.81
2519.0,-13.997,-2.493,4.917,-3.244,2.569,-0.667
2523.0,-13.997,-2.493,4.917,-3.244,2.569,-0.667
2527.0,-13.315,-2.899,5.189,-3.221,2.452,-0.531
2531.0,-13.315,-2.899,5.189,-3.221,2.452,-0.531
2535.0,-13.315,-2.899,5.543,-3.221,2.452,-0.531
2539.0,-12.782,-3.131,5.543,-3.13,2.329,-0.4
2543.0,-12.782,-3.131,5.543,-3.13,2.329,-0.4
2547.0,-12.426,-3.133,5.957,-2.967,2.191,-0.26
2551.0,-12.426,-3.133,5.957,-2.967,2.191,-0.26
2555.0,-12.137,-2.955,6.352,-2.967,2.012,-0.093
2559.0,-12.137,-2.955,6.352,-2.742,2.012,-0.093
2564.0,-12.137,-2.955,6.352,-2.742,2.012,-0.093
2568.0,-11.761,-2.689,6.596,-2.479,1.794,0.11
2572.0,-11.761,-2.689,6.596,-2.479,1.794,0.11
2576.0,-11.168,-2.378,6.428,-2.22,1.562,0.338
2580.0,-11.168,-2.378,6.428,-2.22,1.562,0.338
2584.0,-11.168,-2.378,6.428,-2.22,1.562,0.338
2588.0,-10.479,-2.048,6.281,-2.01,1.359,0.578
2592.0,-10.479,-2.048,6.281,-2.01,1.359,0.578
2596.0,-9.413,-1.758,6.088,-1.867,1.217,0.81
2600.0,-9.413,-1.758,6.088,-1.867,1.217,0.81
2603.0,-9.413,-1.758,6.088,-1.867,1.217,0.81
2607.0,-8.969,-1.858,5.881,-1.791,1.12,0.99
2611.0,-8.969,-1.858,5.881,-1.791,1.12,0.99
2615.0,-8.74,-1.977,5.795,-1.748,1.021,1.109
2619.0,-8.74,-1.977,5.795,-1.748,1.021,1.109
2623.0,-8.74,-1.977,5.795,-1.748,1.021,1.109
2627.0,-8.713,-2.115,5.745,-1.712,0.907,1.166
2631.0,-8.713,-2.115,5.745,-1.712,0.907,1.166
2635.0,-8.878,-2.154,5.787,-1.677,0.774,1.15
2639.0,-8.878,-2.154,5.787,-1.677,0.774,1.15
2642.0,-8.878,-2.154,5.787,-1.677,0.774,1.15
2646.0,-9.108,-2.116,5.71,-1.647,0.611,1.062
2650.0,-9.108,-2.116,5.71,-1.647,0.611,1.062
2654.0,-9.299,-1.991,5.608,-1.647,0.431,0.907
2658.0,-9.299,-1.991,5.608,-1.624,0.431,0.907
2662.0,-9.299,-1.991,5.608,-1.624,0.431,0.907
2666.0,-9.593,-1.752,5.472,-1.613,0.247,0.694
2670.0,-9.593,-1.752,5.472,-1.613,0.247,0.694
2674.0,-9.835,-1.502,5.267,-1.613,0.247,0.455
2678.0,-9.835,-1.502,5.267,-1.611,0.054,0.455
2682.0,-9.835,-1.502,5.267,-1.611,0.054,0.455
2685.0,-10.016,-1.271,5.151,-1.614,-0.128,0.205
2690.0,-10.016,-1.271,5.151,-1.614,-0.128,0.205
2694.0,-10.407,-1.048,5.207,-1.614,-0.295,-0.042
2698.0,-10.407,-1.048,5.207,-1.607,-0.295,-0.042
2702.0,-10.407,-1.048,5.207,-1.607,-0.295,-0.042
2706.0,-10.512,-1.155,4.856,-1.568,-0.47,-0.269
2710.0,-10.512,-1.155,4.856,-1.568,-0.47,-0.269
2714.0,-10.539,-1.109,4.796,-1.494,-0.632,-0.5
2719.0,-10.539,-1.109,4.796,-1.494,-0.632,-0.5
2723.0,-10.552,-1.08,4.701,-1.494,-0.632,-0.5
2727.0,-10.552,-1.08,4.701,-1.386,-0.797,-0.732
2731.0,-10.552,-1.08,4.701,-1.386,-0.797,-0.732
2735.0,-10.536,-1.046,4.485,-1.254,-0.959,-0.958
2739.0,-10.536,-1.046,4.485,-1.254,-0.959,-0.958
2744.0,-10.56,-1.049,4.222,-1.111,-1.103,-1.169
2748.0,-10.56,-1.049,4.222,-1.111,-1.103,-1.169
2752.0,-10.56,-1.049,4.222,-1.111,-1.103,-1.169
2756.0,-10.731,-1.09,3.92,-0.969,-1.231,-1.357
2760.0,-10.731,-1.09,3.92,-0.969,-1.231,-1.357
2764.0,-10.975,-1.138,3.624,-0.83,-1.343,-1.523
2769.0,-10.975,-1.138,3.624,-0.83,-1.343,-1.523
2773.0,-11.286,-1.206,3.307,-0.698,-1.447,-1.667
2777.0,-11.286,-1.206,3.307,-0.698,-1.447,-1.667
2781.0,-11.286,-1.206,3.307,-0.698,-1.447,-1.667
2785.0,-11.642,-1.25,3.022,-0.571,-1.539,-1.79
2789.0,-11.642,-1.25,3.022,-0.571,-1.539,-1.79
2794.0,-11.996,-1.295,2.778,-0.446,-1.622,-1.886
2798.0,-11.996,-1.295,2.778,-0.446,-1.622,-1.886
2802.0,-12.152,-1.28,2.533,-0.446,-1.622,-1.886
2806.0,-12.152,-1.28,2.533,-0.317,-1.703,-1.949
2810.0,-12.152,-1.28,2.533,-0.317,-1.703,-1.949
2814.0,-12.199,-1.142,2.252,-0.185,-1.776,-1.97
2819.0,-12.199,-1.142,2.252,-0.185,-1.776,-1.97
2823.0,-12.124,-0.94,1.944,-0.05,-1.836,-1.936
2827.0,-12.124,-0.94,1.944,-0.05,-1.836,-1.936
2831.0,-12.124,-0.94,1.648,-0.05,-1.836,-1.936
2835.0,-11.822,-0.759,1.648,0.085,-1.876,-1.844
2839.0,-11.822,-0.759,1.648,0.085,-1.876,-1.844
2843.0,-11.292,-0.641,1.441,0.212,-1.891,-1.709
2848.0,-11.292,-0.641,1.441,0.212,-1.891,-1.709
2852.0,-10.644,-0.611,1.29,0.212,-1.878,-1.555
2856.0,-10.644,-0.611,1.29,0.328,-1.878,-1.555
2860.0,-10.644,-0.611,1.29,0.328,-1.878,-1.555
2864.0,-9.988,-0.663,1.193,0.427,-1.836,-1.407
2868.0,-9.988,-0.663,1.193,0.427,-1.836,-1.407
2872.0,-9.435,-0.773,1.15,0.507,-1.772,-1.286
2876.0,-9.435,-0.773,1.15,0.507,-1.772,-1.286
2880.0,-9.435,-0.773,1.15,0.507,-1.772,-1.286
2884.0,-9.026,-0.894,1.134,0.568,-1.692,-1.206
2888.0,-9.026,-0.894,1.134,0.568,-1.692,-1.206
2892.0,-8.926,-0.954,1.155,0.607,-1.604,-1.168
2896.0,-8.926,-0.954,1.155,0.607,-1.604,-1.168
2900.0,-8.926,-0.954,1.155,0.607,-1.604,-1.168
2904.0,-9.158,-0.94,1.228,0.628,-1.517,-1.162
2908.0,-9.158,-0.94,1.228,0.628,-1.517,-1.162
2912.0,-9.605,-0.87,1.285,0.631,-1.44,-1.173
2916.0,-9.605,-0.87,1.285,0.631,-1.44,-1.173
2920.0,-9.605,-0.87,1.285,0.631,-1.44,-1.173
2924.0,-10.127,-0.75,1.281,0.617,-1.378,-1.186
2928.0,-10.127,-0.75,1.281,0.617,-1.378,-1.186
2932.0,-10.586,-0.643,1.216,0.589,-1.329,-1.194
2936.0,-10.586,-0.643,1.216,0.589,-1.329,-1.194
2940.0,-10.914,-0.552,1.076,0.589,-1.329,-1.194
2944.0,-10.914,-0.552,1.076,0.549,-1.285,-1.192
2948.0,-10.914,-0.552,1.076,0.549,-1.285,-1.192
2952.0,-11.055,-0.52,0.897,0.505,-1.234,-1.176
2956.0,-11.055,-0.52,0.897,0.505,-1.234,-1.176
2960.0,-10.956,-0.532,0.778,0.465,-1.171,-1.143
2965.0,-10.956,-0.532,0.778,0.465,-1.171,-1.143
2969.0,-10.956,-0.532,0.778,0.465,-1.171,-1.143
2973.0,-10.64,-0.616,0.755,0.436,-1.096,-1.092
2977.0,-10.64,-0.616,0.755,0.436,-1.096,-1.092
2981.0,-10.357,-0.769,0.772,0.425,-1.01,-1.024
2985.0,-10.357,-0.769,0.772,0.425,-1.01,-1.024
2989.0,-10.357,-0.769,0.738,0.425,-1.01,-1.024
2993.0,-10.33,-1.021,0.738,0.431,-0.913,-0.94
2997.0,-10.33,-1.021,0.738,0.431,-0.913,-0.94
