deltaTime,Acc_X,Acc_Y,Acc_Z,Gyro_X,Gyro_Y,Gyro_Z
0.0,-8.88,-2.428,4.238,-0.119,-0.207,-0.241
3.0,-8.983,-2.312,4.192,-0.079,-0.187,-0.223
6.0,-8.983,-2.312,4.192,-0.079,-0.187,-0.223
9.0,-8.983,-2.312,4.192,-0.079,-0.187,-0.223
12.0,-9.128,-2.368,4.165,-0.048,-0.182,-0.207
15.0,-9.128,-2.368,4.165,-0.048,-0.182,-0.207
18.0,-9.128,-2.368,4.165,-0.048,-0.182,-0.207
21.0,-9.174,-2.403,4.1,-0.011,-0.171,-0.184
24.0,-9.174,-2.403,4.1,-0.011,-0.171,-0.184
27.0,-9.174,-2.403,4.1,-0.011,-0.171,-0.184
30.0,-8.949,-2.166,4.006,-0.011,-0.171,-0.184
34.0,-8.949,-2.166,4.006,0.023,-0.163,-0.177
38.0,-8.949,-2.166,4.006,0.023,-0.163,-0.177
42.0,-8.712,-2.095,4.014,0.016,-0.15,-0.188
45.0,-8.712,-2.095,4.014,0.016,-0.15,-0.188
49.0,-8.712,-2.095,4.014,0.016,-0.15,-0.188
53.0,-8.623,-2.454,4.105,0.001,-0.118,-0.188
57.0,-8.623,-2.454,4.105,0.001,-0.118,-0.188
61.0,-8.507,-2.764,4.199,0.047,-0.087,-0.175
65.0,-8.507,-2.764,4.199,0.047,-0.087,-0.175
68.0,-8.507,-2.764,4.199,0.047,-0.087,-0.175
72.0,-8.481,-2.667,4.283,0.139,-0.052,-0.166
76.0,-8.481,-2.667,4.283,0.139,-0.052,-0.166
80.0,-8.505,-2.236,4.283,0.139,-0.023,-0.166
84.0,-8.505,-2.236,4.283,0.209,-0.023,-0.166
87.0,-8.505,-2.236,4.283,0.209,-0.023,-0.166
91.0,-8.557,-1.717,4.308,0.21,-0.002,-0.173
95.0,-8.557,-1.717,4.308,0.21,-0.002,-0.173
99.0,-8.557,-1.717,4.315,0.21,-0.002,-0.173
103.0,-8.615,-1.279,4.315,0.145,0.006,-0.168
107.0,-8.615,-1.279,4.315,0.145,0.006,-0.168
110.0,-8.692,-1.099,4.299,0.029,0.013,-0.146
114.0,-8.692,-1.099,4.299,0.029,0.013,-0.146
118.0,-8.692,-1.099,4.299,0.029,0.013,-0.146
122.0,-8.497,-0.994,4.308,-0.1,0.011,-0.107
126.0,-8.497,-0.994,4.308,-0.1,0.011,-0.107
130.0,-8.435,-1.446,4.449,-0.24,0.021,-0.067
134.0,-8.435,-1.446,4.449,-0.24,0.021,-0.067
137.0,-8.435,-1.446,4.449,-0.24,0.021,-0.067
141.0,-8.423,-2.28,4.681,-0.296,0.038,-0.018
145.0,-8.423,-2.28,4.681,-0.296,0.038,-0.018
149.0,-8.417,-2.733,4.918,-0.214,0.057,0.035
153.0,-8.417,-2.733,4.918,-0.214,0.057,0.035
157.0,-8.417,-2.733,4.918,-0.214,0.057,0.035
161.0,-8.349,-2.643,5.113,-0.061,0.072,0.066
164.0,-8.349,-2.643,5.113,-0.061,0.072,0.066
168.0,-8.221,-1.981,5.136,-0.061,0.072,0.066
172.0,-8.221,-1.981,5.136,0.054,0.084,0.058
176.0,-8.221,-1.981,5.136,0.054,0.084,0.058
180.0,-8.084,-1.786,4.964,0.065,0.085,0.033
183.0,-8.084,-1.786,4.964,0.065,0.085,0.033
187.0,-8.084,-1.786,4.964,0.065,0.085,0.033
191.0,-8.137,-1.812,4.865,0.053,0.087,0.022
195.0,-8.137,-1.812,4.865,0.053,0.087,0.022
198.0,-8.266,-1.706,4.729,0.053,0.103,0.022
202.0,-8.266,-1.706,4.729,0.049,0.103,0.022
206.0,-8.266,-1.706,4.729,0.049,0.103,0.022
209.0,-8.233,-1.491,4.629,0.014,0.123,0.026
213.0,-8.233,-1.491,4.629,0.014,0.123,0.026
217.0,-8.233,-1.491,4.629,0.014,0.123,0.026
221.0,-8.238,-1.329,4.664,-0.066,0.152,0.029
224.0,-8.238,-1.329,4.664,-0.066,0.152,0.029
228.0,-8.395,-1.409,4.868,-0.169,0.19,0.045
232.0,-8.395,-1.409,4.868,-0.169,0.19,0.045
236.0,-8.395,-1.409,4.868,-0.169,0.19,0.045
240.0,-8.657,-1.601,5.148,-0.264,0.236,0.084
244.0,-8.657,-1.601,5.148,-0.264,0.236,0.084
247.0,-8.685,-1.772,5.371,-0.264,0.236,0.084
251.0,-8.685,-1.772,5.371,-0.338,0.275,0.137
255.0,-8.685,-1.772,5.371,-0.338,0.275,0.137
259.0,-8.908,-1.633,5.618,-0.401,0.316,0.176
263.0,-8.908,-1.633,5.618,-0.401,0.316,0.176
266.0,-8.908,-1.633,5.618,-0.401,0.316,0.176
270.0,-9.127,-1.391,5.905,-0.499,0.361,0.203
274.0,-9.127,-1.391,5.905,-0.499,0.361,0.203
278.0,-9.307,-1.175,6.122,-0.635,0.386,0.225
282.0,-9.307,-1.175,6.122,-0.635,0.386,0.225
286.0,-9.307,-1.175,6.122,-0.635,0.386,0.225
289.0,-9.338,-1.098,6.3,-0.794,0.363,0.223
293.0,-9.338,-1.098,6.3,-0.794,0.363,0.223
297.0,-9.382,-1.717,6.47,-0.794,0.323,0.21
301.0,-9.382,-1.717,6.47,-0.926,0.323,0.21
305.0,-9.382,-1.717,6.47,-0.926,0.323,0.21
308.0,-9.578,-2.422,6.481,-0.923,0.253,0.211
312.0,-9.578,-2.422,6.481,-0.923,0.253,0.211
316.0,-9.578,-2.928,6.391,-0.923,0.253,0.211
320.0,-9.502,-2.928,6.391,-0.793,0.158,0.237
324.0,-9.502,-2.928,6.391,-0.793,0.158,0.237
328.0,-9.34,-2.979,6.26,-0.589,0.092,0.248
331.0,-9.34,-2.979,6.26,-0.589,0.092,0.248
335.0,-9.34,-2.979,6.26,-0.589,0.092,0.248
339.0,-9.3,-2.389,5.724,-0.376,0.014,0.215
343.0,-9.3,-2.389,5.724,-0.376,0.014,0.215
347.0,-9.2,-1.961,5.413,-0.247,-0.116,0.108
351.0,-9.2,-1.961,5.413,-0.247,-0.116,0.108
354.0,-9.2,-1.961,5.413,-0.247,-0.116,0.108
358.0,-9.078,-1.9,5.301,-0.153,-0.241,-0.017
362.0,-9.078,-1.9,5.301,-0.153,-0.241,-0.017
366.0,-9.058,-1.857,5.252,-0.037,-0.332,-0.113
370.0,-9.058,-1.857,5.252,-0.037,-0.332,-0.113
374.0,-9.058,-1.857,5.252,-0.037,-0.332,-0.113
378.0,-9.178,-1.79,5.278,0.099,-0.392,-0.163
382.0,-9.178,-1.79,5.278,0.099,-0.392,-0.163
386.0,-9.458,-1.748,5.371,0.24,-0.439,-0.165
390.0,-9.458,-1.748,5.371,0.24,-0.439,-0.165
394.0,-9.458,-1.748,5.371,0.24,-0.439,-0.165
398.0,-9.781,-1.741,5.486,0.375,-0.481,-0.134
402.0,-9.781,-1.741,5.486,0.375,-0.481,-0.134
406.0,-10.081,-1.712,5.779,0.496,-0.519,-0.081
410.0,-10.081,-1.712,5.779,0.496,-0.519,-0.081
414.0,-10.081,-1.712,5.779,0.496,-0.519,-0.081
418.0,-10.465,-1.701,6.251,0.607,-0.565,-0.011
422.0,-10.465,-1.701,6.251,0.607,-0.565,-0.011
426.0,-10.91,-1.704,6.786,0.711,-0.63,0.065
430.0,-10.91,-1.704,6.786,0.711,-0.63,0.065
433.0,-10.91,-1.704,6.786,0.711,-0.63,0.065
437.0,-11.286,-1.621,7.284,0.814,-0.709,0.133
441.0,-11.286,-1.621,7.284,0.814,-0.709,0.133
445.0,-11.436,-1.506,7.777,0.921,-0.793,0.197
449.0,-11.436,-1.506,7.777,0.921,-0.793,0.197
453.0,-11.436,-1.506,7.777,0.921,-0.793,0.197
457.0,-11.486,-1.463,8.375,1.041,-0.883,0.254
461.0,-11.486,-1.463,8.375,1.041,-0.883,0.254
465.0,-11.568,-1.344,9.003,1.041,-0.883,0.296
469.0,-11.568,-1.344,9.003,1.189,-1.0,0.296
473.0,-11.568,-1.344,9.003,1.189,-1.0,0.296
476.0,-11.728,-1.13,9.66,1.373,-1.168,0.331
480.0,-11.728,-1.13,9.66,1.373,-1.168,0.331
484.0,-12.048,-1.062,10.175,1.373,-1.168,0.331
488.0,-12.048,-1.062,10.175,1.572,-1.381,0.371
492.0,-12.048,-1.062,10.175,1.572,-1.381,0.371
496.0,-12.264,-1.034,10.46,1.772,-1.613,0.416
500.0,-12.264,-1.034,10.46,1.772,-1.613,0.416
504.0,-12.24,-0.951,10.881,1.772,-1.829,0.46
508.0,-12.24,-0.951,10.881,1.962,-1.829,0.46
512.0,-12.24,-0.951,10.881,1.962,-1.829,0.46
516.0,-12.184,-0.828,11.576,2.135,-2.028,0.493
520.0,-12.184,-0.828,11.576,2.135,-2.028,0.493
524.0,-12.344,-0.589,12.447,2.276,-2.238,0.505
528.0,-12.344,-0.589,12.447,2.276,-2.238,0.505
532.0,-12.344,-0.589,12.447,2.276,-2.238,0.505
536.0,-12.751,-0.203,13.285,2.365,-2.485,0.507
540.0,-12.751,-0.203,13.285,2.365,-2.485,0.507
544.0,-12.98,0.538,13.902,2.383,-2.759,0.516
548.0,-12.98,0.538,13.902,2.383,-2.759,0.516
552.0,-12.98,0.538,13.902,2.383,-2.759,0.516
556.0,-12.885,1.196,14.38,2.323,-3.037,0.549
560.0,-12.885,1.196,14.38,2.323,-3.037,0.549
564.0,-12.631,1.353,14.877,2.192,-3.309,0.59
568.0,-12.631,1.353,14.877,2.192,-3.309,0.59
571.0,-12.631,1.353,14.877,2.192,-3.309,0.59
575.0,-12.457,1.278,15.43,2.007,-3.568,0.613
579.0,-12.457,1.278,15.43,2.007,-3.568,0.613
583.0,-12.718,0.735,16.139,2.007,-3.83,0.609
587.0,-12.718,0.735,16.139,1.793,-3.83,0.609
591.0,-12.718,0.735,16.139,1.793,-3.83,0.609
595.0,-13.198,-0.205,16.615,1.586,-4.125,0.556
599.0,-13.198,-0.205,16.615,1.586,-4.125,0.556
603.0,-13.378,-1.05,16.79,1.586,-4.125,0.442
607.0,-13.378,-1.05,16.79,1.427,-4.442,0.442
611.0,-13.378,-1.05,16.79,1.427,-4.442,0.442
615.0,-13.038,-1.783,16.894,1.351,-4.757,0.29
619.0,-13.038,-1.783,16.894,1.351,-4.757,0.29
623.0,-12.588,-2.641,16.742,1.373,-4.968,0.14
627.0,-12.588,-2.641,16.742,1.373,-4.968,0.14
631.0,-12.588,-2.641,16.742,1.373,-4.968,0.14
635.0,-12.182,-3.926,16.526,1.491,-4.992,0.013
639.0,-12.182,-3.926,16.526,1.491,-4.992,0.013
643.0,-11.798,-5.257,16.239,1.709,-4.992,-0.121
647.0,-11.798,-5.257,16.239,1.709,-4.992,-0.121
651.0,-11.798,-5.257,16.239,1.709,-4.992,-0.121
655.0,-11.359,-6.163,15.779,2.017,-4.992,-0.257
659.0,-11.359,-6.163,15.779,2.017,-4.992,-0.257
663.0,-10.672,-6.672,15.02,2.389,-4.992,-0.37
667.0,-10.672,-6.672,15.02,2.389,-4.992,-0.37
671.0,-10.672,-6.672,14.101,2.389,-4.992,-0.37
675.0,-9.845,-7.118,14.101,2.807,-4.992,-0.467
679.0,-9.845,-7.118,14.101,2.807,-4.992,-0.467
683.0,-9.041,-7.397,13.039,3.244,-4.992,-0.576
687.0,-9.041,-7.397,13.039,3.244,-4.992,-0.576
691.0,-8.356,-7.721,12.095,3.244,-4.992,-0.576
695.0,-8.356,-7.721,12.095,3.654,-4.992,-0.696
699.0,-8.356,-7.721,12.095,3.654,-4.992,-0.696
703.0,-7.721,-8.094,11.037,4.008,-4.992,-0.825
707.0,-7.721,-8.094,11.037,4.008,-4.992,-0.825
711.0,-7.119,-8.458,9.708,4.008,-4.992,-0.992
715.0,-7.119,-8.458,9.708,4.293,-4.992,-0.992
719.0,-7.119,-8.458,9.708,4.293,-4.992,-0.992
723.0,-6.135,-8.801,8.173,4.537,-4.992,-1.214
727.0,-6.135,-8.801,8.173,4.537,-4.992,-1.214
731.0,-4.972,-9.214,6.548,4.537,-4.992,-1.214
735.0,-4.972,-9.214,6.548,4.716,-4.992,-1.48
739.0,-4.972,-9.214,6.548,4.716,-4.992,-1.48
743.0,-4.062,-9.623,5.261,4.83,-4.967,-1.791
747.0,-4.062,-9.623,5.261,4.83,-4.967,-1.791
750.0,-4.062,-9.574,4.262,4.83,-4.967,-1.791
754.0,-3.328,-9.574,4.262,4.924,-4.782,-2.127
758.0,-3.328,-9.574,4.262,4.924,-4.782,-2.127
762.0,-2.659,-8.98,3.388,4.969,-4.487,-2.44
766.0,-2.659,-8.98,3.388,4.969,-4.487,-2.44
770.0,-2.659,-8.98,2.716,4.969,-4.487,-2.44
774.0,-2.378,-8.116,2.716,4.963,-4.179,-2.696
778.0,-2.378,-8.116,2.716,4.963,-4.179,-2.696
782.0,-1.911,-7.061,1.967,4.937,-3.942,-2.896
786.0,-1.911,-7.061,1.967,4.937,-3.942,-2.896
790.0,-1.911,-7.061,1.967,4.937,-3.942,-2.896
793.0,-1.502,-5.857,1.23,4.884,-3.747,-3.055
797.0,-1.502,-5.857,1.23,4.884,-3.747,-3.055
801.0,-1.295,-4.483,0.643,4.82,-3.59,-3.177
805.0,-1.295,-4.483,0.643,4.82,-3.59,-3.177
809.0,-1.295,-4.483,0.643,4.82,-3.59,-3.177
813.0,-1.134,-3.168,0.045,4.754,-3.466,-3.254
817.0,-1.134,-3.168,0.045,4.754,-3.466,-3.254
821.0,-1.075,-1.674,-0.497,4.705,-3.356,-3.265
825.0,-1.075,-1.674,-0.497,4.705,-3.356,-3.265
829.0,-1.075,-1.674,-0.497,4.705,-3.356,-3.265
833.0,-1.107,0.043,-1.196,4.685,-3.255,-3.191
837.0,-1.107,0.043,-1.196,4.685,-3.255,-3.191
841.0,-1.0,1.859,-2.143,4.678,-3.147,-3.026
845.0,-1.0,1.859,-2.143,4.678,-3.147,-3.026
848.0,-1.0,1.859,-2.143,4.678,-3.147,-3.026
852.0,-0.587,3.925,-2.999,4.639,-2.994,-2.781
856.0,-0.587,3.925,-2.999,4.639,-2.994,-2.781
860.0,-0.067,6.019,-3.345,4.539,-2.781,-2.521
864.0,-0.067,6.019,-3.345,4.539,-2.781,-2.521
868.0,-0.067,6.019,-3.345,4.539,-2.781,-2.521
872.0,0.102,8.727,-3.589,4.362,-2.54,-2.272
876.0,0.102,8.727,-3.589,4.362,-2.54,-2.272
879.0,0.358,11.771,-3.599,4.362,-2.299,-1.943
883.0,0.358,11.771,-3.599,4.096,-2.299,-1.943
887.0,0.358,11.771,-3.599,4.096,-2.299,-1.943
891.0,0.455,14.227,-3.34,3.764,-2.069,-1.52
895.0,0.455,14.227,-3.34,3.764,-2.069,-1.52
899.0,0.642,16.28,-3.726,3.764,-2.069,-1.048
903.0,0.642,16.28,-3.726,3.426,-1.857,-1.048
907.0,0.642,16.28,-3.726,3.426,-1.857,-1.048
911.0,1.177,17.467,-4.361,3.158,-1.603,-0.53
915.0,1.177,17.467,-4.361,3.158,-1.603,-0.53
919.0,1.6,17.92,-4.641,3.158,-1.603,-0.53
922.0,1.6,17.92,-4.641,3.02,-1.274,0.001
926.0,1.6,17.92,-4.641,3.02,-1.274,0.001
930.0,1.761,18.478,-4.86,3.022,-0.878,0.52
934.0,1.761,18.478,-4.86,3.022,-0.878,0.52
938.0,1.761,18.478,-4.86,3.022,-0.878,0.52
942.0,1.776,19.23,-4.916,3.135,-0.422,1.018
945.0,1.776,19.23,-4.916,3.135,-0.422,1.018
949.0,1.987,19.594,-5.225,3.293,0.065,1.489
953.0,1.987,19.594,-5.225,3.293,0.065,1.489
957.0,1.987,19.594,-5.225,3.293,0.065,1.489
960.0,2.697,19.596,-5.802,3.414,0.582,1.966
964.0,2.697,19.596,-5.802,3.414,0.582,1.966
968.0,3.809,19.596,-6.383,3.414,0.582,1.966
972.0,3.809,19.596,-6.383,3.429,1.138,2.453
975.0,3.809,19.596,-6.383,3.429,1.138,2.453
979.0,5.026,19.596,-7.865,3.296,1.741,2.954
983.0,5.026,19.596,-7.865,3.296,1.741,2.954
987.0,5.026,19.596,-7.865,3.296,1.741,2.954
990.0,6.193,19.596,-9.406,2.988,2.432,3.531
994.0,6.193,19.596,-9.406,2.988,2.432,3.531
998.0,6.303,19.596,-9.443,2.988,2.432,4.148
1001.0,6.303,19.596,-9.443,2.623,3.176,4.148
1005.0,6.303,19.596,-9.443,2.623,3.176,4.148
1009.0,5.231,19.596,-8.379,2.259,3.847,4.722
1013.0,5.231,19.596,-8.379,2.259,3.847,4.722
1017.0,5.231,19.596,-6.481,2.259,3.847,4.722
1021.0,3.398,19.311,-6.481,1.888,4.381,5.002
1024.0,3.398,19.311,-6.481,1.888,4.381,5.002
1028.0,1.222,17.568,-4.829,1.497,4.757,5.013
1032.0,1.222,17.568,-4.829,1.497,4.757,5.013
1036.0,1.222,17.568,-4.829,1.497,4.757,5.013
1040.0,-1.007,15.634,-3.87,1.093,4.979,5.013
1044.0,-1.007,15.634,-3.87,1.093,4.979,5.013
1047.0,-3.364,13.334,-2.646,0.669,5.015,5.013
1051.0,-3.364,13.334,-2.646,0.669,5.015,5.013
1055.0,-3.364,13.334,-2.646,0.669,5.015,5.013
1059.0,-5.798,11.05,-1.933,0.213,5.015,5.013
1063.0,-5.798,11.05,-1.933,0.213,5.015,5.013
1067.0,-8.384,9.017,-1.643,0.213,5.015,5.013
1071.0,-8.384,9.017,-1.643,-0.321,5.015,5.013
1075.0,-8.384,9.017,-1.643,-0.321,5.015,5.013
1079.0,-11.393,6.669,-1.306,-1.002,5.015,5.013
1083.0,-11.393,6.669,-1.306,-1.002,5.015,5.013
1087.0,-15.412,3.456,0.136,-1.002,4.944,5.013
1091.0,-15.412,3.456,0.136,-1.855,4.944,5.013
1094.0,-15.412,3.456,0.136,-1.855,4.944,5.013
1098.0,-19.387,-0.401,2.605,-2.753,4.525,5.013
1102.0,-19.387,-0.401,2.605,-2.753,4.525,5.013
1106.0,-19.6,-4.417,4.227,-2.753,4.525,4.975
1110.0,-19.6,-4.417,4.227,-3.461,3.649,4.975
1114.0,-19.6,-4.417,4.227,-3.461,3.649,4.975
1118.0,-19.562,-8.351,5.328,-3.79,2.425,4.236
1122.0,-19.562,-8.351,5.328,-3.79,2.425,4.236
1126.0,-15.513,-11.021,5.779,-3.662,1.162,2.902
1130.0,-15.513,-11.021,5.779,-3.662,1.162,2.902
1134.0,-15.513,-11.021,5.779,-3.662,1.162,2.902
1139.0,-10.092,-12.804,5.046,-3.12,0.116,1.601
1143.0,-10.092,-12.804,5.046,-3.12,0.116,1.601
1147.0,-7.014,-13.602,4.581,-2.292,-0.686,0.341
1151.0,-7.014,-13.602,4.581,-2.292,-0.686,0.341
1155.0,-7.014,-13.602,4.581,-2.292,-0.686,0.341
1159.0,-5.424,-13.175,4.542,-1.322,-1.275,-0.778
1163.0,-5.424,-13.175,4.542,-1.322,-1.275,-0.778
1167.0,-4.381,-11.9,4.428,-0.325,-1.673,-1.625
1171.0,-4.381,-11.9,4.428,-0.325,-1.673,-1.625
1176.0,-3.561,-10.373,4.658,-0.325,-1.929,-2.163
1180.0,-3.561,-10.373,4.658,0.589,-1.929,-2.163
1184.0,-3.561,-10.373,4.658,0.589,-1.929,-2.163
1188.0,-2.985,-8.405,4.649,1.284,-2.135,-2.478
1192.0,-2.985,-8.405,4.649,1.284,-2.135,-2.478
1196.0,-2.532,-6.376,4.251,1.663,-2.339,-2.683
1200.0,-2.532,-6.376,4.251,1.663,-2.339,-2.683
1204.0,-2.532,-6.376,4.251,1.663,-2.339,-2.683
1208.0,-2.059,-4.334,3.763,1.723,-2.532,-2.866
1212.0,-2.059,-4.334,3.763,1.723,-2.532,-2.866
1216.0,-1.508,-2.518,3.566,1.553,-2.708,-3.048
1220.0,-1.508,-2.518,3.566,1.553,-2.708,-3.048
1224.0,-1.508,-2.518,3.566,1.553,-2.708,-3.048
1228.0,-0.672,-0.951,3.272,1.256,-2.899,-3.234
1232.0,-0.672,-0.951,3.272,1.256,-2.899,-3.234
1236.0,0.552,0.431,2.712,0.918,-3.073,-3.437
1240.0,0.552,0.431,2.712,0.918,-3.073,-3.437
1243.0,0.552,0.431,2.712,0.918,-3.073,-3.437
1247.0,1.774,1.697,2.414,0.603,-3.185,-3.66
1251.0,1.774,1.697,2.414,0.603,-3.185,-3.66
1255.0,2.903,2.696,2.321,0.354,-3.268,-3.872
1259.0,2.903,2.696,2.321,0.354,-3.268,-3.872
1263.0,2.903,2.696,2.321,0.354,-3.268,-3.872
1266.0,4.163,3.539,2.023,0.198,-3.349,-4.039
1270.0,4.163,3.539,2.023,0.198,-3.349,-4.039
1274.0,5.722,4.422,1.561,0.198,-3.349,-4.143
1278.0,5.722,4.422,1.561,0.139,-3.37,-4.143
1282.0,5.722,4.422,1.561,0.139,-3.37,-4.143
1285.0,6.062,4.89,1.114,0.187,-3.306,-4.196
1289.0,6.062,4.89,1.114,0.187,-3.306,-4.196
1293.0,6.062,4.89,0.996,0.187,-3.306,-4.196
1297.0,7.039,5.997,0.996,0.344,-3.344,-4.215
1301.0,7.039,5.997,0.996,0.344,-3.344,-4.215
1305.0,7.141,7.261,0.54,0.535,-3.318,-4.226
1308.0,7.141,7.261,0.54,0.535,-3.318,-4.226
1312.0,7.141,7.261,0.54,0.535,-3.318,-4.226
1316.0,6.972,9.14,-0.517,0.765,-3.282,-4.214
1320.0,6.972,9.14,-0.517,0.765,-3.282,-4.214
1324.0,6.657,10.88,-1.573,1.015,-3.23,-4.119
1328.0,6.657,10.88,-1.573,1.015,-3.23,-4.119
1332.0,6.657,10.88,-1.573,1.015,-3.23,-4.119
1336.0,6.449,12.323,-2.523,1.23,-3.172,-3.948
1340.0,6.449,12.323,-2.523,1.23,-3.172,-3.948
1344.0,6.517,14.506,-4.519,1.396,-3.074,-3.74
1348.0,6.517,14.506,-4.519,1.396,-3.074,-3.74
1352.0,6.517,14.506,-4.519,1.396,-3.074,-3.74
1356.0,7.305,16.789,-6.824,1.53,-2.905,-3.472
1360.0,7.305,16.789,-6.824,1.53,-2.905,-3.472
1364.0,8.804,18.979,-8.95,1.597,-2.633,-3.211
1368.0,8.804,18.979,-8.95,1.597,-2.633,-3.211
1372.0,8.804,18.979,-8.95,1.597,-2.633,-3.211
1376.0,11.012,19.595,-11.94,1.574,-2.225,-2.937
1380.0,11.012,19.595,-11.94,1.574,-2.225,-2.937
1384.0,12.444,19.596,-13.543,1.448,-1.657,-2.626
1388.0,12.444,19.596,-13.543,1.448,-1.657,-2.626
1392.0,11.933,19.596,-14.666,1.448,-1.657,-2.3
1397.0,11.933,19.596,-14.666,1.185,-0.968,-2.3
1401.0,11.933,19.596,-14.666,1.185,-0.968,-2.3
1405.0,10.979,19.596,-15.339,0.844,-0.206,-1.904
1409.0,10.979,19.596,-15.339,0.844,-0.206,-1.904
1413.0,9.164,19.596,-14.194,0.543,0.593,-1.454
1417.0,9.164,19.596,-14.194,0.543,0.593,-1.454
1421.0,9.164,19.596,-14.194,0.543,0.593,-1.454
1425.0,7.123,19.596,-13.703,0.338,1.325,-0.922
1429.0,7.123,19.596,-13.703,0.338,1.325,-0.922
1433.0,6.566,19.596,-14.7,0.223,2.009,-0.287
1437.0,6.566,19.596,-14.7,0.223,2.009,-0.287
1441.0,6.566,19.596,-16.496,0.223,2.009,-0.287
1445.0,7.496,19.596,-16.496,0.187,2.687,0.382
1449.0,7.496,19.596,-16.496,0.187,2.687,0.382
1453.0,8.581,19.596,-18.379,0.193,3.374,1.082
1457.0,8.581,19.596,-18.379,0.193,3.374,1.082
1461.0,8.581,19.596,-18.379,0.193,3.374,1.082
1465.0,9.081,19.596,-18.672,0.183,4.102,1.846
1469.0,9.081,19.596,-18.672,0.183,4.102,1.846
1473.0,8.819,19.596,-17.107,0.184,4.78,2.638
1476.0,8.819,19.596,-17.107,0.184,4.78,2.638
1480.0,8.819,19.596,-17.107,0.184,4.78,2.638
1484.0,7.563,19.596,-14.018,0.234,5.013,3.445
1488.0,7.563,19.596,-14.018,0.234,5.013,3.445
1492.0,6.217,19.596,-11.436,0.29,5.015,4.271
1496.0,6.217,19.596,-11.436,0.29,5.015,4.271
1500.0,6.217,19.596,-11.436,0.29,5.015,4.271
1504.0,4.778,19.596,-9.073,0.314,5.015,4.908
1508.0,4.778,19.596,-9.073,0.314,5.015,4.908
1511.0,3.1,19.525,-6.885,0.263,5.015,5.013
1515.0,3.1,19.525,-6.885,0.263,5.015,5.013
1519.0,3.1,19.525,-6.885,0.263,5.015,5.013
1523.0,1.089,17.943,-5.423,0.104,5.015,5.013
1527.0,1.089,17.943,-5.423,0.104,5.015,5.013
1531.0,-1.944,15.321,-3.668,0.104,5.015,5.013
1534.0,-1.944,15.321,-3.668,-0.19,5.015,5.013
1538.0,-1.944,15.321,-3.668,-0.19,5.015,5.013
1542.0,-5.999,12.35,-1.499,-0.627,5.015,5.013
1546.0,-5.999,12.35,-1.499,-0.627,5.015,5.013
1550.0,-10.733,9.494,0.765,-0.627,5.015,5.013
1554.0,-10.733,9.494,0.765,-1.221,5.015,5.013
1558.0,-10.733,9.494,0.765,-1.221,5.015,5.013
1562.0,-15.547,7.623,2.442,-2.011,5.015,5.013
1566.0,-15.547,7.623,2.442,-2.011,5.015,5.013
1570.0,-19.363,5.928,3.562,-2.011,5.015,5.013
1574.0,-19.363,5.928,3.562,-2.969,5.015,5.013
1578.0,-19.363,5.928,3.562,-2.969,5.015,5.013
1582.0,-19.6,1.802,2.887,-3.949,4.943,5.013
1586.0,-19.6,1.802,2.887,-3.949,4.943,5.013
1589.0,-19.6,-3.23,3.416,-3.949,4.943,5.013
1593.0,-19.6,-3.23,3.416,-4.718,4.172,5.003
1597.0,-19.6,-3.23,3.416,-4.718,4.172,5.003
1601.0,-18.325,-6.585,5.086,-5.004,2.951,4.516
1605.0,-18.325,-6.585,5.086,-5.004,2.951,4.516
1609.0,-11.806,-8.565,5.516,-5.004,2.951,4.516
1613.0,-11.806,-8.565,5.516,-5.013,1.832,3.405
1617.0,-11.806,-8.565,5.516,-5.013,1.832,3.405
1621.0,-7.298,-10.027,5.697,-4.944,0.932,2.338
1625.0,-7.298,-10.027,5.697,-4.944,0.932,2.338
1629.0,-3.978,-11.211,5.947,-4.944,0.932,1.387
1633.0,-3.978,-11.211,5.947,-4.465,0.172,1.387
1637.0,-3.978,-11.211,5.947,-4.465,0.172,1.387
1641.0,-1.231,-11.496,5.808,-3.671,-0.393,0.535
1645.0,-1.231,-11.496,5.808,-3.671,-0.393,0.535
1650.0,0.988,-10.544,5.464,-2.734,-0.743,-0.193
1654.0,0.988,-10.544,5.464,-2.734,-0.743,-0.193
1658.0,0.988,-10.544,5.464,-2.734,-0.743,-0.193
1662.0,2.896,-8.965,4.886,-1.788,-0.926,-0.718
1666.0,2.896,-8.965,4.886,-1.788,-0.926,-0.718
1670.0,4.747,-7.379,4.06,-0.934,-0.986,-1.022
1674.0,4.747,-7.379,4.06,-0.934,-0.986,-1.022
1678.0,4.747,-7.379,4.06,-0.934,-0.986,-1.022
1682.0,6.622,-5.926,3.25,-0.21,-0.925,-1.197
1686.0,6.622,-5.926,3.25,-0.21,-0.925,-1.197
1690.0,8.273,-4.289,3.047,0.392,-0.737,-1.325
1694.0,8.273,-4.289,3.047,0.392,-0.737,-1.325
1698.0,8.273,-4.289,3.047,0.392,-0.737,-1.325
1701.0,9.334,-2.624,3.575,0.899,-0.487,-1.383
1705.0,9.334,-2.624,3.575,0.899,-0.487,-1.383
1709.0,9.919,-1.038,3.833,1.32,-0.286,-1.336
1713.0,9.919,-1.038,3.833,1.32,-0.286,-1.336
1717.0,9.919,-1.038,3.833,1.32,-0.286,-1.336
1721.0,10.236,0.531,3.581,1.64,-0.134,-1.198
1725.0,10.236,0.531,3.581,1.64,-0.134,-1.198
1729.0,10.452,1.677,3.502,1.858,0.013,-0.999
1733.0,10.452,1.677,3.502,1.858,0.013,-0.999
1736.0,10.452,1.677,3.502,1.858,0.013,-0.999
1740.0,10.57,2.499,3.722,1.985,0.143,-0.784
1744.0,10.57,2.499,3.722,1.985,0.143,-0.784
1748.0,10.303,3.38,3.84,1.985,0.143,-0.594
1752.0,10.303,3.38,3.84,2.025,0.223,-0.594
1756.0,10.303,3.38,3.84,2.025,0.223,-0.594
1759.0,9.636,4.309,3.729,1.969,0.254,-0.439
1763.0,9.636,4.309,3.729,1.969,0.254,-0.439
1767.0,9.636,4.309,3.729,1.969,0.254,-0.439
1771.0,8.932,5.024,3.72,1.806,0.239,-0.308
1774.0,8.932,5.024,3.72,1.806,0.239,-0.308
1778.0,8.501,5.55,3.744,1.539,0.187,-0.198
1782.0,8.501,5.55,3.744,1.539,0.187,-0.198
1785.0,8.501,5.55,3.744,1.539,0.187,-0.198
1789.0,8.325,5.757,3.811,1.184,0.131,-0.11
1793.0,8.325,5.757,3.811,1.184,0.131,-0.11
1797.0,8.325,5.757,3.84,1.184,0.131,-0.11
1800.0,8.308,5.789,3.84,0.766,0.09,-0.057
1804.0,8.308,5.789,3.84,0.766,0.09,-0.057
1808.0,8.258,5.741,3.817,0.326,0.076,-0.046
1812.0,8.258,5.741,3.817,0.326,0.076,-0.046
1815.0,8.258,5.741,3.817,0.326,0.076,-0.046
1819.0,8.09,5.501,3.875,-0.099,0.09,-0.059
1823.0,8.09,5.501,3.875,-0.099,0.09,-0.059
1827.0,7.742,5.077,4.043,-0.099,0.09,-0.059
1831.0,7.742,5.077,4.043,-0.478,0.121,-0.089
1834.0,7.742,5.077,4.043,-0.478,0.121,-0.089
1838.0,7.333,4.607,4.247,-0.773,0.159,-0.13
1842.0,7.333,4.607,4.247,-0.773,0.159,-0.13
1846.0,7.333,4.607,4.247,-0.773,0.159,-0.13
1850.0,6.971,4.073,4.436,-0.96,0.191,-0.167
1853.0,6.971,4.073,4.436,-0.96,0.191,-0.167
1857.0,6.829,3.633,4.552,-1.033,0.213,-0.2
1861.0,6.829,3.633,4.552,-1.033,0.213,-0.2
1865.0,6.829,3.633,4.552,-1.033,0.213,-0.2
1869.0,6.772,3.287,4.692,-1.002,0.222,-0.225
1873.0,6.772,3.287,4.692,-1.002,0.222,-0.225
1876.0,6.765,2.986,4.766,-1.002,0.204,-0.228
1880.0,6.765,2.986,4.766,-0.889,0.204,-0.228
1884.0,6.765,2.986,4.766,-0.889,0.204,-0.228
1888.0,6.762,2.83,4.809,-0.718,0.183,-0.22
1892.0,6.762,2.83,4.809,-0.718,0.183,-0.22
1895.0,6.762,2.822,4.779,-0.718,0.183,-0.22
1899.0,6.887,2.822,4.779,-0.513,0.166,-0.189
1903.0,6.887,2.822,4.779,-0.513,0.166,-0.189
1907.0,7.193,2.791,4.694,-0.303,0.15,-0.127
1911.0,7.193,2.791,4.694,-0.303,0.15,-0.127
1915.0,7.193,2.791,4.694,-0.303,0.15,-0.127
1918.0,7.549,2.87,4.646,-0.103,0.14,-0.074
1922.0,7.549,2.87,4.646,-0.103,0.14,-0.074
1926.0,7.763,3.157,4.6,0.071,0.14,-0.053
1930.0,7.763,3.157,4.6,0.071,0.14,-0.053
1933.0,7.763,3.157,4.6,0.071,0.14,-0.053
1937.0,8.071,3.459,4.528,0.197,0.136,-0.049
1941.0,8.071,3.459,4.528,0.197,0.136,-0.049
1945.0,8.071,3.459,4.413,0.197,0.136,-0.049
1948.0,8.553,3.805,4.413,0.271,0.136,-0.073
1952.0,8.553,3.805,4.413,0.271,0.136,-0.073
1956.0,9.02,4.135,4.217,0.301,0.153,-0.113
1960.0,9.02,4.135,4.217,0.301,0.153,-0.113
1963.0,9.02,4.135,4.217,0.301,0.153,-0.113
1967.0,9.324,4.211,4.034,0.289,0.189,-0.137
1971.0,9.324,4.211,4.034,0.289,0.189,-0.137
1975.0,9.343,3.993,3.778,0.289,0.189,-0.137
1978.0,9.343,3.993,3.778,0.247,0.244,-0.142
1982.0,9.343,3.993,3.778,0.247,0.244,-0.142
1986.0,8.926,3.744,3.72,0.184,0.313,-0.143
1989.0,8.926,3.744,3.72,0.184,0.313,-0.143
1993.0,8.926,3.744,3.72,0.184,0.313,-0.143
1997.0,8.279,3.311,3.558,0.118,0.373,-0.13
2001.0,8.279,3.311,3.558,0.118,0.373,-0.13
2004.0,7.757,2.87,3.39,0.118,0.373,-0.11
2008.0,7.757,2.87,3.39,0.056,0.397,-0.11
2012.0,7.757,2.87,3.39,0.056,0.397,-0.11
2016.0,7.383,2.499,3.252,0.006,0.39,-0.126
2019.0,7.383,2.499,3.252,0.006,0.39,-0.126
2023.0,7.383,2.499,3.252,0.006,0.39,-0.126
2027.0,6.959,2.203,3.183,-0.029,0.371,-0.184
2031.0,6.959,2.203,3.183,-0.029,0.371,-0.184
2034.0,6.614,1.89,3.048,-0.05,0.33,-0.248
2038.0,6.614,1.89,3.048,-0.05,0.33,-0.248
2042.0,6.614,1.89,3.048,-0.05,0.33,-0.248
2046.0,6.528,1.574,2.857,-0.05,0.266,-0.33
2050.0,6.528,1.574,2.857,-0.05,0.266,-0.33
2054.0,6.402,1.497,2.583,-0.05,0.266,-0.33
2057.0,6.402,1.497,2.583,-0.029,0.221,-0.464
2061.0,6.402,1.497,2.583,-0.029,0.221,-0.464
2065.0,6.314,1.635,2.276,0.006,0.214,-0.596
2069.0,6.314,1.635,2.276,0.006,0.214,-0.596
2072.0,6.314,1.635,2.276,0.006,0.214,-0.596
2076.0,6.455,1.719,2.049,0.053,0.239,-0.684
2080.0,6.455,1.719,2.049,0.053,0.239,-0.684
2084.0,6.578,1.691,1.838,0.053,0.286,-0.747
2087.0,6.578,1.691,1.838,0.104,0.286,-0.747
2091.0,6.578,1.691,1.838,0.104,0.286,-0.747
2095.0,6.659,1.592,1.607,0.154,0.338,-0.802
2099.0,6.659,1.592,1.607,0.154,0.338,-0.802
2102.0,6.659,1.592,1.607,0.154,0.338,-0.802
2106.0,6.666,1.435,1.356,0.197,0.394,-0.868
2110.0,6.666,1.435,1.356,0.197,0.394,-0.868
2113.0,6.361,1.254,1.237,0.233,0.462,-0.964
2117.0,6.361,1.254,1.237,0.233,0.462,-0.964
2121.0,6.361,1.254,1.237,0.233,0.462,-0.964
2125.0,5.824,1.075,1.133,0.257,0.518,-1.073
2128.0,5.824,1.075,1.133,0.257,0.518,-1.073
2132.0,5.824,1.075,0.997,0.257,0.518,-1.073
2136.0,5.378,0.846,0.997,0.264,0.543,-1.184
2140.0,5.378,0.846,0.997,0.264,0.543,-1.184
2143.0,5.039,0.68,0.84,0.254,0.563,-1.328
2147.0,5.039,0.68,0.84,0.254,0.563,-1.328
2151.0,5.039,0.68,0.84,0.254,0.563,-1.328
2155.0,4.64,0.613,0.688,0.221,0.6,-1.508
2158.0,4.64,0.613,0.688,0.221,0.6,-1.508
2162.0,4.64,0.675,0.653,0.221,0.6,-1.508
2166.0,4.296,0.675,0.653,0.167,0.654,-1.697
2169.0,4.296,0.675,0.653,0.167,0.654,-1.697
2173.0,4.198,0.783,0.716,0.106,0.731,-1.891
2177.0,4.198,0.783,0.716,0.106,0.731,-1.891
2181.0,4.198,0.783,0.716,0.106,0.731,-1.891
2184.0,4.353,0.85,0.827,0.045,0.826,-2.092
2188.0,4.353,0.85,0.827,0.045,0.826,-2.092
2192.0,4.42,0.939,0.942,0.045,0.826,-2.092
2196.0,4.42,0.939,0.942,-0.017,0.942,-2.29
2199.0,4.42,0.939,0.942,-0.017,0.942,-2.29
2203.0,4.183,0.961,1.016,-0.085,1.073,-2.453
2207.0,4.183,0.961,1.016,-0.085,1.073,-2.453
2211.0,4.183,0.961,1.016,-0.085,1.073,-2.453
2215.0,3.695,0.817,0.93,-0.162,1.209,-2.56
2219.0,3.695,0.817,0.93,-0.162,1.209,-2.56
2222.0,3.045,0.592,0.794,-0.254,1.344,-2.628
2226.0,3.045,0.592,0.794,-0.254,1.344,-2.628
2230.0,3.045,0.592,0.794,-0.254,1.344,-2.628
2234.0,2.348,0.422,0.705,-0.366,1.468,-2.667
2238.0,2.348,0.422,0.705,-0.366,1.468,-2.667
2241.0,1.773,0.356,0.727,-0.366,1.468,-2.703
2245.0,1.773,0.356,0.727,-0.493,1.59,-2.703
2249.0,1.773,0.356,0.727,-0.493,1.59,-2.703
2253.0,1.261,0.382,0.863,-0.624,1.726,-2.759
2257.0,1.261,0.382,0.863,-0.624,1.726,-2.759
2261.0,1.261,0.382,1.014,-0.624,1.726,-2.759
2264.0,0.814,0.435,1.014,-0.756,1.858,-2.812
2268.0,0.814,0.435,1.014,-0.756,1.858,-2.812
2272.0,0.42,0.534,1.219,-0.883,1.99,-2.853
2276.0,0.42,0.534,1.219,-0.883,1.99,-2.853
2280.0,0.42,0.534,1.219,-0.883,1.99,-2.853
2283.0,0.035,0.631,1.46,-1.002,2.13,-2.876
2287.0,0.035,0.631,1.46,-1.002,2.13,-2.876
2291.0,-0.397,0.734,1.661,-1.107,2.278,-2.874
2295.0,-0.397,0.734,1.661,-1.107,2.278,-2.874
2299.0,-0.397,0.734,1.661,-1.107,2.278,-2.874
2303.0,-0.684,0.589,1.786,-1.197,2.437,-2.841
2307.0,-0.684,0.589,1.786,-1.197,2.437,-2.841
2311.0,-0.904,0.285,2.018,-1.197,2.643,-2.828
2315.0,-0.904,0.285,2.018,-1.259,2.643,-2.828
2318.0,-0.904,0.285,2.018,-1.259,2.643,-2.828
2322.0,-1.211,0.029,2.286,-1.278,2.893,-2.866
2326.0,-1.211,0.029,2.286,-1.278,2.893,-2.866
2330.0,-1.494,-0.113,2.518,-1.278,2.893,-2.931
2334.0,-1.494,-0.113,2.518,-1.259,3.16,-2.931
2338.0,-1.494,-0.113,2.518,-1.259,3.16,-2.931
2342.0,-1.911,-0.002,2.789,-1.208,3.45,-3.007
2346.0,-1.911,-0.002,2.789,-1.208,3.45,-3.007
2350.0,-2.562,0.254,2.932,-1.208,3.736,-3.045
2354.0,-2.562,0.254,2.932,-1.149,3.736,-3.045
2358.0,-2.562,0.254,2.932,-1.149,3.736,-3.045
2362.0,-3.316,0.543,3.062,-1.102,4.0,-3.008
2366.0,-3.316,0.543,3.062,-1.102,4.0,-3.008
2370.0,-4.023,0.786,3.29,-1.102,4.0,-2.915
2374.0,-4.023,0.786,3.29,-1.065,4.242,-2.915
2377.0,-4.023,0.786,3.29,-1.065,4.242,-2.915
2381.0,-4.541,0.793,3.421,-1.026,4.462,-2.799
2385.0,-4.541,0.793,3.421,-1.026,4.462,-2.799
2389.0,-5.136,0.599,3.516,-1.026,4.462,-2.799
2393.0,-5.136,0.599,3.516,-0.976,4.693,-2.719
2397.0,-5.136,0.599,3.516,-0.976,4.693,-2.719
2401.0,-5.828,0.248,3.197,-0.914,4.923,-2.699
2405.0,-5.828,0.248,3.197,-0.914,4.923,-2.699
2409.0,-5.828,-0.1,2.654,-0.914,4.923,-2.699
2413.0,-6.587,-0.1,2.654,-0.844,5.014,-2.727
2417.0,-6.587,-0.1,2.654,-0.844,5.014,-2.727
2421.0,-7.582,-0.412,2.344,-0.778,5.015,-2.784
2425.0,-7.582,-0.412,2.344,-0.778,5.015,-2.784
2429.0,-8.751,-0.743,2.253,-0.778,5.015,-2.784
2433.0,-8.751,-0.743,2.253,-0.735,5.015,-2.837
2437.0,-8.751,-0.743,2.253,-0.735,5.015,-2.837
2441.0,-10.244,-1.137,2.264,-0.706,5.015,-2.888
2445.0,-10.244,-1.137,2.264,-0.706,5.015,-2.888
2449.0,-12.282,-1.389,2.433,-0.706,5.015,-2.949
2453.0,-12.282,-1.389,2.433,-0.657,5.015,-2.949
2457.0,-12.282,-1.389,2.433,-0.657,5.015,-2.949
2461.0,-14.63,-1.561,2.807,-0.561,5.015,-2.994
2465.0,-14.63,-1.561,2.807,-0.561,5.015,-2.994
2469.0,-17.096,-1.476,3.447,-0.404,5.015,-3.017
2473.0,-17.096,-1.476,3.447,-0.404,5.015,-3.017
2477.0,-17.096,-1.476,3.447,-0.404,5.015,-3.017
2481.0,-19.284,-1.203,4.238,-0.179,5.015,-3.008
2486.0,-19.284,-1.203,4.238,-0.179,5.015,-3.008
2490.0,-19.6,-0.837,4.854,0.09,5.015,-2.951
2494.0,-19.6,-0.837,4.854,0.09,5.015,-2.951
2498.0,-19.6,-0.354,5.18,0.09,5.015,-2.951
2502.0,-19.6,-0.354,5.18,0.359,5.015,-2.829
2506.0,-19.6,-0.354,5.18,0.359,5.015,-2.829
2510.0,-19.6,0.096,5.343,0.581,5.015,-2.637
2513.0,-19.6,0.096,5.343,0.581,5.015,-2.637
2517.0,-19.6,0.514,5.431,0.581,5.015,-2.637
2521.0,-19.6,0.514,5.431,0.73,5.015,-2.398
2525.0,-19.6,0.514,5.431,0.73,5.015,-2.398
2529.0,-19.6,1.084,5.454,0.815,5.015,-2.156
2533.0,-19.6,1.084,5.454,0.815,5.015,-2.156
2537.0,-19.6,1.084,5.64,0.815,5.015,-2.156
2541.0,-19.6,1.711,5.64,0.862,4.922,-1.956
2545.0,-19.6,1.711,5.64,0.862,4.922,-1.956
2549.0,-19.6,2.487,5.675,0.898,4.596,-1.844
2553.0,-19.6,2.487,5.675,0.898,4.596,-1.844
2556.0,-19.6,2.487,5.675,0.898,4.596,-1.844
2560.0,-19.6,3.492,5.448,0.928,4.24,-1.829
2564.0,-19.6,3.492,5.448,0.928,4.24,-1.829
2568.0,-19.6,4.806,5.061,0.911,3.896,-1.872
2572.0,-19.6,4.806,5.061,0.911,3.896,-1.872
2576.0,-19.6,4.806,5.061,0.911,3.896,-1.872
2580.0,-19.6,6.026,4.44,0.773,3.583,-1.875
2584.0,-19.6,6.026,4.44,0.773,3.583,-1.875
2588.0,-19.6,7.406,4.038,0.451,3.345,-1.787
2592.0,-19.6,7.406,4.038,0.451,3.345,-1.787
2596.0,-19.6,7.406,4.038,0.451,3.345,-1.787
2599.0,-19.6,8.801,3.602,-0.112,3.196,-1.667
2603.0,-19.6,8.801,3.602,-0.112,3.196,-1.667
2607.0,-19.6,9.465,3.342,-0.892,3.119,-1.564
2611.0,-19.6,9.465,3.342,-0.892,3.119,-1.564
2615.0,-19.6,9.465,3.342,-0.892,3.119,-1.564
2619.0,-19.6,9.803,3.091,-1.819,3.027,-1.55
2623.0,-19.6,9.803,3.091,-1.819,3.027,-1.55
2627.0,-19.353,9.799,2.742,-2.83,2.897,-1.66
2631.0,-19.353,9.799,2.742,-2.83,2.897,-1.66
2635.0,-19.353,9.799,2.742,-2.83,2.897,-1.66
2639.0,-18.316,9.511,2.187,-3.873,2.758,-1.844
2643.0,-18.316,9.511,2.187,-3.873,2.758,-1.844
2647.0,-17.336,8.902,1.637,-4.784,2.651,-2.021
2651.0,-17.336,8.902,1.637,-4.784,2.651,-2.021
2655.0,-17.336,8.902,1.278,-4.784,2.651,-2.021
2659.0,-16.423,7.939,1.278,-5.013,2.61,-2.15
2663.0,-16.423,7.939,1.278,-5.013,2.61,-2.15
2667.0,-15.61,6.832,1.299,-5.013,2.636,-2.237
2671.0,-15.61,6.832,1.299,-5.013,2.636,-2.237
2675.0,-15.61,5.791,1.667,-5.013,2.636,-2.237
2679.0,-15.14,5.791,1.667,-5.013,2.701,-2.27
2683.0,-15.14,5.791,1.667,-5.013,2.701,-2.27
2687.0,-14.86,4.905,2.53,-5.013,2.767,-2.253
2691.0,-14.86,4.905,2.53,-5.013,2.767,-2.253
2695.0,-15.126,4.003,3.635,-5.013,2.767,-2.253
2699.0,-15.126,4.003,3.635,-5.013,2.784,-2.182
2703.0,-15.126,4.003,3.635,-5.013,2.784,-2.182
2707.0,-15.825,3.099,4.74,-5.013,2.723,-2.04
2711.0,-15.825,3.099,4.74,-5.013,2.723,-2.04
2715.0,-16.339,2.106,5.642,-5.013,2.723,-1.836
2719.0,-16.339,2.106,5.642,-5.013,2.576,-1.836
2723.0,-16.339,2.106,5.642,-5.013,2.576,-1.836
2727.0,-16.201,1.03,6.216,-5.013,2.343,-1.608
2731.0,-16.201,1.03,6.216,-5.013,2.343,-1.608
2735.0,-15.507,0.102,6.47,-5.013,2.054,-1.391
2739.0,-15.507,0.102,6.47,-5.013,2.054,-1.391
2743.0,-15.507,0.102,6.47,-5.013,2.054,-1.391
2747.0,-14.471,-0.674,6.52,-5.013,1.75,-1.196
2751.0,-14.471,-0.674,6.52,-5.013,1.75,-1.196
2755.0,-13.224,-1.42,6.443,-5.013,1.467,-1.015
2759.0,-13.224,-1.42,6.443,-5.013,1.467,-1.015
2763.0,-13.224,-1.42,6.443,-5.013,1.467,-1.015
2768.0,-11.935,-2.033,6.327,-5.013,1.23,-0.837
2772.0,-11.935,-2.033,6.327,-5.013,1.23,-0.837
2776.0,-10.81,-2.48,6.24,-4.879,1.047,-0.653
2780.0,-10.81,-2.48,6.24,-4.879,1.047,-0.653
2784.0,-10.81,-2.819,6.124,-4.879,1.047,-0.653
2788.0,-10.007,-2.819,6.124,-4.332,0.902,-0.455
2792.0,-10.007,-2.819,6.124,-4.332,0.902,-0.455
2796.0,-9.514,-3.053,5.961,-3.692,0.775,-0.249
2800.0,-9.514,-3.053,5.961,-3.692,0.775,-0.249
2804.0,-9.197,-3.155,5.712,-3.692,0.648,-0.048
2808.0,-9.197,-3.155,5.712,-3.059,0.648,-0.048
2812.0,-9.197,-3.155,5.712,-3.059,0.648,-0.048
2816.0,-9.061,-3.162,5.392,-2.454,0.512,0.135
2820.0,-9.061,-3.162,5.392,-2.454,0.512,0.135
2824.0,-9.056,-3.095,5.055,-2.454,0.363,0.303
2828.0,-9.056,-3.095,5.055,-1.9,0.363,0.303
2832.0,-9.056,-3.095,5.055,-1.9,0.363,0.303
2836.0,-9.061,-2.953,4.705,-1.415,0.207,0.466
2840.0,-9.061,-2.953,4.705,-1.415,0.207,0.466
2843.0,-9.12,-2.707,4.34,-1.415,0.207,0.626
2847.0,-9.12,-2.707,4.34,-1.028,0.052,0.626
2851.0,-9.12,-2.707,4.34,-1.028,0.052,0.626
2855.0,-9.267,-2.569,4.053,-0.738,-0.085,0.786
2859.0,-9.267,-2.569,4.053,-0.738,-0.085,0.786
2863.0,-9.559,-2.384,3.69,-0.738,-0.085,0.943
2867.0,-9.559,-2.384,3.69,-0.525,-0.204,0.943
2871.0,-9.559,-2.384,3.69,-0.525,-0.204,0.943
2875.0,-9.96,-2.209,3.361,-0.391,-0.313,1.09
2879.0,-9.96,-2.209,3.361,-0.391,-0.313,1.09
2883.0,-10.299,-2.052,2.995,-0.391,-0.414,1.224
2887.0,-10.299,-2.052,2.995,-0.323,-0.414,1.224
2891.0,-10.299,-2.052,2.995,-0.323,-0.414,1.224
2895.0,-10.599,-1.879,2.653,-0.32,-0.504,1.331
2899.0,-10.599,-1.879,2.653,-0.32,-0.504,1.331
2904.0,-11.01,-1.665,2.315,-0.38,-0.574,1.398
2908.0,-11.01,-1.665,2.315,-0.38,-0.574,1.398
2912.0,-11.01,-1.665,2.315,-0.38,-0.574,1.398
2916.0,-11.597,-1.452,1.994,-0.501,-0.623,1.415
2920.0,-11.597,-1.452,1.994,-0.501,-0.623,1.415
2924.0,-12.392,-1.169,1.776,-0.679,-0.651,1.376
2928.0,-12.392,-1.169,1.776,-0.679,-0.651,1.376
2932.0,-13.561,-0.68,1.85,-0.679,-0.651,1.376
2936.0,-13.561,-0.68,1.85,-0.898,-0.668,1.295
2940.0,-13.561,-0.68,1.85,-0.898,-0.668,1.295
2944.0,-14.333,-0.675,1.649,-1.139,-0.695,1.175
2948.0,-14.333,-0.675,1.649,-1.139,-0.695,1.175
2952.0,-14.956,-0.516,1.894,-1.392,-0.737,0.982
2957.0,-14.956,-0.516,1.894,-1.392,-0.737,0.982
2961.0,-14.956,-0.516,1.894,-1.392,-0.737,0.982
2965.0,-15.455,-0.538,2.112,-1.635,-0.812,0.737
2969.0,-15.455,-0.538,2.112,-1.635,-0.812,0.737
2973.0,-15.629,-0.572,2.216,-1.85,-0.913,0.451
2977.0,-15.629,-0.572,2.216,-1.85,-0.913,0.451
2981.0,-15.629,-0.572,2.274,-1.85,-0.913,0.451
2985.0,-15.401,-0.695,2.274,-2.021,-1.023,0.142
2989.0,-15.401,-0.695,2.274,-2.021,-1.023,0.142
2993.0,-14.882,-0.781,2.082,-2.138,-1.132,-0.177
2997.0,-14.882,-0.781,2.082,-2.138,-1.132,-0.177
