deltaTime,Acc_X,Acc_Y,Acc_Z,Gyro_X,Gyro_Y,Gyro_Z
0.0,-7.263,-7.938,3.86,0.992,-0.232,-0.037
3.0,-7.263,-7.938,3.86,0.992,-0.232,-0.037
6.0,-7.263,-7.938,3.86,0.992,-0.232,-0.037
9.0,-7.551,-8.475,3.05,1.09,-0.2,-0.16
12.0,-7.551,-8.475,3.05,1.09,-0.2,-0.16
15.0,-7.551,-8.475,3.05,1.09,-0.2,-0.16
18.0,-7.531,-8.168,2.174,1.358,-0.169,-0.16
21.0,-7.531,-8.168,2.174,1.358,-0.169,-0.16
24.0,-7.531,-8.168,2.174,1.358,-0.169,-0.16
27.0,-7.293,-6.922,1.466,1.358,-0.169,-0.16
30.0,-7.293,-6.922,1.466,1.601,-0.145,-0.097
33.0,-7.293,-6.922,1.466,1.601,-0.145,-0.097
37.0,-7.717,-5.849,1.071,1.601,-0.145,-0.009
41.0,-7.717,-5.849,1.071,1.595,-0.042,-0.009
45.0,-7.717,-5.849,1.071,1.595,-0.042,-0.009
49.0,-8.421,-4.932,0.834,1.372,0.084,0.109
52.0,-8.421,-4.932,0.834,1.372,0.084,0.109
56.0,-8.421,-4.932,0.834,1.372,0.084,0.109
59.0,-9.389,-4.328,0.893,0.974,0.225,0.258
63.0,-9.389,-4.328,0.893,0.974,0.225,0.258
67.0,-10.357,-4.284,1.458,0.974,0.225,0.381
71.0,-10.357,-4.284,1.458,0.424,0.374,0.381
74.0,-10.357,-4.284,1.458,0.424,0.374,0.381
78.0,-11.242,-5.012,2.289,-0.172,0.495,0.434
82.0,-11.242,-5.012,2.289,-0.172,0.495,0.434
86.0,-11.242,-5.012,2.289,-0.172,0.495,0.434
89.0,-11.36,-5.582,2.818,-0.649,0.562,0.407
93.0,-11.36,-5.582,2.818,-0.649,0.562,0.407
97.0,-10.772,-4.943,2.803,-1.001,0.626,0.318
101.0,-10.772,-4.943,2.803,-1.001,0.626,0.318
105.0,-10.772,-4.943,2.803,-1.001,0.626,0.318
109.0,-10.727,-4.565,2.57,-1.339,0.705,0.197
113.0,-10.727,-4.565,2.57,-1.339,0.705,0.197
117.0,-10.311,-4.021,2.324,-1.628,0.764,0.072
120.0,-10.311,-4.021,2.324,-1.628,0.764,0.072
124.0,-10.311,-4.021,2.324,-1.628,0.764,0.072
128.0,-9.899,-3.928,2.204,-1.854,0.823,-0.009
132.0,-9.899,-3.928,2.204,-1.854,0.823,-0.009
136.0,-9.468,-4.984,2.408,-1.854,0.875,-0.015
140.0,-9.468,-4.984,2.408,-1.944,0.875,-0.015
144.0,-9.468,-4.984,2.408,-1.944,0.875,-0.015
148.0,-8.989,-6.347,2.851,-1.732,0.895,0.049
152.0,-8.989,-6.347,2.851,-1.732,0.895,0.049
155.0,-8.679,-6.514,3.095,-1.732,0.895,0.049
159.0,-8.679,-6.514,3.095,-1.233,0.896,0.124
163.0,-8.679,-6.514,3.095,-1.233,0.896,0.124
167.0,-8.28,-5.517,3.038,-0.691,0.855,0.15
171.0,-8.28,-5.517,3.038,-0.691,0.855,0.15
175.0,-8.28,-5.517,3.038,-0.691,0.855,0.15
178.0,-8.103,-4.735,2.999,-0.281,0.773,0.138
182.0,-8.103,-4.735,2.999,-0.281,0.773,0.138
186.0,-7.361,-4.138,3.061,0.039,0.672,0.135
190.0,-7.361,-4.138,3.061,0.039,0.672,0.135
193.0,-7.361,-4.138,3.061,0.039,0.672,0.135
197.0,-6.515,-3.248,3.15,0.312,0.598,0.165
201.0,-6.515,-3.248,3.15,0.312,0.598,0.165
205.0,-6.077,-2.222,3.333,0.312,0.598,0.165
208.0,-6.077,-2.222,3.333,0.496,0.545,0.208
212.0,-6.077,-2.222,3.333,0.496,0.545,0.208
216.0,-5.893,-1.316,3.696,0.588,0.476,0.251
220.0,-5.893,-1.316,3.696,0.588,0.476,0.251
223.0,-5.893,-1.316,3.696,0.588,0.476,0.251
227.0,-5.758,-0.771,3.909,0.629,0.353,0.274
231.0,-5.758,-0.771,3.909,0.629,0.353,0.274
234.0,-5.373,-0.367,3.826,0.629,0.353,0.263
238.0,-5.373,-0.367,3.826,0.691,0.128,0.263
242.0,-5.373,-0.367,3.826,0.691,0.128,0.263
246.0,-5.079,0.176,3.751,0.771,-0.125,0.243
249.0,-5.079,0.176,3.751,0.771,-0.125,0.243
253.0,-5.079,0.176,3.751,0.771,-0.125,0.243
257.0,-4.858,0.801,3.661,0.835,-0.363,0.226
261.0,-4.858,0.801,3.661,0.835,-0.363,0.226
264.0,-4.649,1.356,3.537,0.835,-0.585,0.231
268.0,-4.649,1.356,3.537,0.864,-0.585,0.231
272.0,-4.649,1.356,3.537,0.864,-0.585,0.231
276.0,-4.463,1.717,3.574,0.868,-0.789,0.26
279.0,-4.463,1.717,3.574,0.868,-0.789,0.26
283.0,-4.463,1.717,3.574,0.868,-0.789,0.26
287.0,-4.432,2.204,3.701,0.851,-0.996,0.295
290.0,-4.432,2.204,3.701,0.851,-0.996,0.295
294.0,-4.449,2.532,3.858,0.796,-1.221,0.346
298.0,-4.449,2.532,3.858,0.796,-1.221,0.346
302.0,-4.449,2.532,3.858,0.796,-1.221,0.346
305.0,-4.614,2.833,4.038,0.703,-1.414,0.424
309.0,-4.614,2.833,4.038,0.703,-1.414,0.424
313.0,-4.614,2.833,4.402,0.703,-1.414,0.424
317.0,-4.64,3.313,4.402,0.633,-1.657,0.504
320.0,-4.64,3.313,4.402,0.633,-1.657,0.504
324.0,-4.747,3.745,4.917,0.574,-1.879,0.589
328.0,-4.747,3.745,4.917,0.574,-1.879,0.589
332.0,-4.747,3.745,4.917,0.574,-1.879,0.589
335.0,-5.073,4.178,5.704,0.546,-2.061,0.66
339.0,-5.073,4.178,5.704,0.546,-2.061,0.66
343.0,-5.073,4.831,6.869,0.546,-2.061,0.66
346.0,-5.723,4.831,6.869,0.579,-2.239,0.723
350.0,-5.723,4.831,6.869,0.579,-2.239,0.723
354.0,-6.657,5.506,8.327,0.669,-2.451,0.818
358.0,-6.657,5.506,8.327,0.669,-2.451,0.818
361.0,-6.657,5.506,8.327,0.669,-2.451,0.818
365.0,-7.753,6.06,9.734,0.785,-2.716,0.973
369.0,-7.753,6.06,9.734,0.785,-2.716,0.973
373.0,-8.818,6.154,10.804,0.785,-2.716,0.973
376.0,-8.818,6.154,10.804,0.906,-3.026,1.18
380.0,-8.818,6.154,10.804,0.906,-3.026,1.18
384.0,-9.602,5.489,11.394,1.018,-3.354,1.391
388.0,-9.602,5.489,11.394,1.018,-3.354,1.391
392.0,-9.602,5.489,11.394,1.018,-3.354,1.391
396.0,-10.171,4.467,12.068,1.101,-3.657,1.573
399.0,-10.171,4.467,12.068,1.101,-3.657,1.573
403.0,-10.587,3.665,12.875,1.178,-3.891,1.723
407.0,-10.587,3.665,12.875,1.178,-3.891,1.723
411.0,-10.587,3.665,12.875,1.178,-3.891,1.723
415.0,-10.957,3.168,13.752,1.253,-4.019,1.86
419.0,-10.957,3.168,13.752,1.253,-4.019,1.86
423.0,-11.682,3.111,14.703,1.274,-4.075,1.985
427.0,-11.682,3.111,14.703,1.274,-4.075,1.985
431.0,-11.682,3.111,14.703,1.274,-4.075,1.985
435.0,-13.059,3.166,15.955,1.2,-4.135,2.067
438.0,-13.059,3.166,15.955,1.2,-4.135,2.067
442.0,-14.634,2.819,17.507,1.04,-4.249,2.048
446.0,-14.634,2.819,17.507,1.04,-4.249,2.048
450.0,-14.634,2.819,17.507,1.04,-4.249,2.048
454.0,-15.915,1.831,18.984,0.81,-4.42,1.901
458.0,-15.915,1.831,18.984,0.81,-4.42,1.901
462.0,-16.789,0.568,19.6,0.509,-4.604,1.663
466.0,-16.789,0.568,19.6,0.509,-4.604,1.663
470.0,-16.789,0.568,19.6,0.509,-4.604,1.663
474.0,-17.423,-0.934,19.6,0.173,-4.755,1.386
478.0,-17.423,-0.934,19.6,0.173,-4.755,1.386
482.0,-17.515,-2.445,19.6,-0.124,-4.88,1.086
486.0,-17.515,-2.445,19.6,-0.124,-4.88,1.086
490.0,-17.515,-2.445,19.6,-0.124,-4.88,1.086
494.0,-16.869,-4.177,19.6,-0.302,-4.973,0.739
498.0,-16.869,-4.177,19.6,-0.302,-4.973,0.739
502.0,-15.768,-5.522,19.6,-0.299,-4.992,0.331
506.0,-15.768,-5.522,19.6,-0.299,-4.992,0.331
510.0,-15.768,-5.522,19.6,-0.299,-4.992,0.331
514.0,-14.448,-6.584,19.6,-0.106,-4.992,-0.064
518.0,-14.448,-6.584,19.6,-0.106,-4.992,-0.064
523.0,-13.224,-7.694,19.6,0.231,-4.992,-0.372
527.0,-13.224,-7.694,19.6,0.231,-4.992,-0.372
531.0,-12.294,-8.662,19.6,0.231,-4.992,-0.585
535.0,-12.294,-8.662,19.6,0.655,-4.992,-0.585
539.0,-12.294,-8.662,19.6,0.655,-4.992,-0.585
543.0,-11.008,-9.345,19.528,1.134,-4.992,-0.745
547.0,-11.008,-9.345,19.528,1.134,-4.992,-0.745
551.0,-9.634,-9.354,19.087,1.662,-4.991,-0.901
555.0,-9.634,-9.354,19.087,1.662,-4.991,-0.901
559.0,-9.634,-9.354,19.087,1.662,-4.991,-0.901
563.0,-8.546,-9.345,18.279,2.197,-4.989,-1.045
567.0,-8.546,-9.345,18.279,2.197,-4.989,-1.045
571.0,-7.417,-9.494,16.839,2.684,-4.99,-1.136
575.0,-7.417,-9.494,16.839,2.684,-4.99,-1.136
579.0,-7.417,-9.494,16.839,2.684,-4.99,-1.136
583.0,-6.221,-9.461,15.298,3.095,-4.982,-1.161
587.0,-6.221,-9.461,15.298,3.095,-4.982,-1.161
591.0,-5.143,-8.963,14.197,3.416,-4.967,-1.107
595.0,-5.143,-8.963,14.197,3.416,-4.967,-1.107
599.0,-5.143,-8.963,13.269,3.416,-4.967,-1.107
603.0,-3.912,-8.319,13.269,3.648,-4.969,-1.017
607.0,-3.912,-8.319,13.269,3.648,-4.969,-1.017
611.0,-2.386,-7.708,12.624,3.791,-4.971,-0.981
615.0,-2.386,-7.708,12.624,3.791,-4.971,-0.981
619.0,-2.386,-7.329,12.068,3.791,-4.971,-0.981
623.0,-1.549,-7.329,12.068,3.865,-4.944,-1.032
627.0,-1.549,-7.329,12.068,3.865,-4.944,-1.032
631.0,-0.766,-6.746,11.48,3.923,-4.969,-1.063
635.0,-0.766,-6.746,11.48,3.923,-4.969,-1.063
639.0,-0.383,-6.355,11.046,3.923,-4.969,-1.063
643.0,-0.383,-6.355,11.046,3.872,-4.94,-1.02
647.0,-0.383,-6.355,11.046,3.872,-4.94,-1.02
651.0,-0.197,-5.935,10.692,3.76,-4.886,-0.957
655.0,-0.197,-5.935,10.692,3.76,-4.886,-0.957
659.0,0.007,-5.633,10.418,3.76,-4.886,-0.926
663.0,0.007,-5.633,10.418,3.614,-4.831,-0.926
667.0,0.007,-5.633,10.418,3.614,-4.831,-0.926
671.0,-0.173,-5.26,9.956,3.426,-4.762,-0.926
675.0,-0.173,-5.26,9.956,3.426,-4.762,-0.926
678.0,-0.406,-5.165,9.476,3.426,-4.762,-0.926
682.0,-0.406,-5.165,9.476,3.225,-4.666,-0.929
686.0,-0.406,-5.165,9.476,3.225,-4.666,-0.929
690.0,-0.475,-5.255,9.128,3.083,-4.522,-0.96
694.0,-0.475,-5.255,9.128,3.083,-4.522,-0.96
698.0,-0.475,-5.189,8.702,3.083,-4.522,-0.96
702.0,-0.572,-5.189,8.702,3.046,-4.332,-1.044
706.0,-0.572,-5.189,8.702,3.046,-4.332,-1.044
710.0,-0.902,-4.914,8.038,3.096,-4.138,-1.173
714.0,-0.902,-4.914,8.038,3.096,-4.138,-1.173
718.0,-0.902,-4.914,7.388,3.096,-4.138,-1.173
721.0,-0.967,-4.284,7.388,3.181,-3.968,-1.326
725.0,-0.967,-4.284,7.388,3.181,-3.968,-1.326
729.0,-0.87,-3.287,6.672,3.27,-3.795,-1.49
733.0,-0.87,-3.287,6.672,3.27,-3.795,-1.49
737.0,-0.87,-3.287,6.672,3.27,-3.795,-1.49
741.0,-0.921,-2.26,5.743,3.344,-3.617,-1.628
745.0,-0.921,-2.26,5.743,3.344,-3.617,-1.628
749.0,-0.562,-1.169,4.613,3.404,-3.53,-1.704
753.0,-0.562,-1.169,4.613,3.404,-3.53,-1.704
757.0,-0.562,-1.169,4.613,3.404,-3.53,-1.704
761.0,-0.212,-0.303,3.325,3.399,-3.434,-1.726
764.0,-0.212,-0.303,3.325,3.399,-3.434,-1.726
768.0,0.105,0.501,1.939,3.335,-3.318,-1.737
772.0,0.105,0.501,1.939,3.335,-3.318,-1.737
776.0,0.105,0.501,1.939,3.335,-3.318,-1.737
780.0,0.181,1.205,0.693,3.216,-3.206,-1.758
783.0,0.181,1.205,0.693,3.216,-3.206,-1.758
787.0,0.092,1.881,-0.419,3.216,-3.206,-1.758
791.0,0.092,1.881,-0.419,3.041,-3.127,-1.787
795.0,0.092,1.881,-0.419,3.041,-3.127,-1.787
798.0,0.26,2.425,-1.413,2.814,-3.058,-1.81
802.0,0.26,2.425,-1.413,2.814,-3.058,-1.81
806.0,0.26,2.425,-1.413,2.814,-3.058,-1.81
810.0,0.641,2.585,-1.944,2.523,-2.946,-1.809
814.0,0.641,2.585,-1.944,2.523,-2.946,-1.809
818.0,1.046,1.953,-2.209,2.17,-2.787,-1.792
821.0,1.046,1.953,-2.209,2.17,-2.787,-1.792
825.0,1.046,1.953,-2.209,2.17,-2.787,-1.792
829.0,1.383,0.854,-2.346,1.767,-2.59,-1.84
833.0,1.383,0.854,-2.346,1.767,-2.59,-1.84
837.0,1.408,-0.167,-2.308,1.767,-2.59,-1.98
841.0,1.408,-0.167,-2.308,1.365,-2.354,-1.98
844.0,1.408,-0.167,-2.308,1.365,-2.354,-1.98
848.0,1.34,-1.161,-1.938,1.019,-2.102,-2.15
852.0,1.34,-1.161,-1.938,1.019,-2.102,-2.15
856.0,1.143,-2.289,-1.397,1.019,-2.102,-2.15
860.0,1.143,-2.289,-1.397,0.761,-1.873,-2.321
864.0,1.143,-2.289,-1.397,0.761,-1.873,-2.321
868.0,0.928,-3.273,-0.936,0.607,-1.691,-2.497
872.0,0.928,-3.273,-0.936,0.607,-1.691,-2.497
876.0,0.928,-3.757,-0.677,0.607,-1.691,-2.497
880.0,0.774,-3.757,-0.677,0.547,-1.553,-2.664
884.0,0.774,-3.757,-0.677,0.547,-1.553,-2.664
887.0,0.602,-3.55,-0.666,0.574,-1.455,-2.776
891.0,0.602,-3.55,-0.666,0.574,-1.455,-2.776
895.0,0.602,-3.55,-0.854,0.574,-1.455,-2.776
899.0,0.259,-2.885,-0.854,0.696,-1.4,-2.809
903.0,0.259,-2.885,-0.854,0.696,-1.4,-2.809
907.0,0.08,-1.947,-1.208,0.893,-1.38,-2.785
911.0,0.08,-1.947,-1.208,0.893,-1.38,-2.785
915.0,0.08,-1.947,-1.208,0.893,-1.38,-2.785
919.0,0.172,-0.893,-1.532,1.095,-1.374,-2.732
923.0,0.172,-0.893,-1.532,1.095,-1.374,-2.732
926.0,0.425,0.404,-1.768,1.267,-1.359,-2.663
930.0,0.425,0.404,-1.768,1.267,-1.359,-2.663
934.0,0.425,0.404,-1.768,1.267,-1.359,-2.663
938.0,0.762,2.152,-1.973,1.421,-1.323,-2.561
942.0,0.762,2.152,-1.973,1.421,-1.323,-2.561
946.0,1.187,4.446,-2.165,1.56,-1.255,-2.399
949.0,1.187,4.446,-2.165,1.56,-1.255,-2.399
953.0,1.187,4.446,-2.165,1.56,-1.255,-2.399
957.0,1.656,6.848,-2.189,1.685,-1.161,-2.172
961.0,1.656,6.848,-2.189,1.685,-1.161,-2.172
965.0,2.262,9.181,-2.587,1.685,-1.161,-2.172
969.0,2.262,9.181,-2.587,1.814,-1.058,-1.909
972.0,2.262,9.181,-2.587,1.814,-1.058,-1.909
976.0,3.32,11.894,-4.018,1.96,-0.91,-1.599
980.0,3.32,11.894,-4.018,1.96,-0.91,-1.599
984.0,3.32,11.894,-4.018,1.96,-0.91,-1.599
988.0,4.566,14.078,-5.617,2.148,-0.648,-1.228
992.0,4.566,14.078,-5.617,2.148,-0.648,-1.228
996.0,5.69,15.952,-6.949,2.363,-0.274,-0.842
1000.0,5.69,15.952,-6.949,2.363,-0.274,-0.842
1004.0,5.69,15.952,-6.949,2.363,-0.274,-0.842
1008.0,6.933,17.959,-8.934,2.611,0.198,-0.435
1011.0,6.933,17.959,-8.934,2.611,0.198,-0.435
1015.0,7.899,19.373,-10.128,2.89,0.799,0.036
1019.0,7.899,19.373,-10.128,2.89,0.799,0.036
1023.0,7.899,19.373,-10.128,2.89,0.799,0.036
1027.0,8.567,19.595,-10.76,3.149,1.441,0.551
1031.0,8.567,19.595,-10.76,3.149,1.441,0.551
1035.0,9.395,19.596,-10.921,3.323,2.087,1.105
1039.0,9.395,19.596,-10.921,3.323,2.087,1.105
1043.0,9.395,19.596,-10.921,3.323,2.087,1.105
1047.0,9.946,19.596,-10.42,3.369,2.746,1.664
1051.0,9.946,19.596,-10.42,3.369,2.746,1.664
1054.0,11.142,19.596,-11.842,3.293,3.363,2.154
1058.0,11.142,19.596,-11.842,3.293,3.363,2.154
1062.0,11.142,19.596,-11.842,3.293,3.363,2.154
1066.0,11.956,19.596,-12.919,3.121,4.115,2.581
1070.0,11.956,19.596,-12.919,3.121,4.115,2.581
1074.0,11.791,19.596,-11.933,2.842,4.829,2.941
1078.0,11.791,19.596,-11.933,2.842,4.829,2.941
1082.0,11.791,19.596,-11.933,2.842,4.829,2.941
1086.0,10.811,19.596,-10.192,2.424,5.015,3.243
1090.0,10.811,19.596,-10.192,2.424,5.015,3.243
1094.0,8.731,19.555,-7.828,1.887,5.015,3.525
1098.0,8.731,19.555,-7.828,1.887,5.015,3.525
1102.0,8.731,19.555,-7.828,1.887,5.015,3.525
1106.0,6.062,18.123,-5.079,1.299,5.015,3.805
1110.0,6.062,18.123,-5.079,1.299,5.015,3.805
1113.0,3.437,15.413,-1.567,0.742,5.015,4.098
1117.0,3.437,15.413,-1.567,0.742,5.015,4.098
1121.0,3.437,15.413,-1.567,0.742,5.015,4.098
1125.0,0.72,12.906,2.401,0.249,5.015,4.394
1129.0,0.72,12.906,2.401,0.249,5.015,4.394
1132.0,-2.69,10.306,6.66,0.249,5.015,4.394
1136.0,-2.69,10.306,6.66,-0.252,5.015,4.695
1140.0,-2.69,10.306,6.66,-0.252,5.015,4.695
1144.0,-7.851,7.329,12.151,-0.853,5.015,4.88
1148.0,-7.851,7.329,12.151,-0.853,5.015,4.88
1152.0,-7.851,7.329,14.673,-0.853,5.015,4.88
1156.0,-15.209,5.161,14.673,-1.537,4.644,4.803
1160.0,-15.209,5.161,14.673,-1.537,4.644,4.803
1164.0,-19.555,1.783,8.9,-2.206,3.357,4.683
1168.0,-19.555,1.783,8.9,-2.206,3.357,4.683
1172.0,-19.555,1.783,7.054,-2.206,3.357,4.683
1175.0,-19.6,-3.511,7.054,-2.674,2.253,4.527
1179.0,-19.6,-3.511,7.054,-2.674,2.253,4.527
1183.0,-17.418,-5.895,12.09,-2.857,0.977,3.97
1188.0,-17.418,-5.895,12.09,-2.857,0.977,3.97
1192.0,-17.418,-5.576,13.365,-2.857,0.977,3.97
1196.0,-10.013,-5.576,13.365,-3.163,-0.584,2.882
1200.0,-10.013,-5.576,13.365,-3.163,-0.584,2.882
1204.0,-7.103,-4.546,11.743,-3.808,-1.772,1.677
1208.0,-7.103,-4.546,11.743,-3.808,-1.772,1.677
1212.0,-5.288,-4.518,9.915,-4.503,-2.599,0.553
1216.0,-5.288,-4.518,9.915,-4.503,-2.599,0.553
1220.0,-5.288,-4.518,9.915,-4.503,-2.599,0.553
1224.0,-3.016,-5.211,8.745,-4.889,-3.144,-0.551
1228.0,-3.016,-5.211,8.745,-4.889,-3.144,-0.551
1232.0,-1.5,-6.69,8.094,-4.825,-3.472,-1.497
1236.0,-1.5,-6.69,8.094,-4.825,-3.472,-1.497
1240.0,-1.5,-6.69,8.094,-4.825,-3.472,-1.497
1245.0,-0.537,-7.85,6.332,-4.322,-3.652,-2.234
1249.0,-0.537,-7.85,6.332,-4.322,-3.652,-2.234
1253.0,-0.054,-8.035,4.68,-3.487,-3.67,-2.859
1257.0,-0.054,-8.035,4.68,-3.487,-3.67,-2.859
1261.0,0.118,-7.714,4.022,-3.487,-3.67,-2.859
1265.0,0.118,-7.714,4.022,-2.521,-3.586,-3.463
1269.0,0.118,-7.714,4.022,-2.521,-3.586,-3.463
1273.0,-0.187,-5.919,3.802,-1.558,-3.49,-4.032
1277.0,-0.187,-5.919,3.802,-1.558,-3.49,-4.032
1281.0,-0.125,-3.062,3.43,-1.558,-3.412,-4.418
1285.0,-0.125,-3.062,3.43,-0.59,-3.412,-4.418
1289.0,-0.125,-3.062,3.43,-0.59,-3.412,-4.418
1293.0,0.85,0.044,2.895,0.346,-3.299,-4.584
1297.0,0.85,0.044,2.895,0.346,-3.299,-4.584
1301.0,2.272,2.548,2.238,1.205,-3.172,-4.619
1305.0,2.272,2.548,2.238,1.205,-3.172,-4.619
1309.0,2.272,2.548,2.238,1.205,-3.172,-4.619
1312.0,3.178,4.554,1.226,1.905,-3.094,-4.641
1316.0,3.178,4.554,1.226,1.905,-3.094,-4.641
1320.0,3.336,6.257,0.254,1.905,-3.094,-4.641
1324.0,3.336,6.257,0.254,2.341,-3.031,-4.678
1328.0,3.336,6.257,0.254,2.341,-3.031,-4.678
1331.0,2.846,8.521,-0.805,2.518,-2.939,-4.728
1335.0,2.846,8.521,-0.805,2.518,-2.939,-4.728
1339.0,2.846,8.521,-0.805,2.518,-2.939,-4.728
1343.0,2.773,11.196,-1.953,2.525,-2.855,-4.721
1347.0,2.773,11.196,-1.953,2.525,-2.855,-4.721
1351.0,3.999,14.078,-3.487,2.442,-2.813,-4.622
1355.0,3.999,14.078,-3.487,2.442,-2.813,-4.622
1359.0,3.999,14.078,-5.849,2.442,-2.813,-4.622
1363.0,7.415,17.311,-5.849,2.298,-2.751,-4.417
1367.0,7.415,17.311,-5.849,2.298,-2.751,-4.417
1371.0,11.362,19.533,-8.685,2.036,-2.627,-4.097
1375.0,11.362,19.533,-8.685,2.036,-2.627,-4.097
1379.0,14.527,19.596,-12.926,2.036,-2.627,-4.097
1383.0,14.527,19.596,-12.926,1.474,-2.322,-3.661
1388.0,14.527,19.596,-12.926,1.474,-2.322,-3.661
1392.0,16.337,19.596,-17.472,0.602,-1.731,-3.121
1396.0,16.337,19.596,-17.472,0.602,-1.731,-3.121
1400.0,16.905,19.596,-19.549,-0.403,-0.933,-2.511
1404.0,16.905,19.596,-19.549,-0.403,-0.933,-2.511
1409.0,16.905,19.596,-19.441,-0.403,-0.933,-2.511
1413.0,14.49,19.596,-19.441,-1.353,-0.079,-1.784
1417.0,14.49,19.596,-19.441,-1.353,-0.079,-1.784
1421.0,10.271,19.596,-16.192,-1.937,0.728,-0.94
1426.0,10.271,19.596,-16.192,-1.937,0.728,-0.94
1430.0,7.152,19.596,-11.289,-1.891,1.351,-0.036
1434.0,7.152,19.596,-11.289,-1.891,1.351,-0.036
1438.0,7.152,19.596,-11.289,-1.891,1.351,-0.036
1442.0,6.419,19.596,-7.784,-1.267,1.753,0.979
1446.0,6.419,19.596,-7.784,-1.267,1.753,0.979
1450.0,7.174,19.596,-6.631,-0.306,2.057,2.028
1454.0,7.174,19.596,-6.631,-0.306,2.057,2.028
1458.0,7.174,19.596,-6.631,-0.306,2.057,2.028
1461.0,8.481,19.596,-7.719,0.72,2.439,2.969
1465.0,8.481,19.596,-7.719,0.72,2.439,2.969
1469.0,9.695,19.406,-9.844,1.632,2.992,3.726
1473.0,9.695,19.406,-9.844,1.632,2.992,3.726
1477.0,9.695,19.406,-9.844,1.632,2.992,3.726
1481.0,10.996,19.394,-13.284,2.331,3.701,4.319
1485.0,10.996,19.394,-13.284,2.331,3.701,4.319
1489.0,11.833,19.595,-15.836,2.754,4.546,4.793
1493.0,11.833,19.595,-15.836,2.754,4.546,4.793
1497.0,11.833,19.595,-15.836,2.754,4.546,4.793
1501.0,11.694,19.596,-16.41,2.78,4.999,5.004
1505.0,11.694,19.596,-16.41,2.78,4.999,5.004
1509.0,10.802,19.596,-15.807,2.412,5.015,5.013
1513.0,10.802,19.596,-15.807,2.412,5.015,5.013
1517.0,10.802,19.596,-15.807,2.412,5.015,5.013
1520.0,8.28,19.596,-13.377,1.78,5.015,5.013
1524.0,8.28,19.596,-13.377,1.78,5.015,5.013
1528.0,4.409,19.475,-10.14,1.0,5.015,5.013
1532.0,4.409,19.475,-10.14,1.0,5.015,5.013
1536.0,4.409,19.475,-10.14,1.0,5.015,5.013
1540.0,-0.212,18.149,-6.365,0.217,5.015,5.013
1544.0,-0.212,18.149,-6.365,0.217,5.015,5.013
1548.0,-5.185,15.739,-2.987,-0.513,5.015,5.013
1552.0,-5.185,15.739,-2.987,-0.513,5.015,5.013
1556.0,-5.185,15.739,-2.987,-0.513,5.015,5.013
1560.0,-9.836,12.927,-0.837,-1.196,5.015,5.013
1564.0,-9.836,12.927,-0.837,-1.196,5.015,5.013
1568.0,-13.803,10.229,0.239,-1.879,5.015,5.013
1572.0,-13.803,10.229,0.239,-1.879,5.015,5.013
1576.0,-13.803,10.229,0.239,-1.879,5.015,5.013
1580.0,-18.727,6.991,1.102,-2.654,5.015,5.013
1584.0,-18.727,6.991,1.102,-2.654,5.015,5.013
1588.0,-19.6,4.336,1.211,-3.536,5.015,5.013
1592.0,-19.6,4.336,1.211,-3.536,5.015,5.013
1595.0,-19.6,4.336,1.211,-3.536,5.015,5.013
1599.0,-19.6,0.988,1.868,-4.344,5.015,5.013
1603.0,-19.6,0.988,1.868,-4.344,5.015,5.013
1607.0,-19.6,-3.987,3.602,-4.744,5.004,5.013
1611.0,-19.6,-3.987,3.602,-4.744,5.004,5.013
1615.0,-19.6,-3.987,3.602,-4.744,5.004,5.013
1619.0,-19.6,-8.572,4.872,-4.468,4.336,5.013
1623.0,-19.6,-8.572,4.872,-4.468,4.336,5.013
1627.0,-19.293,-11.778,5.052,-3.66,2.697,4.752
1631.0,-19.293,-11.778,5.052,-3.66,2.697,4.752
1635.0,-19.293,-11.778,5.052,-3.66,2.697,4.752
1639.0,-13.721,-13.409,4.702,-2.722,1.275,3.521
1643.0,-13.721,-13.409,4.702,-2.722,1.275,3.521
1647.0,-7.524,-12.727,5.558,-1.902,0.398,1.96
1651.0,-7.524,-12.727,5.558,-1.902,0.398,1.96
1655.0,-7.524,-10.705,6.677,-1.902,0.398,1.96
1659.0,-3.957,-10.705,6.677,-1.209,-0.138,0.535
1664.0,-3.957,-10.705,6.677,-1.209,-0.138,0.535
1668.0,-1.562,-8.463,6.898,-0.576,-0.575,-0.566
1672.0,-1.562,-8.463,6.898,-0.576,-0.575,-0.566
1676.0,0.48,-6.553,6.309,-0.576,-0.895,-1.308
1680.0,0.48,-6.553,6.309,-0.018,-0.895,-1.308
1684.0,0.48,-6.553,6.309,-0.018,-0.895,-1.308
1688.0,2.101,-5.467,5.285,0.399,-1.026,-1.69
1692.0,2.101,-5.467,5.285,0.399,-1.026,-1.69
1696.0,3.324,-5.07,3.945,0.399,-0.983,-1.808
1699.0,3.324,-5.07,3.945,0.68,-0.983,-1.808
1703.0,3.324,-5.07,3.945,0.68,-0.983,-1.808
1707.0,4.293,-4.356,2.91,0.871,-0.828,-1.8
1711.0,4.293,-4.356,2.91,0.871,-0.828,-1.8
1715.0,5.87,-3.427,2.283,0.871,-0.828,-1.694
1719.0,5.87,-3.427,2.283,1.013,-0.668,-1.694
1723.0,5.87,-3.427,2.283,1.013,-0.668,-1.694
1727.0,8.317,-2.468,2.189,1.118,-0.479,-1.495
1731.0,8.317,-2.468,2.189,1.118,-0.479,-1.495
1735.0,10.226,-1.329,2.683,1.118,-0.479,-1.495
1739.0,10.226,-1.329,2.683,1.229,-0.209,-1.219
1743.0,10.226,-1.329,2.683,1.229,-0.209,-1.219
1747.0,10.806,-0.211,3.222,1.352,0.058,-0.87
1751.0,10.806,-0.211,3.222,1.352,0.058,-0.87
1754.0,10.411,0.904,3.631,1.352,0.058,-0.87
1758.0,10.411,0.904,3.631,1.452,0.281,-0.488
1762.0,10.411,0.904,3.631,1.452,0.281,-0.488
1766.0,9.759,1.593,4.116,1.5,0.442,-0.111
1770.0,9.759,1.593,4.116,1.5,0.442,-0.111
1773.0,9.759,1.593,4.116,1.5,0.442,-0.111
1777.0,9.137,2.084,4.574,1.496,0.537,0.181
1781.0,9.137,2.084,4.574,1.496,0.537,0.181
1784.0,8.649,2.639,4.82,1.496,0.57,0.353
1788.0,8.649,2.639,4.82,1.455,0.57,0.353
1792.0,8.649,2.639,4.82,1.455,0.57,0.353
1795.0,8.426,3.285,4.652,1.376,0.542,0.424
1799.0,8.426,3.285,4.652,1.376,0.542,0.424
1803.0,8.426,3.285,4.652,1.376,0.542,0.424
1806.0,8.472,3.965,4.232,1.237,0.479,0.42
1810.0,8.472,3.965,4.232,1.237,0.479,0.42
1814.0,8.969,4.44,4.038,1.237,0.479,0.42
1817.0,8.969,4.44,4.038,1.024,0.417,0.368
1821.0,8.969,4.44,4.038,1.024,0.417,0.368
1824.0,9.949,4.702,4.119,0.744,0.349,0.288
1828.0,9.949,4.702,4.119,0.744,0.349,0.288
1832.0,9.949,4.702,4.119,0.744,0.349,0.288
1835.0,11.026,4.582,4.312,0.422,0.294,0.183
1839.0,11.026,4.582,4.312,0.422,0.294,0.183
1843.0,11.026,4.582,4.615,0.422,0.294,0.183
1847.0,11.816,4.542,4.615,0.095,0.273,0.048
1850.0,11.816,4.542,4.615,0.095,0.273,0.048
1854.0,12.404,4.587,5.07,-0.199,0.272,-0.076
1858.0,12.404,4.587,5.07,-0.199,0.272,-0.076
1862.0,12.404,4.587,5.07,-0.199,0.272,-0.076
1866.0,12.892,4.618,5.696,-0.434,0.277,-0.167
1870.0,12.892,4.618,5.696,-0.434,0.277,-0.167
1874.0,13.225,4.56,6.364,-0.593,0.271,-0.22
1878.0,13.225,4.56,6.364,-0.593,0.271,-0.22
1881.0,13.225,4.56,6.364,-0.593,0.271,-0.22
1885.0,13.133,4.36,6.951,-0.665,0.26,-0.247
1889.0,13.133,4.36,6.951,-0.665,0.26,-0.247
1893.0,12.599,3.924,7.242,-0.651,0.24,-0.251
1897.0,12.599,3.924,7.242,-0.651,0.24,-0.251
1901.0,12.599,3.924,7.242,-0.651,0.24,-0.251
1905.0,11.805,3.44,7.203,-0.568,0.219,-0.246
1909.0,11.805,3.44,7.203,-0.568,0.219,-0.246
1913.0,10.823,3.08,6.773,-0.568,0.217,-0.242
1917.0,10.823,3.08,6.773,-0.432,0.217,-0.242
1920.0,10.823,3.08,6.773,-0.432,0.217,-0.242
1924.0,9.758,2.867,5.967,-0.275,0.267,-0.223
1928.0,9.758,2.867,5.967,-0.275,0.267,-0.223
1932.0,8.693,2.549,5.311,-0.275,0.267,-0.223
1936.0,8.693,2.549,5.311,-0.137,0.37,-0.188
1940.0,8.693,2.549,5.311,-0.137,0.37,-0.188
1943.0,7.769,2.065,4.831,-0.038,0.48,-0.163
1947.0,7.769,2.065,4.831,-0.038,0.48,-0.163
1951.0,7.769,2.065,4.831,-0.038,0.48,-0.163
1955.0,7.226,1.574,4.407,0.031,0.564,-0.183
1959.0,7.226,1.574,4.407,0.031,0.564,-0.183
1962.0,7.037,1.196,4.013,0.081,0.62,-0.257
1966.0,7.037,1.196,4.013,0.081,0.62,-0.257
1970.0,7.037,1.196,4.013,0.081,0.62,-0.257
1974.0,7.342,0.853,3.617,0.121,0.63,-0.385
1977.0,7.342,0.853,3.617,0.121,0.63,-0.385
1981.0,7.342,0.853,3.241,0.121,0.63,-0.385
1985.0,7.597,0.702,3.241,0.15,0.634,-0.588
1989.0,7.597,0.702,3.241,0.15,0.634,-0.588
1992.0,7.326,0.666,2.722,0.154,0.679,-0.811
1996.0,7.326,0.666,2.722,0.154,0.679,-0.811
2000.0,7.326,0.666,2.722,0.154,0.679,-0.811
2003.0,6.482,0.56,2.104,0.117,0.793,-0.987
2007.0,6.482,0.56,2.104,0.117,0.793,-0.987
2011.0,5.383,0.314,1.503,0.117,0.793,-0.987
2015.0,5.383,0.314,1.503,0.04,0.964,-1.111
2018.0,5.383,0.314,1.503,0.04,0.964,-1.111
2022.0,4.312,0.031,0.934,-0.065,1.16,-1.21
2026.0,4.312,0.031,0.934,-0.065,1.16,-1.21
2030.0,4.312,0.031,0.934,-0.065,1.16,-1.21
2034.0,3.354,-0.226,0.637,-0.198,1.364,-1.316
2038.0,3.354,-0.226,0.637,-0.198,1.364,-1.316
2041.0,2.399,-0.345,0.611,-0.345,1.578,-1.441
2045.0,2.399,-0.345,0.611,-0.345,1.578,-1.441
2049.0,2.399,-0.345,0.611,-0.345,1.578,-1.441
2053.0,1.555,-0.485,0.75,-0.505,1.805,-1.563
2057.0,1.555,-0.485,0.75,-0.505,1.805,-1.563
2061.0,0.745,-0.563,1.1,-0.669,2.072,-1.685
2065.0,0.745,-0.563,1.1,-0.669,2.072,-1.685
2069.0,0.745,-0.563,1.1,-0.669,2.072,-1.685
2073.0,-0.036,-0.617,1.607,-0.821,2.383,-1.801
2077.0,-0.036,-0.617,1.607,-0.821,2.383,-1.801
2081.0,-0.854,-0.596,2.256,-0.935,2.729,-1.901
2085.0,-0.854,-0.596,2.256,-0.935,2.729,-1.901
2089.0,-0.854,-0.596,2.256,-0.935,2.729,-1.901
2093.0,-1.57,-0.659,2.98,-1.0,3.075,-1.972
2097.0,-1.57,-0.659,2.98,-1.0,3.075,-1.972
2101.0,-2.219,-0.759,3.82,-1.015,3.4,-2.032
2105.0,-2.219,-0.759,3.82,-1.015,3.4,-2.032
2109.0,-2.219,-0.759,3.82,-1.015,3.4,-2.032
2113.0,-2.726,-0.895,4.42,-0.987,3.683,-2.09
2117.0,-2.726,-0.895,4.42,-0.987,3.683,-2.09
2121.0,-2.977,-1.184,4.512,-0.928,3.932,-2.143
2125.0,-2.977,-1.184,4.512,-0.928,3.932,-2.143
2129.0,-2.977,-1.184,4.512,-0.928,3.932,-2.143
2133.0,-2.964,-1.586,4.194,-0.855,4.192,-2.199
2137.0,-2.964,-1.586,4.194,-0.855,4.192,-2.199
2141.0,-2.974,-1.937,3.827,-0.788,4.495,-2.276
2145.0,-2.974,-1.937,3.827,-0.788,4.495,-2.276
2149.0,-2.974,-1.937,3.827,-0.788,4.495,-2.276
2153.0,-3.188,-2.01,3.568,-0.74,4.805,-2.354
2157.0,-3.188,-2.01,3.568,-0.74,4.805,-2.354
2161.0,-3.599,-1.755,3.735,-0.71,4.999,-2.409
2165.0,-3.599,-1.755,3.735,-0.71,4.999,-2.409
2168.0,-3.599,-1.755,3.7,-0.71,4.999,-2.409
2172.0,-4.131,-1.566,3.7,-0.686,5.015,-2.412
2176.0,-4.131,-1.566,3.7,-0.686,5.015,-2.412
2180.0,-4.49,-1.673,3.352,-0.683,5.015,-2.362
2184.0,-4.49,-1.673,3.352,-0.683,5.015,-2.362
2188.0,-4.49,-1.829,3.4,-0.683,5.015,-2.362
2192.0,-4.945,-1.829,3.4,-0.688,5.015,-2.326
2196.0,-4.945,-1.829,3.4,-0.688,5.015,-2.326
2200.0,-5.403,-2.17,3.531,-0.671,5.015,-2.327
2204.0,-5.403,-2.17,3.531,-0.671,5.015,-2.327
2208.0,-5.998,-2.235,4.234,-0.671,5.015,-2.327
2212.0,-5.998,-2.235,4.234,-0.626,5.015,-2.371
2216.0,-5.998,-2.235,4.234,-0.626,5.015,-2.371
2220.0,-7.081,-1.73,5.542,-0.537,5.015,-2.451
2224.0,-7.081,-1.73,5.542,-0.537,5.015,-2.451
2228.0,-8.426,-0.934,6.633,-0.537,5.015,-2.49
2232.0,-8.426,-0.934,6.633,-0.437,5.015,-2.49
2236.0,-8.426,-0.934,6.633,-0.437,5.015,-2.49
2240.0,-9.845,-0.122,7.413,-0.361,5.015,-2.429
2244.0,-9.845,-0.122,7.413,-0.361,5.015,-2.429
2248.0,-10.853,0.351,7.126,-0.361,5.015,-2.247
2252.0,-10.853,0.351,7.126,-0.323,5.015,-2.247
2256.0,-10.853,0.351,7.126,-0.323,5.015,-2.247
2260.0,-11.155,0.218,5.637,-0.336,5.015,-1.968
2264.0,-11.155,0.218,5.637,-0.336,5.015,-1.968
2268.0,-11.249,-0.33,3.799,-0.408,5.015,-1.673
2272.0,-11.249,-0.33,3.799,-0.408,5.015,-1.673
2276.0,-11.249,-0.33,3.799,-0.408,5.015,-1.673
2281.0,-11.528,-1.199,2.367,-0.524,5.015,-1.422
2285.0,-11.528,-1.199,2.367,-0.524,5.015,-1.422
2289.0,-12.252,-2.09,1.728,-0.637,5.015,-1.259
2293.0,-12.252,-2.09,1.728,-0.637,5.015,-1.259
2297.0,-12.252,-2.09,1.851,-0.637,5.015,-1.259
2301.0,-13.466,-2.81,1.851,-0.696,5.015,-1.196
2305.0,-13.466,-2.81,1.851,-0.696,5.015,-1.196
2309.0,-14.932,-3.124,2.476,-0.67,5.015,-1.198
2313.0,-14.932,-3.124,2.476,-0.67,5.015,-1.198
2317.0,-16.463,-3.083,3.273,-0.67,5.015,-1.193
2321.0,-16.463,-3.083,3.273,-0.559,5.015,-1.193
2325.0,-16.463,-3.083,3.273,-0.559,5.015,-1.193
2330.0,-17.773,-2.913,3.902,-0.374,5.015,-1.132
2334.0,-17.773,-2.913,3.902,-0.374,5.015,-1.132
2338.0,-18.779,-2.715,4.405,-0.14,5.015,-1.012
2342.0,-18.779,-2.715,4.405,-0.14,5.015,-1.012
2346.0,-18.779,-2.715,4.405,-0.14,5.015,-1.012
2350.0,-19.318,-2.428,4.789,0.115,5.015,-0.868
2354.0,-19.318,-2.428,4.789,0.115,5.015,-0.868
2358.0,-19.397,-2.123,5.127,0.357,5.015,-0.74
2362.0,-19.397,-2.123,5.127,0.357,5.015,-0.74
2366.0,-19.397,-2.123,5.495,0.357,5.015,-0.74
2370.0,-19.055,-1.737,5.495,0.571,4.945,-0.68
2374.0,-19.055,-1.737,5.495,0.571,4.945,-0.68
2378.0,-18.364,-1.328,5.62,0.751,4.597,-0.709
2382.0,-18.364,-1.328,5.62,0.751,4.597,-0.709
2386.0,-18.364,-0.757,5.501,0.751,4.597,-0.709
2390.0,-17.593,-0.757,5.501,0.886,4.21,-0.818
2394.0,-17.593,-0.757,5.501,0.886,4.21,-0.818
2398.0,-16.896,-0.107,5.166,0.968,3.874,-0.957
2402.0,-16.896,-0.107,5.166,0.968,3.874,-0.957
2406.0,-16.564,0.559,4.542,0.968,3.874,-0.957
2410.0,-16.564,0.559,4.542,0.982,3.591,-1.066
2414.0,-16.564,0.559,4.542,0.982,3.591,-1.066
2418.0,-16.482,1.091,3.971,0.908,3.375,-1.113
2421.0,-16.482,1.091,3.971,0.908,3.375,-1.113
2425.0,-16.482,1.424,3.715,0.908,3.375,-1.113
2429.0,-16.606,1.424,3.715,0.758,3.223,-1.115
2433.0,-16.606,1.424,3.715,0.758,3.223,-1.115
2437.0,-17.111,1.67,3.795,0.557,3.108,-1.111
2441.0,-17.111,1.67,3.795,0.557,3.108,-1.111
2445.0,-17.111,1.67,3.949,0.557,3.108,-1.111
2449.0,-17.807,1.753,3.949,0.348,3.003,-1.117
2453.0,-17.807,1.753,3.949,0.348,3.003,-1.117
2457.0,-18.586,1.742,4.128,0.156,2.881,-1.115
2461.0,-18.586,1.742,4.128,0.156,2.881,-1.115
2464.0,-18.586,1.742,4.128,0.156,2.881,-1.115
2468.0,-19.37,1.78,4.217,-0.014,2.731,-1.08
2472.0,-19.37,1.78,4.217,-0.014,2.731,-1.08
2476.0,-19.6,1.82,4.236,-0.18,2.553,-0.99
2480.0,-19.6,1.82,4.236,-0.18,2.553,-0.99
2484.0,-19.6,1.82,4.236,-0.18,2.553,-0.99
2488.0,-19.6,1.819,4.09,-0.362,2.351,-0.841
2492.0,-19.6,1.819,4.09,-0.362,2.351,-0.841
2496.0,-19.6,1.868,3.812,-0.582,2.148,-0.647
2500.0,-19.6,1.868,3.812,-0.582,2.148,-0.647
2504.0,-19.6,1.868,3.407,-0.582,2.148,-0.647
2508.0,-19.6,1.912,3.407,-0.857,1.966,-0.423
2512.0,-19.6,1.912,3.407,-0.857,1.966,-0.423
2516.0,-19.6,1.902,2.816,-1.19,1.813,-0.181
2520.0,-19.6,1.902,2.816,-1.19,1.813,-0.181
2524.0,-19.6,1.819,2.146,-1.19,1.813,-0.181
2528.0,-19.6,1.819,2.146,-1.573,1.696,0.057
2532.0,-19.6,1.819,2.146,-1.573,1.696,0.057
2536.0,-19.47,1.719,1.568,-1.994,1.613,0.266
2540.0,-19.47,1.719,1.568,-1.994,1.613,0.266
2544.0,-19.47,1.6,1.246,-1.994,1.613,0.266
2548.0,-18.866,1.6,1.246,-2.433,1.556,0.428
2552.0,-18.866,1.6,1.246,-2.433,1.556,0.428
2556.0,-18.369,1.458,1.015,-2.857,1.505,0.537
2559.0,-18.369,1.458,1.015,-2.857,1.505,0.537
2563.0,-18.369,1.458,0.933,-2.857,1.505,0.537
2567.0,-17.894,1.232,0.933,-3.243,1.451,0.6
2571.0,-17.894,1.232,0.933,-3.243,1.451,0.6
2575.0,-17.291,0.973,0.976,-3.573,1.392,0.637
2579.0,-17.291,0.973,0.976,-3.573,1.392,0.637
2583.0,-17.291,0.973,0.976,-3.573,1.392,0.637
2587.0,-16.567,0.644,1.033,-3.85,1.317,0.663
2591.0,-16.567,0.644,1.033,-3.85,1.317,0.663
2595.0,-15.759,0.358,1.181,-4.076,1.235,0.663
2599.0,-15.759,0.358,1.181,-4.076,1.235,0.663
2602.0,-15.759,0.358,1.181,-4.076,1.235,0.663
2606.0,-14.905,0.138,1.584,-4.238,1.14,0.629
2610.0,-14.905,0.138,1.584,-4.238,1.14,0.629
2614.0,-14.375,-0.075,1.875,-4.328,1.008,0.578
2618.0,-14.375,-0.075,1.875,-4.328,1.008,0.578
2622.0,-14.375,-0.075,1.875,-4.328,1.008,0.578
2626.0,-14.176,-0.269,2.045,-4.344,0.83,0.533
2630.0,-14.176,-0.269,2.045,-4.344,0.83,0.533
2634.0,-14.196,-0.416,1.918,-4.297,0.639,0.522
2638.0,-14.196,-0.416,1.918,-4.297,0.639,0.522
2642.0,-14.196,-0.416,1.918,-4.297,0.639,0.522
2646.0,-14.011,-0.68,1.615,-4.207,0.46,0.551
2650.0,-14.011,-0.68,1.615,-4.207,0.46,0.551
2654.0,-13.421,-1.04,1.3,-4.091,0.307,0.585
2658.0,-13.421,-1.04,1.3,-4.091,0.307,0.585
2662.0,-13.421,-1.04,1.045,-4.091,0.307,0.585
2666.0,-12.479,-1.394,1.045,-3.957,0.175,0.59
2670.0,-12.479,-1.394,1.045,-3.957,0.175,0.59
2674.0,-11.446,-1.666,0.813,-3.802,0.054,0.543
2678.0,-11.446,-1.666,0.813,-3.802,0.054,0.543
2682.0,-11.446,-1.792,0.569,-3.802,0.054,0.543
2686.0,-10.752,-1.792,0.569,-3.63,-0.056,0.452
2690.0,-10.752,-1.792,0.569,-3.63,-0.056,0.452
2694.0,-10.765,-1.835,0.273,-3.443,-0.146,0.356
2698.0,-10.765,-1.835,0.273,-3.443,-0.146,0.356
2702.0,-11.544,-2.076,0.204,-3.443,-0.21,0.286
2706.0,-11.544,-2.076,0.204,-3.242,-0.21,0.286
2711.0,-11.544,-2.076,0.204,-3.242,-0.21,0.286
2715.0,-11.941,-2.032,-0.133,-3.029,-0.249,0.253
2719.0,-11.941,-2.032,-0.133,-3.029,-0.249,0.253
2723.0,-11.994,-2.122,0.014,-2.808,-0.273,0.24
2727.0,-11.994,-2.122,0.014,-2.808,-0.273,0.24
2731.0,-11.994,-2.122,0.28,-2.808,-0.273,0.24
2735.0,-11.845,-2.074,0.28,-2.582,-0.325,0.182
2739.0,-11.845,-2.074,0.28,-2.582,-0.325,0.182
2743.0,-11.548,-2.143,0.433,-2.36,-0.4,0.094
2747.0,-11.548,-2.143,0.433,-2.36,-0.4,0.094
2751.0,-11.107,-1.97,0.572,-2.36,-0.4,-0.035
2756.0,-11.107,-1.97,0.572,-2.135,-0.478,-0.035
2760.0,-11.107,-1.97,0.572,-2.135,-0.478,-0.035
2764.0,-10.417,-1.767,0.619,-1.911,-0.552,-0.178
2768.0,-10.417,-1.767,0.619,-1.911,-0.552,-0.178
2772.0,-9.625,-1.478,0.735,-1.692,-0.612,-0.319
2776.0,-9.625,-1.478,0.735,-1.692,-0.612,-0.319
2780.0,-9.625,-1.478,0.817,-1.692,-0.612,-0.319
2785.0,-8.948,-1.175,0.817,-1.489,-0.652,-0.439
2789.0,-8.948,-1.175,0.817,-1.489,-0.652,-0.439
2793.0,-8.41,-0.954,0.839,-1.308,-0.666,-0.529
2797.0,-8.41,-0.954,0.839,-1.308,-0.666,-0.529
2801.0,-7.962,-0.841,0.843,-1.308,-0.666,-0.6
2805.0,-7.962,-0.841,0.843,-1.147,-0.654,-0.6
2809.0,-7.962,-0.841,0.843,-1.147,-0.654,-0.6
2813.0,-7.534,-0.757,0.803,-1.001,-0.627,-0.664
2817.0,-7.534,-0.757,0.803,-1.001,-0.627,-0.664
2821.0,-7.04,-0.685,0.837,-0.867,-0.598,-0.729
2825.0,-7.04,-0.685,0.837,-0.867,-0.598,-0.729
2829.0,-7.04,-0.685,0.837,-0.867,-0.598,-0.729
2834.0,-6.577,-0.608,0.938,-0.733,-0.567,-0.803
2838.0,-6.577,-0.608,0.938,-0.733,-0.567,-0.803
2842.0,-6.095,-0.528,1.036,-0.592,-0.537,-0.881
2846.0,-6.095,-0.528,1.036,-0.592,-0.537,-0.881
2850.0,-6.095,-0.401,1.149,-0.592,-0.537,-0.881
2854.0,-5.585,-0.401,1.149,-0.443,-0.509,-0.961
2858.0,-5.585,-0.401,1.149,-0.443,-0.509,-0.961
2862.0,-5.076,-0.222,1.282,-0.293,-0.485,-1.041
2866.0,-5.076,-0.222,1.282,-0.293,-0.485,-1.041
2870.0,-4.469,-0.063,1.451,-0.143,-0.458,-1.122
2874.0,-4.469,-0.063,1.451,-0.143,-0.458,-1.122
2878.0,-4.469,-0.063,1.451,-0.143,-0.458,-1.122
2882.0,-4.286,0.054,1.582,0.009,-0.387,-1.194
2886.0,-4.286,0.054,1.582,0.009,-0.387,-1.194
2890.0,-4.003,0.22,1.587,0.127,-0.375,-1.22
2894.0,-4.003,0.22,1.587,0.127,-0.375,-1.22
2898.0,-4.003,0.22,1.587,0.127,-0.375,-1.22
2902.0,-3.796,0.387,1.696,0.227,-0.388,-1.251
2906.0,-3.796,0.387,1.696,0.227,-0.388,-1.251
2910.0,-3.822,0.423,1.78,0.326,-0.382,-1.266
2914.0,-3.822,0.423,1.78,0.326,-0.382,-1.266
2918.0,-3.822,0.423,1.78,0.326,-0.382,-1.266
2922.0,-3.977,0.534,1.717,0.425,-0.375,-1.26
2925.0,-3.977,0.534,1.717,0.425,-0.375,-1.26
2929.0,-4.19,0.557,1.569,0.425,-0.367,-1.226
2933.0,-4.19,0.557,1.569,0.513,-0.367,-1.226
2937.0,-4.19,0.557,1.569,0.513,-0.367,-1.226
2941.0,-4.339,0.54,1.45,0.592,-0.36,-1.189
2945.0,-4.339,0.54,1.45,0.592,-0.36,-1.189
2949.0,-4.484,0.49,1.363,0.592,-0.36,-1.164
2953.0,-4.484,0.49,1.363,0.663,-0.361,-1.164
2957.0,-4.484,0.49,1.363,0.663,-0.361,-1.164
2961.0,-4.595,0.432,1.25,0.724,-0.371,-1.152
2964.0,-4.595,0.432,1.25,0.724,-0.371,-1.152
2968.0,-4.527,0.367,1.137,0.724,-0.371,-1.152
2972.0,-4.527,0.367,1.137,0.77,-0.384,-1.152
2976.0,-4.527,0.367,1.137,0.77,-0.384,-1.152
2980.0,-4.606,0.385,1.069,0.801,-0.394,-1.164
2984.0,-4.606,0.385,1.069,0.801,-0.394,-1.164
2988.0,-4.606,0.435,0.947,0.801,-0.394,-1.164
2992.0,-4.869,0.435,0.947,0.817,-0.397,-1.185
2996.0,-4.869,0.435,0.947,0.817,-0.397,-1.185
3000.0,-5.323,0.617,0.793,0.816,-0.392,-1.205
