deltaTime,Acc_X,Acc_Y,Acc_Z,Gyro_X,Gyro_Y,Gyro_Z
0.0,-8.633,-2.817,4.417,0.547,-0.368,-0.277
3.0,-8.922,-2.97,4.504,0.456,-0.363,-0.251
6.0,-8.922,-2.97,4.504,0.456,-0.363,-0.251
9.0,-8.922,-2.97,4.504,0.456,-0.363,-0.251
12.0,-8.922,-2.97,4.601,0.456,-0.363,-0.251
15.0,-9.119,-3.269,4.601,0.366,-0.352,-0.226
18.0,-9.119,-3.269,4.601,0.366,-0.352,-0.226
21.0,-9.119,-3.269,4.601,0.366,-0.352,-0.226
24.0,-9.179,-3.43,4.638,0.309,-0.351,-0.222
27.0,-9.179,-3.43,4.638,0.309,-0.351,-0.222
30.0,-9.179,-3.43,4.638,0.309,-0.351,-0.222
33.0,-8.955,-3.686,4.514,0.291,-0.353,-0.234
37.0,-8.955,-3.686,4.514,0.291,-0.353,-0.234
41.0,-8.955,-3.686,4.514,0.291,-0.353,-0.234
45.0,-8.571,-3.87,4.229,0.33,-0.339,-0.24
49.0,-8.571,-3.87,4.229,0.33,-0.339,-0.24
52.0,-8.23,-4.027,4.016,0.33,-0.295,-0.231
56.0,-8.23,-4.027,4.016,0.423,-0.295,-0.231
60.0,-8.23,-4.027,4.016,0.423,-0.295,-0.231
64.0,-8.194,-4.25,3.865,0.561,-0.22,-0.188
68.0,-8.194,-4.25,3.865,0.561,-0.22,-0.188
71.0,-8.194,-4.117,3.784,0.561,-0.22,-0.188
75.0,-8.302,-4.117,3.784,0.737,-0.164,-0.134
79.0,-8.302,-4.117,3.784,0.737,-0.164,-0.134
83.0,-8.486,-4.289,3.84,0.882,-0.086,-0.08
87.0,-8.486,-4.289,3.84,0.882,-0.086,-0.08
91.0,-8.486,-4.289,3.84,0.882,-0.086,-0.08
94.0,-8.556,-4.332,3.883,1.049,-0.033,-0.022
98.0,-8.556,-4.332,3.883,1.049,-0.033,-0.022
102.0,-8.731,-4.331,3.808,1.22,0.002,0.022
106.0,-8.731,-4.331,3.808,1.22,0.002,0.022
109.0,-8.731,-4.331,3.808,1.22,0.002,0.022
113.0,-8.745,-3.842,3.617,1.362,0.026,0.052
117.0,-8.745,-3.842,3.617,1.362,0.026,0.052
121.0,-8.745,-3.842,3.473,1.362,0.026,0.052
124.0,-8.767,-3.005,3.473,1.392,0.057,0.058
128.0,-8.767,-3.005,3.473,1.392,0.057,0.058
132.0,-8.742,-2.584,3.403,1.281,0.097,0.051
136.0,-8.742,-2.584,3.403,1.281,0.097,0.051
139.0,-8.742,-2.584,3.403,1.281,0.097,0.051
143.0,-8.497,-2.185,3.496,1.096,0.138,0.033
147.0,-8.497,-2.185,3.496,1.096,0.138,0.033
151.0,-8.407,-1.665,3.608,1.096,0.138,0.033
154.0,-8.407,-1.665,3.608,0.867,0.183,-0.004
158.0,-8.407,-1.665,3.608,0.867,0.183,-0.004
162.0,-8.407,-1.101,3.681,0.582,0.211,-0.06
166.0,-8.407,-1.101,3.681,0.582,0.211,-0.06
170.0,-8.407,-1.101,3.681,0.582,0.211,-0.06
173.0,-8.503,-0.855,3.902,0.255,0.229,-0.12
177.0,-8.503,-0.855,3.902,0.255,0.229,-0.12
181.0,-8.482,-0.924,4.193,-0.048,0.235,-0.165
185.0,-8.482,-0.924,4.193,-0.048,0.235,-0.165
189.0,-8.482,-0.924,4.193,-0.048,0.235,-0.165
193.0,-8.309,-1.018,4.389,-0.283,0.237,-0.186
197.0,-8.309,-1.018,4.389,-0.283,0.237,-0.186
201.0,-8.085,-1.219,4.5,-0.458,0.241,-0.189
204.0,-8.085,-1.219,4.5,-0.458,0.241,-0.189
208.0,-8.085,-1.219,4.5,-0.458,0.241,-0.189
212.0,-7.944,-1.558,4.57,-0.568,0.247,-0.185
216.0,-7.944,-1.558,4.57,-0.568,0.247,-0.185
220.0,-7.958,-1.211,4.627,-0.568,0.26,-0.195
224.0,-7.958,-1.211,4.627,-0.643,0.26,-0.195
228.0,-7.958,-1.211,4.627,-0.643,0.26,-0.195
232.0,-7.899,-1.834,4.596,-0.732,0.263,-0.193
236.0,-7.899,-1.834,4.596,-0.732,0.263,-0.193
240.0,-7.996,-2.215,4.663,-0.732,0.263,-0.193
244.0,-7.996,-2.215,4.663,-0.704,0.258,-0.169
247.0,-7.996,-2.215,4.663,-0.704,0.258,-0.169
251.0,-8.242,-2.351,4.76,-0.605,0.271,-0.132
255.0,-8.242,-2.351,4.76,-0.605,0.271,-0.132
259.0,-8.484,-2.379,4.939,-0.605,0.271,-0.132
263.0,-8.484,-2.379,4.939,-0.489,0.274,-0.096
267.0,-8.484,-2.379,4.939,-0.489,0.274,-0.096
271.0,-8.707,-2.495,5.131,-0.365,0.26,-0.05
275.0,-8.707,-2.495,5.131,-0.365,0.26,-0.05
279.0,-8.707,-2.495,5.238,-0.365,0.26,-0.05
283.0,-8.882,-2.252,5.238,-0.232,0.231,0.006
286.0,-8.882,-2.252,5.238,-0.232,0.231,0.006
290.0,-8.93,-1.724,5.247,-0.157,0.199,0.061
294.0,-8.93,-1.724,5.247,-0.157,0.199,0.061
298.0,-8.93,-1.724,5.247,-0.157,0.199,0.061
302.0,-8.922,-1.033,5.247,-0.193,0.167,0.107
305.0,-8.922,-1.033,5.247,-0.193,0.167,0.107
309.0,-8.841,-0.182,5.137,-0.369,0.138,0.141
313.0,-8.841,-0.182,5.137,-0.369,0.138,0.141
317.0,-8.841,-0.182,5.137,-0.369,0.138,0.141
321.0,-8.815,0.137,5.198,-0.695,0.111,0.157
324.0,-8.815,0.137,5.198,-0.695,0.111,0.157
328.0,-8.952,-0.137,5.291,-0.695,0.111,0.157
332.0,-8.952,-0.137,5.291,-1.054,0.086,0.185
336.0,-8.952,-0.137,5.291,-1.054,0.086,0.185
340.0,-8.923,-0.545,5.394,-1.352,0.048,0.216
344.0,-8.923,-0.545,5.394,-1.352,0.048,0.216
347.0,-8.923,-0.545,5.394,-1.352,0.048,0.216
351.0,-8.934,-1.187,5.503,-1.573,0.029,0.25
355.0,-8.934,-1.187,5.503,-1.573,0.029,0.25
359.0,-8.64,-1.998,5.635,-1.643,-0.047,0.293
363.0,-8.64,-1.998,5.635,-1.643,-0.047,0.293
367.0,-8.64,-1.998,5.635,-1.643,-0.047,0.293
371.0,-8.278,-3.098,5.87,-1.541,-0.089,0.365
374.0,-8.278,-3.098,5.87,-1.541,-0.089,0.365
378.0,-8.657,-3.29,5.859,-1.267,-0.107,0.452
382.0,-8.657,-3.29,5.859,-1.267,-0.107,0.452
386.0,-8.657,-3.29,5.859,-1.267,-0.107,0.452
390.0,-9.079,-3.141,5.576,-0.975,-0.167,0.484
394.0,-9.079,-3.141,5.576,-0.975,-0.167,0.484
398.0,-9.124,-2.984,5.325,-0.975,-0.278,0.455
402.0,-9.124,-2.984,5.325,-0.704,-0.278,0.455
406.0,-9.124,-2.984,5.325,-0.704,-0.278,0.455
410.0,-9.042,-2.786,5.015,-0.451,-0.38,0.408
413.0,-9.042,-2.786,5.015,-0.451,-0.38,0.408
417.0,-8.913,-2.627,4.743,-0.451,-0.38,0.386
421.0,-8.913,-2.627,4.743,-0.214,-0.445,0.386
425.0,-8.913,-2.627,4.743,-0.214,-0.445,0.386
429.0,-8.92,-2.462,4.569,0.005,-0.47,0.404
433.0,-8.92,-2.462,4.569,0.005,-0.47,0.404
437.0,-8.92,-2.337,4.507,0.005,-0.47,0.404
441.0,-9.061,-2.337,4.507,0.2,-0.475,0.445
444.0,-9.061,-2.337,4.507,0.2,-0.475,0.445
448.0,-9.227,-2.204,4.53,0.364,-0.481,0.489
452.0,-9.227,-2.204,4.53,0.364,-0.481,0.489
456.0,-9.227,-2.204,4.53,0.364,-0.481,0.489
460.0,-9.397,-2.037,4.538,0.488,-0.499,0.524
463.0,-9.397,-2.037,4.538,0.488,-0.499,0.524
467.0,-9.605,-1.861,4.509,0.572,-0.521,0.55
471.0,-9.605,-1.861,4.509,0.572,-0.521,0.55
475.0,-9.605,-1.861,4.509,0.572,-0.521,0.55
479.0,-9.861,-1.713,4.543,0.616,-0.539,0.574
483.0,-9.861,-1.713,4.543,0.616,-0.539,0.574
486.0,-10.136,-1.585,4.624,0.616,-0.539,0.604
490.0,-10.136,-1.585,4.624,0.629,-0.558,0.604
494.0,-10.136,-1.585,4.624,0.629,-0.558,0.604
498.0,-10.259,-1.524,4.677,0.618,-0.587,0.64
502.0,-10.259,-1.524,4.677,0.618,-0.587,0.64
506.0,-10.211,-1.454,4.749,0.618,-0.587,0.64
510.0,-10.211,-1.454,4.749,0.594,-0.627,0.67
514.0,-10.211,-1.454,4.749,0.594,-0.627,0.67
518.0,-10.172,-1.429,4.839,0.561,-0.673,0.685
522.0,-10.172,-1.429,4.839,0.561,-0.673,0.685
525.0,-10.172,-1.429,4.941,0.561,-0.673,0.685
529.0,-10.175,-1.439,4.941,0.523,-0.725,0.681
533.0,-10.175,-1.439,4.941,0.523,-0.725,0.681
537.0,-10.167,-1.491,5.078,0.481,-0.786,0.658
541.0,-10.167,-1.491,5.078,0.481,-0.786,0.658
545.0,-10.167,-1.491,5.078,0.481,-0.786,0.658
549.0,-10.135,-1.583,5.297,0.44,-0.856,0.615
553.0,-10.135,-1.583,5.297,0.44,-0.856,0.615
557.0,-10.146,-1.621,5.586,0.412,-0.929,0.551
561.0,-10.146,-1.621,5.586,0.412,-0.929,0.551
565.0,-10.146,-1.621,5.586,0.412,-0.929,0.551
568.0,-10.355,-1.724,6.035,0.411,-1.01,0.472
572.0,-10.355,-1.724,6.035,0.411,-1.01,0.472
576.0,-10.804,-1.92,6.651,0.451,-1.114,0.388
580.0,-10.804,-1.92,6.651,0.451,-1.114,0.388
584.0,-10.804,-1.92,6.651,0.451,-1.114,0.388
588.0,-11.274,-2.063,7.381,0.54,-1.245,0.318
592.0,-11.274,-2.063,7.381,0.54,-1.245,0.318
596.0,-11.554,-2.213,8.218,0.663,-1.395,0.279
600.0,-11.554,-2.213,8.218,0.663,-1.395,0.279
604.0,-11.554,-2.213,8.218,0.663,-1.395,0.279
607.0,-11.552,-2.324,8.925,0.79,-1.561,0.254
611.0,-11.552,-2.324,8.925,0.79,-1.561,0.254
615.0,-11.197,-2.259,9.519,0.899,-1.726,0.225
619.0,-11.197,-2.259,9.519,0.899,-1.726,0.225
623.0,-11.197,-2.259,9.519,0.899,-1.726,0.225
627.0,-10.646,-1.863,10.195,0.987,-1.869,0.182
631.0,-10.646,-1.863,10.195,0.987,-1.869,0.182
635.0,-10.324,-1.175,11.178,1.047,-2.002,0.145
639.0,-10.324,-1.175,11.178,1.047,-2.002,0.145
643.0,-10.324,-1.175,11.178,1.047,-2.002,0.145
647.0,-10.381,-0.43,12.22,1.077,-2.17,0.143
651.0,-10.381,-0.43,12.22,1.077,-2.17,0.143
655.0,-10.541,0.03,13.052,1.066,-2.395,0.193
659.0,-10.541,0.03,13.052,1.066,-2.395,0.193
663.0,-10.541,0.03,13.052,1.066,-2.395,0.193
667.0,-10.547,0.235,13.802,1.002,-2.644,0.28
671.0,-10.547,0.235,13.802,1.002,-2.644,0.28
674.0,-10.272,0.219,14.217,0.883,-2.887,0.371
678.0,-10.272,0.219,14.217,0.883,-2.887,0.371
682.0,-10.272,0.219,14.217,0.883,-2.887,0.371
686.0,-9.878,0.137,14.669,0.72,-3.119,0.422
690.0,-9.878,0.137,14.669,0.72,-3.119,0.422
694.0,-9.525,-0.203,15.251,0.72,-3.366,0.409
698.0,-9.525,-0.203,15.251,0.548,-3.366,0.409
702.0,-9.525,-0.203,15.251,0.548,-3.366,0.409
706.0,-9.333,-0.589,15.812,0.391,-3.62,0.341
709.0,-9.333,-0.589,15.812,0.391,-3.62,0.341
713.0,-9.391,-1.144,16.424,0.391,-3.62,0.341
717.0,-9.391,-1.144,16.424,0.271,-3.868,0.257
721.0,-9.391,-1.144,16.424,0.271,-3.868,0.257
725.0,-9.526,-2.04,16.986,0.22,-4.12,0.166
729.0,-9.526,-2.04,16.986,0.22,-4.12,0.166
733.0,-9.513,-3.106,17.356,0.22,-4.12,0.166
737.0,-9.513,-3.106,17.356,0.263,-4.397,0.046
741.0,-9.513,-3.106,17.356,0.263,-4.397,0.046
745.0,-9.36,-4.317,17.54,0.408,-4.699,-0.109
749.0,-9.36,-4.317,17.54,0.408,-4.699,-0.109
753.0,-9.36,-5.459,17.238,0.408,-4.699,-0.109
757.0,-9.132,-5.459,17.238,0.662,-4.945,-0.267
761.0,-9.132,-5.459,17.238,0.662,-4.945,-0.267
765.0,-8.427,-6.334,16.568,1.039,-4.992,-0.404
769.0,-8.427,-6.334,16.568,1.039,-4.992,-0.404
773.0,-7.475,-7.009,15.944,1.039,-4.992,-0.404
777.0,-7.475,-7.009,15.944,1.513,-4.992,-0.536
781.0,-7.475,-7.009,15.944,1.513,-4.992,-0.536
785.0,-6.702,-7.257,15.108,2.016,-4.992,-0.692
789.0,-6.702,-7.257,15.108,2.016,-4.992,-0.692
793.0,-6.083,-7.19,14.448,2.016,-4.992,-0.846
797.0,-6.083,-7.19,14.448,2.494,-4.992,-0.846
801.0,-6.083,-7.19,14.448,2.494,-4.992,-0.846
805.0,-5.576,-7.074,14.104,2.92,-4.992,-0.979
809.0,-5.576,-7.074,14.104,2.92,-4.992,-0.979
813.0,-5.477,-7.073,13.659,3.289,-4.992,-1.104
817.0,-5.477,-7.073,13.659,3.289,-4.992,-1.104
820.0,-5.477,-7.073,13.659,3.289,-4.992,-1.104
824.0,-5.061,-6.976,13.046,3.612,-4.992,-1.224
828.0,-5.061,-6.976,13.046,3.612,-4.992,-1.224
832.0,-4.389,-6.768,12.061,3.849,-4.992,-1.345
836.0,-4.389,-6.768,12.061,3.849,-4.992,-1.345
840.0,-4.389,-6.768,12.061,3.849,-4.992,-1.345
844.0,-3.925,-6.699,10.896,4.009,-4.992,-1.473
848.0,-3.925,-6.699,10.896,4.009,-4.992,-1.473
852.0,-2.82,-6.258,9.565,4.137,-4.992,-1.605
856.0,-2.82,-6.258,9.565,4.137,-4.992,-1.605
860.0,-2.82,-6.258,9.565,4.137,-4.992,-1.605
864.0,-1.899,-5.776,8.404,4.196,-4.992,-1.738
868.0,-1.899,-5.776,8.404,4.196,-4.992,-1.738
872.0,-1.496,-5.604,7.499,4.217,-4.992,-1.885
876.0,-1.496,-5.604,7.499,4.217,-4.992,-1.885
880.0,-1.496,-5.604,7.499,4.217,-4.992,-1.885
884.0,-1.225,-5.459,6.377,4.224,-4.992,-2.059
888.0,-1.225,-5.459,6.377,4.224,-4.992,-2.059
892.0,-0.617,-5.268,5.465,4.244,-4.992,-2.236
895.0,-0.617,-5.268,5.465,4.244,-4.992,-2.236
899.0,-0.617,-5.268,5.465,4.244,-4.992,-2.236
903.0,0.066,-5.001,4.61,4.297,-4.989,-2.377
907.0,0.066,-5.001,4.61,4.297,-4.989,-2.377
911.0,0.582,-4.582,3.872,4.297,-4.989,-2.477
915.0,0.582,-4.582,3.872,4.386,-4.887,-2.477
918.0,0.582,-4.582,3.872,4.386,-4.887,-2.477
922.0,0.849,-4.022,3.062,4.482,-4.641,-2.541
926.0,0.849,-4.022,3.062,4.482,-4.641,-2.541
930.0,0.849,-4.022,2.276,4.482,-4.641,-2.541
934.0,0.964,-3.412,2.276,4.56,-4.372,-2.591
938.0,0.964,-3.412,2.276,4.56,-4.372,-2.591
941.0,0.963,-2.499,1.486,4.615,-4.102,-2.64
945.0,0.963,-2.499,1.486,4.615,-4.102,-2.64
949.0,0.963,-2.499,1.486,4.615,-4.102,-2.64
953.0,1.104,-1.309,0.653,4.656,-3.845,-2.665
957.0,1.104,-1.309,0.653,4.656,-3.845,-2.665
961.0,1.34,-0.045,-0.114,4.656,-3.591,-2.642
964.0,1.34,-0.045,-0.114,4.675,-3.591,-2.642
968.0,1.34,-0.045,-0.114,4.675,-3.591,-2.642
972.0,1.451,1.272,-0.541,4.674,-3.34,-2.557
976.0,1.451,1.272,-0.541,4.674,-3.34,-2.557
980.0,1.484,2.68,-1.013,4.674,-3.34,-2.557
984.0,1.484,2.68,-1.013,4.657,-3.101,-2.427
988.0,1.484,2.68,-1.013,4.657,-3.101,-2.427
991.0,1.787,4.232,-1.733,4.614,-2.862,-2.266
995.0,1.787,4.232,-1.733,4.614,-2.862,-2.266
999.0,1.787,4.232,-1.733,4.614,-2.862,-2.266
1003.0,2.329,5.758,-2.564,4.523,-2.597,-2.076
1007.0,2.329,5.758,-2.564,4.523,-2.597,-2.076
1011.0,2.992,7.268,-3.429,4.388,-2.293,-1.857
1015.0,2.992,7.268,-3.429,4.388,-2.293,-1.857
1018.0,2.992,7.268,-3.429,4.388,-2.293,-1.857
1022.0,3.6,8.959,-4.241,4.249,-1.943,-1.606
1026.0,3.6,8.959,-4.241,4.249,-1.943,-1.606
1030.0,4.242,10.615,-4.834,4.145,-1.549,-1.309
1034.0,4.242,10.615,-4.834,4.145,-1.549,-1.309
1038.0,4.242,10.615,-4.834,4.145,-1.549,-1.309
1042.0,4.729,12.197,-5.3,4.097,-1.131,-0.968
1046.0,4.729,12.197,-5.3,4.097,-1.131,-0.968
1050.0,5.154,13.86,-5.718,4.13,-0.691,-0.581
1054.0,5.154,13.86,-5.718,4.13,-0.691,-0.581
1058.0,5.154,13.86,-5.718,4.13,-0.691,-0.581
1062.0,5.574,15.572,-6.274,4.256,-0.236,-0.138
1066.0,5.574,15.572,-6.274,4.256,-0.236,-0.138
1070.0,6.339,17.32,-7.301,4.433,0.253,0.402
1074.0,6.339,17.32,-7.301,4.433,0.253,0.402
1078.0,6.339,17.32,-7.301,4.433,0.253,0.402
1082.0,7.275,18.71,-8.489,4.601,0.818,1.022
1085.0,7.275,18.71,-8.489,4.601,0.818,1.022
1089.0,8.238,19.566,-9.851,4.692,1.464,1.66
1093.0,8.238,19.566,-9.851,4.692,1.464,1.66
1097.0,8.238,19.566,-9.851,4.692,1.464,1.66
1101.0,9.169,19.596,-11.302,4.631,2.186,2.287
1105.0,9.169,19.596,-11.302,4.631,2.186,2.287
1108.0,9.788,19.596,-11.963,4.631,3.011,2.899
1112.0,9.788,19.596,-11.963,4.344,3.011,2.899
1116.0,9.788,19.596,-11.963,4.344,3.011,2.899
1120.0,9.825,19.596,-10.97,3.882,3.764,3.482
1124.0,9.825,19.596,-10.97,3.882,3.764,3.482
1128.0,8.776,19.596,-8.916,3.882,3.764,3.482
1132.0,8.776,19.596,-8.916,3.266,4.391,4.019
1136.0,8.776,19.596,-8.916,3.266,4.391,4.019
1139.0,6.47,19.065,-6.409,2.567,4.876,4.514
1143.0,6.47,19.065,-6.409,2.567,4.876,4.514
1147.0,6.47,19.065,-6.409,2.567,4.876,4.514
1151.0,3.254,16.757,-4.211,1.879,5.015,4.914
1155.0,3.254,16.757,-4.211,1.879,5.015,4.914
1159.0,-0.249,14.268,-2.46,1.22,5.015,5.013
1162.0,-0.249,14.268,-2.46,1.22,5.015,5.013
1166.0,-0.249,14.268,-2.46,1.22,5.015,5.013
1170.0,-3.882,12.133,-1.124,0.538,5.015,5.013
1174.0,-3.882,12.133,-1.124,0.538,5.015,5.013
1178.0,-7.816,10.437,0.485,-0.277,5.015,5.013
1182.0,-7.816,10.437,0.485,-0.277,5.015,5.013
1186.0,-7.816,10.437,0.485,-0.277,5.015,5.013
1190.0,-11.973,7.906,2.21,-1.322,4.918,5.013
1194.0,-11.973,7.906,2.21,-1.322,4.918,5.013
1198.0,-18.261,2.553,3.761,-2.506,4.409,5.013
1201.0,-18.261,2.553,3.761,-2.506,4.409,5.013
1205.0,-18.261,2.553,3.761,-2.506,4.409,5.013
1209.0,-19.6,-3.598,4.848,-3.576,3.584,4.836
1213.0,-19.6,-3.598,4.848,-3.576,3.584,4.836
1217.0,-19.49,-6.497,7.421,-4.417,2.458,3.867
1221.0,-19.49,-6.497,7.421,-4.417,2.458,3.867
1225.0,-19.49,-6.497,7.421,-4.417,2.458,3.867
1229.0,-15.507,-7.847,8.603,-4.945,1.236,2.591
1233.0,-15.507,-7.847,8.603,-4.945,1.236,2.591
1237.0,-12.175,-9.738,7.768,-5.013,0.155,1.278
1241.0,-12.175,-9.738,7.768,-5.013,0.155,1.278
1245.0,-12.175,-9.738,7.768,-5.013,0.155,1.278
1249.0,-10.259,-12.327,7.122,-5.013,-0.751,-0.016
1253.0,-10.259,-12.327,7.122,-5.013,-0.751,-0.016
1258.0,-8.057,-14.514,6.903,-4.958,-1.465,-1.163
1262.0,-8.057,-14.514,6.903,-4.958,-1.465,-1.163
1266.0,-5.474,-15.267,6.283,-4.958,-1.465,-1.163
1270.0,-5.474,-15.267,6.283,-4.233,-1.943,-2.011
1274.0,-5.474,-15.267,6.283,-4.233,-1.943,-2.011
1279.0,-3.185,-14.877,5.901,-2.881,-2.216,-2.519
1283.0,-3.185,-14.877,5.901,-2.881,-2.216,-2.519
1287.0,-1.446,-13.569,5.459,-1.411,-2.407,-2.782
1291.0,-1.446,-13.569,5.459,-1.411,-2.407,-2.782
1295.0,-1.446,-13.569,4.735,-1.411,-2.407,-2.782
1299.0,-0.326,-11.402,4.735,-0.053,-2.588,-2.939
1304.0,-0.326,-11.402,4.735,-0.053,-2.588,-2.939
1308.0,0.297,-8.765,3.949,1.047,-2.775,-3.073
1312.0,0.297,-8.765,3.949,1.047,-2.775,-3.073
1316.0,0.613,-5.974,3.243,1.047,-2.775,-3.225
1319.0,0.613,-5.974,3.243,1.839,-2.966,-3.225
1323.0,0.613,-5.974,3.243,1.839,-2.966,-3.225
1327.0,1.01,-3.24,2.608,2.344,-3.155,-3.4
1331.0,1.01,-3.24,2.608,2.344,-3.155,-3.4
1335.0,1.522,-0.708,2.018,2.344,-3.155,-3.4
1339.0,1.522,-0.708,2.018,2.609,-3.322,-3.592
1343.0,1.522,-0.708,2.018,2.609,-3.322,-3.592
1347.0,2.278,1.606,1.397,2.679,-3.462,-3.785
1351.0,2.278,1.606,1.397,2.679,-3.462,-3.785
1354.0,2.278,1.606,0.85,2.679,-3.462,-3.785
1358.0,3.387,3.717,0.85,2.614,-3.56,-3.95
1362.0,3.387,3.717,0.85,2.614,-3.56,-3.95
1366.0,4.915,5.64,0.096,2.476,-3.603,-4.059
1370.0,4.915,5.64,0.096,2.476,-3.603,-4.059
1374.0,4.915,5.64,0.096,2.476,-3.603,-4.059
1377.0,6.695,7.283,-0.741,2.317,-3.591,-4.108
1381.0,6.695,7.283,-0.741,2.317,-3.591,-4.108
1385.0,8.382,8.684,-1.689,2.158,-3.545,-4.119
1389.0,8.382,8.684,-1.689,2.158,-3.545,-4.119
1393.0,8.382,8.684,-1.689,2.158,-3.545,-4.119
1397.0,9.477,10.051,-2.643,1.985,-3.464,-4.104
1401.0,9.477,10.051,-2.643,1.985,-3.464,-4.104
1405.0,9.832,11.571,-3.744,1.773,-3.35,-4.037
1409.0,9.832,11.571,-3.744,1.773,-3.35,-4.037
1413.0,9.832,11.571,-3.744,1.773,-3.35,-4.037
1417.0,9.581,13.263,-4.767,1.547,-3.221,-3.908
1421.0,9.581,13.263,-4.767,1.547,-3.221,-3.908
1425.0,9.142,15.179,-5.873,1.318,-3.089,-3.724
1429.0,9.142,15.179,-5.873,1.318,-3.089,-3.724
1433.0,9.142,15.179,-5.873,1.318,-3.089,-3.724
1437.0,9.283,17.526,-7.588,1.084,-2.938,-3.465
1441.0,9.283,17.526,-7.588,1.084,-2.938,-3.465
1445.0,9.811,19.462,-9.89,0.816,-2.713,-3.104
1449.0,9.811,19.462,-9.89,0.816,-2.713,-3.104
1453.0,9.811,19.462,-9.89,0.816,-2.713,-3.104
1457.0,10.766,19.596,-11.696,0.492,-2.348,-2.678
1461.0,10.766,19.596,-11.696,0.492,-2.348,-2.678
1465.0,11.591,19.596,-12.251,0.147,-1.861,-2.276
1469.0,11.591,19.596,-12.251,0.147,-1.861,-2.276
1473.0,11.559,19.596,-12.004,0.147,-1.861,-2.276
1478.0,11.559,19.596,-12.004,-0.112,-1.298,-1.864
1482.0,11.559,19.596,-12.004,-0.112,-1.298,-1.864
1486.0,10.58,19.596,-11.398,-0.226,-0.702,-1.378
1490.0,10.58,19.596,-11.398,-0.226,-0.702,-1.378
1495.0,9.339,19.596,-10.556,-0.174,-0.117,-0.841
1499.0,9.339,19.596,-10.556,-0.174,-0.117,-0.841
1503.0,8.349,19.596,-9.763,-0.174,-0.117,-0.841
1507.0,8.349,19.596,-9.763,0.022,0.427,-0.293
1511.0,8.349,19.596,-9.763,0.022,0.427,-0.293
1515.0,7.897,19.596,-9.266,0.325,0.928,0.255
1519.0,7.897,19.596,-9.266,0.325,0.928,0.255
1522.0,7.897,19.596,-10.033,0.325,0.928,0.255
1526.0,8.175,19.596,-10.033,0.696,1.397,0.808
1530.0,8.175,19.596,-10.033,0.696,1.397,0.808
1534.0,9.467,19.596,-12.208,1.05,1.902,1.394
1538.0,9.467,19.596,-12.208,1.05,1.902,1.394
1542.0,9.467,19.596,-13.956,1.05,1.902,1.394
1546.0,11.058,19.596,-13.956,1.309,2.524,1.993
1550.0,11.058,19.596,-13.956,1.309,2.524,1.993
1554.0,12.604,19.596,-15.293,1.421,3.229,2.597
1558.0,12.604,19.596,-15.293,1.421,3.229,2.597
1562.0,12.604,19.596,-15.622,1.421,3.229,2.597
1566.0,13.964,19.596,-15.622,1.367,3.986,3.215
1570.0,13.964,19.596,-15.622,1.367,3.986,3.215
1574.0,14.381,19.596,-14.627,1.194,4.71,3.828
1578.0,14.381,19.596,-14.627,1.194,4.71,3.828
1582.0,13.268,19.596,-12.456,1.194,4.71,3.828
1586.0,13.268,19.596,-12.456,0.993,5.009,4.424
1590.0,13.268,19.596,-12.456,0.993,5.009,4.424
1594.0,10.883,19.567,-10.211,0.808,5.015,4.909
1598.0,10.883,19.567,-10.211,0.808,5.015,4.909
1602.0,7.664,18.089,-7.468,0.808,5.015,5.013
1606.0,7.664,18.089,-7.468,0.638,5.015,5.013
1609.0,7.664,18.089,-7.468,0.638,5.015,5.013
1613.0,4.016,15.162,-4.631,0.459,5.015,5.013
1617.0,4.016,15.162,-4.631,0.459,5.015,5.013
1621.0,4.016,15.162,-2.033,0.459,5.015,5.013
1625.0,0.246,12.289,-2.033,0.248,5.015,5.013
1629.0,0.246,12.289,-2.033,0.248,5.015,5.013
1632.0,-3.115,10.123,-0.518,-0.046,5.015,5.013
1636.0,-3.115,10.123,-0.518,-0.046,5.015,5.013
1640.0,-3.115,10.123,-0.518,-0.046,5.015,5.013
1644.0,-6.267,8.774,-0.764,-0.486,5.015,5.013
1648.0,-6.267,8.774,-0.764,-0.486,5.015,5.013
1652.0,-10.171,8.222,-2.406,-1.153,5.015,5.013
1656.0,-10.171,8.222,-2.406,-1.153,5.015,5.013
1660.0,-10.171,8.222,-2.406,-1.153,5.015,5.013
1664.0,-16.416,7.759,-3.603,-2.058,5.015,5.013
1668.0,-16.416,7.759,-3.603,-2.058,5.015,5.013
1672.0,-19.592,5.798,-1.68,-3.075,5.015,5.013
1676.0,-19.592,5.798,-1.68,-3.075,5.015,5.013
1680.0,-19.592,5.798,-1.68,-3.075,5.015,5.013
1684.0,-19.6,-0.246,2.078,-3.874,5.015,5.013
1688.0,-19.6,-0.246,2.078,-3.874,5.015,5.013
1692.0,-19.6,-4.752,6.941,-4.099,4.53,5.007
1696.0,-19.6,-4.752,6.941,-4.099,4.53,5.007
1700.0,-19.6,-4.752,5.26,-4.099,4.53,5.007
1704.0,-17.822,-8.797,5.26,-4.081,2.467,4.588
1708.0,-17.822,-8.797,5.26,-4.081,2.467,4.588
1712.0,-6.377,-11.267,2.658,-4.056,0.923,3.103
1716.0,-6.377,-11.267,2.658,-4.056,0.923,3.103
1720.0,-0.368,-9.708,3.923,-4.056,0.923,3.103
1724.0,-0.368,-9.708,3.923,-3.94,0.171,1.13
1728.0,-0.368,-9.708,3.923,-3.94,0.171,1.13
1732.0,1.757,-8.156,5.847,-3.745,-0.556,-0.39
1736.0,1.757,-8.156,5.847,-3.745,-0.556,-0.39
1740.0,4.165,-8.532,5.992,-3.745,-0.556,-0.39
1744.0,4.165,-8.532,5.992,-3.376,-1.251,-1.343
1748.0,4.165,-8.532,5.992,-3.376,-1.251,-1.343
1752.0,6.695,-8.493,5.272,-2.805,-1.608,-2.003
1756.0,6.695,-8.493,5.272,-2.805,-1.608,-2.003
1760.0,8.597,-8.179,5.234,-2.805,-1.608,-2.386
1764.0,8.597,-8.179,5.234,-2.124,-1.622,-2.386
1768.0,8.597,-8.179,5.234,-2.124,-1.622,-2.386
1772.0,8.922,-7.576,5.07,-1.466,-1.533,-2.532
1776.0,8.922,-7.576,5.07,-1.466,-1.533,-2.532
1780.0,7.92,-6.319,4.267,-1.466,-1.42,-2.551
1784.0,7.92,-6.319,4.267,-0.913,-1.42,-2.551
1788.0,7.92,-6.319,4.267,-0.913,-1.42,-2.551
1792.0,7.399,-4.945,3.466,-0.475,-1.261,-2.499
1796.0,7.399,-4.945,3.466,-0.475,-1.261,-2.499
1800.0,8.033,-3.705,3.498,-0.12,-1.047,-2.424
1804.0,8.033,-3.705,3.498,-0.12,-1.047,-2.424
1808.0,8.033,-3.705,3.498,-0.12,-1.047,-2.424
1812.0,9.008,-2.539,4.192,0.197,-0.817,-2.346
1816.0,9.008,-2.539,4.192,0.197,-0.817,-2.346
1819.0,9.685,-1.436,4.992,0.503,-0.622,-2.263
1823.0,9.685,-1.436,4.992,0.503,-0.622,-2.263
1827.0,9.685,-1.436,4.992,0.503,-0.622,-2.263
1831.0,10.041,-0.263,5.449,0.806,-0.479,-2.152
1835.0,10.041,-0.263,5.449,0.806,-0.479,-2.152
1839.0,10.455,0.806,5.537,1.102,-0.39,-1.989
1843.0,10.455,0.806,5.537,1.102,-0.39,-1.989
1847.0,10.455,0.806,5.537,1.102,-0.39,-1.989
1851.0,10.972,1.832,5.282,1.383,-0.33,-1.791
1855.0,10.972,1.832,5.282,1.383,-0.33,-1.791
1859.0,11.229,2.709,4.883,1.383,-0.277,-1.567
1863.0,11.229,2.709,4.883,1.645,-0.277,-1.567
1866.0,11.229,2.709,4.883,1.645,-0.277,-1.567
1870.0,10.961,3.376,4.525,1.862,-0.243,-1.332
1874.0,10.961,3.376,4.525,1.862,-0.243,-1.332
1878.0,10.277,3.843,4.134,1.862,-0.243,-1.11
1882.0,10.277,3.843,4.134,2.011,-0.244,-1.11
1886.0,10.277,3.843,4.134,2.011,-0.244,-1.11
1890.0,9.516,4.323,3.623,2.082,-0.264,-0.924
1894.0,9.516,4.323,3.623,2.082,-0.264,-0.924
1898.0,9.516,4.737,3.219,2.082,-0.264,-0.924
1901.0,8.914,4.737,3.219,2.062,-0.282,-0.77
1905.0,8.914,4.737,3.219,2.062,-0.282,-0.77
1909.0,8.69,5.128,2.885,1.951,-0.295,-0.629
1913.0,8.69,5.128,2.885,1.951,-0.295,-0.629
1917.0,8.69,5.128,2.885,1.951,-0.295,-0.629
1920.0,8.64,5.499,2.772,1.77,-0.291,-0.5
1924.0,8.64,5.499,2.772,1.77,-0.291,-0.5
1928.0,8.654,5.861,2.728,1.529,-0.267,-0.392
1932.0,8.654,5.861,2.728,1.529,-0.267,-0.392
1936.0,8.654,5.861,2.728,1.529,-0.267,-0.392
1940.0,8.682,6.105,2.789,1.238,-0.224,-0.323
1943.0,8.682,6.105,2.789,1.238,-0.224,-0.323
1947.0,8.566,6.244,2.984,1.238,-0.224,-0.323
1951.0,8.566,6.244,2.984,0.91,-0.173,-0.308
1955.0,8.566,6.244,2.984,0.91,-0.173,-0.308
1959.0,8.292,6.315,3.144,0.569,-0.131,-0.336
1962.0,8.292,6.315,3.144,0.569,-0.131,-0.336
1966.0,8.292,6.315,3.144,0.569,-0.131,-0.336
1970.0,7.814,6.258,3.259,0.235,-0.094,-0.386
1974.0,7.814,6.258,3.259,0.235,-0.094,-0.386
1978.0,7.37,6.083,3.358,-0.069,-0.077,-0.445
1982.0,7.37,6.083,3.358,-0.069,-0.077,-0.445
1986.0,7.37,6.083,3.358,-0.069,-0.077,-0.445
1989.0,7.015,5.897,3.414,-0.322,-0.078,-0.514
1993.0,7.015,5.897,3.414,-0.322,-0.078,-0.514
1997.0,6.944,5.73,3.312,-0.516,-0.092,-0.573
2001.0,6.944,5.73,3.312,-0.516,-0.092,-0.573
2005.0,6.944,5.73,3.312,-0.516,-0.092,-0.573
2009.0,7.2,5.52,3.272,-0.647,-0.1,-0.601
2013.0,7.2,5.52,3.272,-0.647,-0.1,-0.601
2017.0,7.628,5.281,3.214,-0.726,-0.099,-0.597
2021.0,7.628,5.281,3.214,-0.726,-0.099,-0.597
2025.0,7.628,5.281,3.214,-0.726,-0.099,-0.597
2029.0,8.056,5.026,3.159,-0.757,-0.096,-0.582
2032.0,8.056,5.026,3.159,-0.757,-0.096,-0.582
2036.0,8.349,4.82,3.197,-0.757,-0.085,-0.568
2040.0,8.349,4.82,3.197,-0.747,-0.085,-0.568
2044.0,8.349,4.82,3.197,-0.747,-0.085,-0.568
2048.0,8.447,4.728,3.35,-0.706,-0.071,-0.542
2052.0,8.447,4.728,3.35,-0.706,-0.071,-0.542
2056.0,8.411,4.735,3.519,-0.706,-0.071,-0.486
2060.0,8.411,4.735,3.519,-0.641,-0.066,-0.486
2064.0,8.411,4.735,3.519,-0.641,-0.066,-0.486
2068.0,8.407,4.742,3.64,-0.552,-0.072,-0.397
2072.0,8.407,4.742,3.64,-0.552,-0.072,-0.397
2075.0,8.387,4.689,3.751,-0.552,-0.072,-0.397
2079.0,8.387,4.689,3.751,-0.453,-0.081,-0.294
2083.0,8.387,4.689,3.751,-0.453,-0.081,-0.294
2087.0,8.351,4.622,3.72,-0.35,-0.095,-0.202
2091.0,8.351,4.622,3.72,-0.35,-0.095,-0.202
2095.0,8.351,4.602,3.643,-0.35,-0.095,-0.202
2099.0,8.302,4.602,3.643,-0.255,-0.104,-0.129
2103.0,8.302,4.602,3.643,-0.255,-0.104,-0.129
2107.0,8.278,4.574,3.601,-0.175,-0.106,-0.08
2111.0,8.278,4.574,3.601,-0.175,-0.106,-0.08
2114.0,8.278,4.574,3.572,-0.175,-0.106,-0.08
2118.0,8.192,4.545,3.572,-0.116,-0.096,-0.059
2122.0,8.192,4.545,3.572,-0.116,-0.096,-0.059
2126.0,8.038,4.513,3.581,-0.077,-0.085,-0.061
2130.0,8.038,4.513,3.581,-0.077,-0.085,-0.061
2134.0,8.038,4.513,3.581,-0.077,-0.085,-0.061
2138.0,7.826,4.556,3.581,-0.057,-0.072,-0.082
2142.0,7.826,4.556,3.581,-0.057,-0.072,-0.082
2146.0,7.631,4.611,3.605,-0.053,-0.055,-0.104
2150.0,7.631,4.611,3.605,-0.053,-0.055,-0.104
2154.0,7.631,4.611,3.605,-0.053,-0.055,-0.104
2157.0,7.548,4.576,3.641,-0.061,-0.039,-0.12
2161.0,7.548,4.576,3.641,-0.061,-0.039,-0.12
2165.0,7.609,4.493,3.616,-0.07,-0.025,-0.141
2169.0,7.609,4.493,3.616,-0.07,-0.025,-0.141
2173.0,7.609,4.493,3.616,-0.07,-0.025,-0.141
2177.0,7.832,4.383,3.639,-0.076,-0.012,-0.166
2181.0,7.832,4.383,3.639,-0.076,-0.012,-0.166
2185.0,7.965,4.287,3.657,-0.073,0.002,-0.194
2189.0,7.965,4.287,3.657,-0.073,0.002,-0.194
2192.0,7.965,4.287,3.657,-0.073,0.002,-0.194
2196.0,7.938,4.178,3.683,-0.061,0.02,-0.219
2200.0,7.938,4.178,3.683,-0.061,0.02,-0.219
2204.0,7.698,4.051,3.701,-0.061,0.02,-0.241
2208.0,7.698,4.051,3.701,-0.035,0.034,-0.241
2212.0,7.698,4.051,3.701,-0.035,0.034,-0.241
2215.0,7.385,4.018,3.727,0.006,0.034,-0.263
2219.0,7.385,4.018,3.727,0.006,0.034,-0.263
2223.0,7.385,4.018,3.727,0.006,0.034,-0.263
2227.0,7.156,4.079,3.811,0.059,0.013,-0.287
2230.0,7.156,4.079,3.811,0.059,0.013,-0.287
2234.0,7.052,4.225,3.907,0.122,-0.024,-0.307
2238.0,7.052,4.225,3.907,0.122,-0.024,-0.307
2242.0,7.052,4.225,3.907,0.122,-0.024,-0.307
2245.0,7.088,4.373,3.979,0.188,-0.075,-0.307
2249.0,7.088,4.373,3.979,0.188,-0.075,-0.307
2253.0,7.165,4.488,3.884,0.188,-0.075,-0.307
2257.0,7.165,4.488,3.884,0.252,-0.132,-0.295
2261.0,7.165,4.488,3.884,0.252,-0.132,-0.295
2265.0,7.304,4.604,3.673,0.309,-0.173,-0.281
2268.0,7.304,4.604,3.673,0.309,-0.173,-0.281
2272.0,7.304,4.604,3.673,0.309,-0.173,-0.281
2276.0,7.455,4.689,3.545,0.35,-0.19,-0.276
2280.0,7.455,4.689,3.545,0.35,-0.19,-0.276
2284.0,7.56,4.789,3.413,0.369,-0.191,-0.279
2287.0,7.56,4.789,3.413,0.369,-0.191,-0.279
2291.0,7.56,4.789,3.413,0.369,-0.191,-0.279
2295.0,7.665,4.898,3.263,0.366,-0.183,-0.282
2299.0,7.665,4.898,3.263,0.366,-0.183,-0.282
2303.0,7.698,5.034,3.227,0.366,-0.183,-0.282
2307.0,7.698,5.034,3.227,0.347,-0.164,-0.282
2310.0,7.698,5.034,3.227,0.347,-0.164,-0.282
2314.0,7.601,5.147,3.252,0.315,-0.146,-0.274
2318.0,7.601,5.147,3.252,0.315,-0.146,-0.274
2322.0,7.601,5.147,3.207,0.315,-0.146,-0.274
2326.0,7.456,5.114,3.207,0.276,-0.137,-0.265
2330.0,7.456,5.114,3.207,0.276,-0.137,-0.265
2333.0,7.271,5.083,3.145,0.224,-0.13,-0.264
2337.0,7.271,5.083,3.145,0.224,-0.13,-0.264
2341.0,7.271,5.083,3.145,0.224,-0.13,-0.264
2345.0,7.085,5.024,3.084,0.167,-0.122,-0.273
2349.0,7.085,5.024,3.084,0.167,-0.122,-0.273
2352.0,6.982,4.95,2.852,0.107,-0.113,-0.294
2356.0,6.982,4.95,2.852,0.107,-0.113,-0.294
2360.0,6.982,4.95,2.852,0.107,-0.113,-0.294
2364.0,7.111,4.973,2.615,0.052,-0.1,-0.328
2368.0,7.111,4.973,2.615,0.052,-0.1,-0.328
2372.0,7.308,4.973,2.508,0.052,-0.1,-0.328
2375.0,7.308,4.973,2.508,0.001,-0.077,-0.373
2379.0,7.308,4.973,2.508,0.001,-0.077,-0.373
2383.0,7.415,4.962,2.512,-0.045,-0.054,-0.429
2387.0,7.415,4.962,2.512,-0.045,-0.054,-0.429
2391.0,7.415,4.962,2.512,-0.045,-0.054,-0.429
2395.0,7.265,4.944,2.552,-0.079,-0.029,-0.492
2399.0,7.265,4.944,2.552,-0.079,-0.029,-0.492
2403.0,6.909,4.852,2.662,-0.095,-0.018,-0.546
2406.0,6.909,4.852,2.662,-0.095,-0.018,-0.546
2410.0,6.909,4.852,2.662,-0.095,-0.018,-0.546
2414.0,6.448,4.644,2.658,-0.099,-0.026,-0.593
2418.0,6.448,4.644,2.658,-0.099,-0.026,-0.593
2422.0,5.963,4.311,2.542,-0.096,-0.046,-0.646
2426.0,5.963,4.311,2.542,-0.096,-0.046,-0.646
2430.0,5.963,4.311,2.542,-0.096,-0.046,-0.646
2434.0,5.55,3.863,2.299,-0.094,-0.076,-0.724
2438.0,5.55,3.863,2.299,-0.094,-0.076,-0.724
2442.0,5.121,3.351,2.075,-0.099,-0.111,-0.842
2445.0,5.121,3.351,2.075,-0.099,-0.111,-0.842
2449.0,5.121,3.351,2.075,-0.099,-0.111,-0.842
2453.0,4.668,2.928,1.805,-0.124,-0.155,-0.999
2457.0,4.668,2.928,1.805,-0.124,-0.155,-0.999
2461.0,4.159,2.585,1.519,-0.168,-0.2,-1.181
2465.0,4.159,2.585,1.519,-0.168,-0.2,-1.181
2469.0,4.159,2.585,1.519,-0.168,-0.2,-1.181
2473.0,3.73,2.319,1.253,-0.227,-0.244,-1.383
2477.0,3.73,2.319,1.253,-0.227,-0.244,-1.383
2481.0,3.48,2.119,1.007,-0.293,-0.281,-1.606
2485.0,3.48,2.119,1.007,-0.293,-0.281,-1.606
2488.0,3.48,2.119,1.007,-0.293,-0.281,-1.606
2492.0,3.342,2.016,0.907,-0.361,-0.3,-1.857
2496.0,3.342,2.016,0.907,-0.361,-0.3,-1.857
2500.0,3.224,1.978,0.883,-0.361,-0.3,-2.111
2504.0,3.224,1.978,0.883,-0.427,-0.315,-2.111
2508.0,3.224,1.978,0.883,-0.427,-0.315,-2.111
2512.0,3.124,1.928,0.829,-0.488,-0.322,-2.353
2516.0,3.124,1.928,0.829,-0.488,-0.322,-2.353
2520.0,2.991,1.873,0.817,-0.488,-0.322,-2.353
2524.0,2.991,1.873,0.817,-0.539,-0.307,-2.577
2528.0,2.991,1.873,0.817,-0.539,-0.307,-2.577
2531.0,2.837,1.78,0.783,-0.57,-0.274,-2.784
2535.0,2.837,1.78,0.783,-0.57,-0.274,-2.784
2539.0,2.837,1.618,0.684,-0.57,-0.274,-2.784
2543.0,2.75,1.618,0.684,-0.581,-0.22,-2.979
2547.0,2.75,1.618,0.684,-0.581,-0.22,-2.979
2551.0,2.605,1.55,0.585,-0.567,-0.129,-3.175
2555.0,2.605,1.55,0.585,-0.567,-0.129,-3.175
2559.0,2.605,1.55,0.518,-0.567,-0.129,-3.175
2563.0,2.382,1.485,0.518,-0.531,-0.021,-3.351
2567.0,2.382,1.485,0.518,-0.531,-0.021,-3.351
2570.0,2.206,1.363,0.4,-0.481,0.084,-3.508
2574.0,2.206,1.363,0.4,-0.481,0.084,-3.508
2578.0,2.206,1.363,0.4,-0.481,0.084,-3.508
2582.0,2.003,1.256,0.303,-0.425,0.196,-3.669
2586.0,2.003,1.256,0.303,-0.425,0.196,-3.669
2590.0,1.655,1.184,0.227,-0.376,0.313,-3.837
2593.0,1.655,1.184,0.227,-0.376,0.313,-3.837
2597.0,1.655,1.184,0.227,-0.376,0.313,-3.837
2601.0,1.266,1.167,0.102,-0.349,0.424,-3.993
2605.0,1.266,1.167,0.102,-0.349,0.424,-3.993
2609.0,0.909,1.153,-0.038,-0.349,0.424,-4.143
2613.0,0.909,1.153,-0.038,-0.35,0.548,-4.143
2616.0,0.909,1.153,-0.038,-0.35,0.548,-4.143
2620.0,0.526,1.206,-0.065,-0.369,0.695,-4.311
2624.0,0.526,1.206,-0.065,-0.369,0.695,-4.311
2628.0,0.174,1.306,-0.038,-0.369,0.695,-4.311
2632.0,0.174,1.306,-0.038,-0.4,0.855,-4.491
2636.0,0.174,1.306,-0.038,-0.4,0.855,-4.491
2640.0,-0.254,1.492,0.073,-0.439,1.022,-4.679
2644.0,-0.254,1.492,0.073,-0.439,1.022,-4.679
2648.0,-0.254,1.741,0.143,-0.439,1.022,-4.679
2652.0,-0.802,1.741,0.143,-0.499,1.179,-4.832
2656.0,-0.802,1.741,0.143,-0.499,1.179,-4.832
2659.0,-1.378,2.018,0.011,-0.594,1.315,-4.916
2663.0,-1.378,2.018,0.011,-0.594,1.315,-4.916
2667.0,-1.378,2.018,-0.121,-0.594,1.315,-4.916
2671.0,-1.626,2.14,-0.121,-0.738,1.443,-4.933
2675.0,-1.626,2.14,-0.121,-0.738,1.443,-4.933
2679.0,-1.701,2.16,-0.284,-0.94,1.575,-4.896
2683.0,-1.701,2.16,-0.284,-0.94,1.575,-4.896
2687.0,-1.701,1.982,-0.285,-0.94,1.575,-4.896
2691.0,-1.501,1.982,-0.285,-1.201,1.725,-4.845
2695.0,-1.501,1.982,-0.285,-1.201,1.725,-4.845
2699.0,-1.277,1.741,-0.038,-1.499,1.917,-4.86
2703.0,-1.277,1.741,-0.038,-1.499,1.917,-4.86
2707.0,-1.372,1.544,0.276,-1.499,1.917,-4.86
2711.0,-1.372,1.544,0.276,-1.811,2.154,-4.954
2715.0,-1.372,1.544,0.276,-1.811,2.154,-4.954
2719.0,-1.901,1.469,0.64,-2.14,2.418,-4.995
2723.0,-1.901,1.469,0.64,-2.14,2.418,-4.995
2727.0,-1.901,1.457,1.051,-2.14,2.418,-4.995
2731.0,-2.702,1.457,1.051,-2.499,2.668,-4.995
2735.0,-2.702,1.457,1.051,-2.499,2.668,-4.995
2738.0,-3.384,1.345,1.503,-2.901,2.876,-4.995
2742.0,-3.384,1.345,1.503,-2.901,2.876,-4.995
2746.0,-3.384,1.345,2.009,-2.901,2.876,-4.995
2750.0,-3.751,1.043,2.009,-3.339,3.052,-4.995
2754.0,-3.751,1.043,2.009,-3.339,3.052,-4.995
2758.0,-4.183,0.759,2.623,-3.775,3.255,-4.995
2762.0,-4.183,0.759,2.623,-3.775,3.255,-4.995
2766.0,-4.183,0.759,2.623,-3.775,3.255,-4.995
2770.0,-5.38,0.448,3.635,-4.162,3.494,-4.994
2774.0,-5.38,0.448,3.635,-4.162,3.494,-4.994
2778.0,-6.997,0.04,4.879,-4.466,3.681,-4.973
2781.0,-6.997,0.04,4.879,-4.466,3.681,-4.973
2785.0,-6.997,0.04,4.879,-4.466,3.681,-4.973
2789.0,-8.626,0.084,5.295,-4.641,3.809,-4.906
2793.0,-8.626,0.084,5.295,-4.641,3.809,-4.906
2797.0,-10.175,0.553,5.159,-4.684,3.963,-4.765
2801.0,-10.175,0.553,5.159,-4.684,3.963,-4.765
2805.0,-10.175,0.553,5.159,-4.684,3.963,-4.765
2809.0,-10.979,1.152,5.289,-4.634,4.145,-4.499
2813.0,-10.979,1.152,5.289,-4.634,4.145,-4.499
2817.0,-11.038,1.796,5.642,-4.522,4.302,-4.103
2821.0,-11.038,1.796,5.642,-4.522,4.302,-4.103
2825.0,-11.038,1.796,5.642,-4.522,4.302,-4.103
2829.0,-11.429,2.103,5.827,-4.375,4.419,-3.587
2833.0,-11.429,2.103,5.827,-4.375,4.419,-3.587
2837.0,-12.672,1.941,5.668,-4.213,4.515,-3.0
2841.0,-12.672,1.941,5.668,-4.213,4.515,-3.0
2845.0,-12.672,1.941,5.264,-4.213,4.515,-3.0
2849.0,-14.118,1.782,5.264,-4.041,4.615,-2.418
2853.0,-14.118,1.782,5.264,-4.041,4.615,-2.418
2857.0,-15.519,1.659,5.025,-3.899,4.728,-1.856
2861.0,-15.519,1.659,5.025,-3.899,4.728,-1.856
2865.0,-15.519,1.518,4.821,-3.899,4.728,-1.856
2869.0,-16.786,1.518,4.821,-3.836,4.813,-1.328
2873.0,-16.786,1.518,4.821,-3.836,4.813,-1.328
2877.0,-17.853,1.565,4.432,-3.872,4.861,-0.837
2881.0,-17.853,1.565,4.432,-3.872,4.861,-0.837
2885.0,-18.733,1.777,3.873,-3.872,4.861,-0.837
2889.0,-18.733,1.777,3.873,-4.015,4.907,-0.347
2893.0,-18.733,1.777,3.873,-4.015,4.907,-0.347
2897.0,-19.516,1.969,3.196,-4.281,4.98,0.18
2901.0,-19.516,1.969,3.196,-4.281,4.98,0.18
2905.0,-19.6,2.075,2.558,-4.281,4.98,0.18
2909.0,-19.6,2.075,2.558,-4.669,5.015,0.757
2912.0,-19.6,2.075,2.558,-4.669,5.015,0.757
2916.0,-19.6,1.967,2.009,-4.981,5.015,1.356
2920.0,-19.6,1.967,2.009,-4.981,5.015,1.356
2924.0,-19.6,1.936,1.717,-4.981,5.015,1.356
2928.0,-19.6,1.936,1.717,-5.013,5.015,1.893
2932.0,-19.6,1.936,1.717,-5.013,5.015,1.893
2936.0,-19.6,2.143,1.842,-5.013,5.015,2.295
2940.0,-19.6,2.143,1.842,-5.013,5.015,2.295
2944.0,-19.6,2.143,2.166,-5.013,5.015,2.295
2948.0,-19.6,2.145,2.166,-5.013,5.015,2.531
2952.0,-19.6,2.145,2.166,-5.013,5.015,2.531
2955.0,-19.6,1.715,2.447,-5.013,5.015,2.612
2959.0,-19.6,1.715,2.447,-5.013,5.015,2.612
2963.0,-19.6,1.715,2.447,-5.013,5.015,2.612
2967.0,-19.6,1.209,2.185,-5.013,5.015,2.551
2971.0,-19.6,1.209,2.185,-5.013,5.015,2.551
2975.0,-19.6,1.179,1.417,-5.013,4.993,2.28
2979.0,-19.6,1.179,1.417,-5.013,4.993,2.28
2983.0,-19.6,1.179,1.417,-5.013,4.993,2.28
2987.0,-19.6,1.42,1.035,-5.013,4.777,1.788
2991.0,-19.6,1.42,1.035,-5.013,4.777,1.788
2995.0,-19.6,1.21,0.649,-5.013,4.429,1.14
2998.0,-19.6,1.21,0.649,-5.013,4.429,1.14
