deltaTime,Acc_X,Acc_Y,Acc_Z,Gyro_X,Gyro_Y,Gyro_Z
0.0,-8.344,-2.224,4.33,-0.279,-0.393,-0.219
3.0,-8.344,-2.224,4.33,-0.279,-0.393,-0.219
6.0,-8.344,-2.224,4.33,-0.279,-0.393,-0.219
9.0,-8.423,-2.255,4.511,-0.224,-0.371,-0.232
12.0,-8.423,-2.255,4.511,-0.224,-0.371,-0.232
15.0,-8.423,-2.255,4.511,-0.224,-0.371,-0.232
18.0,-8.426,-2.428,4.674,-0.163,-0.356,-0.234
21.0,-8.426,-2.428,4.674,-0.163,-0.356,-0.234
24.0,-8.426,-2.428,4.674,-0.163,-0.356,-0.234
27.0,-8.359,-2.499,4.679,-0.163,-0.356,-0.228
31.0,-8.359,-2.499,4.679,-0.077,-0.347,-0.228
34.0,-8.359,-2.499,4.679,-0.077,-0.347,-0.228
38.0,-8.507,-2.466,4.531,0.01,-0.328,-0.211
42.0,-8.507,-2.466,4.531,0.01,-0.328,-0.211
46.0,-8.507,-2.466,4.531,0.01,-0.328,-0.211
50.0,-8.688,-2.68,4.478,0.088,-0.312,-0.18
54.0,-8.688,-2.68,4.478,0.088,-0.312,-0.18
57.0,-8.545,-2.787,4.568,0.176,-0.283,-0.149
61.0,-8.545,-2.787,4.568,0.176,-0.283,-0.149
65.0,-8.545,-2.787,4.568,0.176,-0.283,-0.149
69.0,-8.479,-2.446,4.608,0.24,-0.236,-0.146
73.0,-8.479,-2.446,4.608,0.24,-0.236,-0.146
77.0,-8.735,-1.967,4.554,0.24,-0.236,-0.146
80.0,-8.735,-1.967,4.554,0.223,-0.204,-0.181
84.0,-8.735,-1.967,4.554,0.223,-0.204,-0.181
88.0,-9.003,-1.714,4.516,0.125,-0.186,-0.22
92.0,-9.003,-1.714,4.516,0.125,-0.186,-0.22
96.0,-9.003,-1.714,4.516,0.125,-0.186,-0.22
99.0,-8.98,-1.674,4.801,-0.015,-0.183,-0.258
103.0,-8.98,-1.674,4.801,-0.015,-0.183,-0.258
107.0,-8.743,-2.281,5.215,-0.114,-0.21,-0.282
111.0,-8.743,-2.281,5.215,-0.114,-0.21,-0.282
115.0,-8.743,-2.281,5.215,-0.114,-0.21,-0.282
119.0,-8.584,-2.603,5.276,-0.082,-0.265,-0.302
123.0,-8.584,-2.603,5.276,-0.082,-0.265,-0.302
127.0,-8.588,-2.919,5.045,0.026,-0.315,-0.298
131.0,-8.588,-2.919,5.045,0.026,-0.315,-0.298
135.0,-8.588,-2.919,5.045,0.026,-0.315,-0.298
139.0,-8.706,-2.777,4.692,0.158,-0.346,-0.27
143.0,-8.706,-2.777,4.692,0.158,-0.346,-0.27
147.0,-8.757,-2.521,4.382,0.23,-0.346,-0.251
151.0,-8.757,-2.521,4.382,0.23,-0.346,-0.251
155.0,-8.757,-2.521,4.382,0.23,-0.346,-0.251
159.0,-8.871,-2.445,4.322,0.221,-0.316,-0.239
162.0,-8.871,-2.445,4.322,0.221,-0.316,-0.239
166.0,-9.203,-2.422,4.513,0.17,-0.269,-0.236
170.0,-9.203,-2.422,4.513,0.17,-0.269,-0.236
174.0,-9.203,-2.422,4.513,0.17,-0.269,-0.236
178.0,-9.531,-2.59,4.769,0.095,-0.23,-0.239
182.0,-9.531,-2.59,4.769,0.095,-0.23,-0.239
186.0,-9.609,-3.261,5.034,0.051,-0.21,-0.218
190.0,-9.609,-3.261,5.034,0.051,-0.21,-0.218
194.0,-9.609,-3.261,5.034,0.051,-0.21,-0.218
198.0,-9.602,-3.873,5.322,0.112,-0.211,-0.197
202.0,-9.602,-3.873,5.322,0.112,-0.211,-0.197
205.0,-9.427,-4.113,5.436,0.259,-0.234,-0.214
209.0,-9.427,-4.113,5.436,0.259,-0.234,-0.214
213.0,-9.427,-4.113,5.436,0.259,-0.234,-0.214
217.0,-9.106,-4.046,5.28,0.447,-0.273,-0.25
221.0,-9.106,-4.046,5.28,0.447,-0.273,-0.25
225.0,-9.048,-3.466,4.954,0.631,-0.322,-0.289
229.0,-9.048,-3.466,4.954,0.631,-0.322,-0.289
233.0,-9.048,-3.466,4.954,0.631,-0.322,-0.289
237.0,-9.152,-3.002,4.607,0.743,-0.375,-0.318
241.0,-9.152,-3.002,4.607,0.743,-0.375,-0.318
244.0,-9.132,-3.039,4.457,0.743,-0.431,-0.306
248.0,-9.132,-3.039,4.457,0.82,-0.431,-0.306
252.0,-9.132,-3.039,4.457,0.82,-0.431,-0.306
256.0,-9.1,-3.4,4.403,0.952,-0.495,-0.249
260.0,-9.1,-3.4,4.403,0.952,-0.495,-0.249
264.0,-9.166,-3.102,4.22,0.952,-0.495,-0.249
268.0,-9.166,-3.102,4.22,1.131,-0.554,-0.193
272.0,-9.166,-3.102,4.22,1.131,-0.554,-0.193
276.0,-9.068,-2.417,3.977,1.219,-0.607,-0.164
280.0,-9.068,-2.417,3.977,1.219,-0.607,-0.164
284.0,-9.006,-2.022,3.736,1.219,-0.607,-0.164
287.0,-9.006,-2.022,3.736,1.163,-0.63,-0.153
291.0,-9.006,-2.022,3.736,1.163,-0.63,-0.153
295.0,-8.803,-1.95,3.517,1.059,-0.634,-0.126
299.0,-8.803,-1.95,3.517,1.059,-0.634,-0.126
303.0,-8.803,-1.95,3.293,1.059,-0.634,-0.126
307.0,-8.616,-1.707,3.293,0.959,-0.619,-0.082
311.0,-8.616,-1.707,3.293,0.959,-0.619,-0.082
315.0,-8.548,-1.558,3.278,0.833,-0.577,-0.034
319.0,-8.548,-1.558,3.278,0.833,-0.577,-0.034
323.0,-8.548,-1.558,3.278,0.833,-0.577,-0.034
327.0,-8.508,-1.908,3.486,0.716,-0.528,0.033
330.0,-8.508,-1.908,3.486,0.716,-0.528,0.033
334.0,-8.422,-1.717,3.723,0.661,-0.489,0.099
338.0,-8.422,-1.717,3.723,0.661,-0.489,0.099
342.0,-8.422,-1.717,3.723,0.661,-0.489,0.099
346.0,-8.171,-1.283,3.893,0.561,-0.446,0.143
349.0,-8.171,-1.283,3.893,0.561,-0.446,0.143
353.0,-8.087,-1.37,4.17,0.401,-0.405,0.185
357.0,-8.087,-1.37,4.17,0.401,-0.405,0.185
361.0,-8.087,-1.37,4.17,0.401,-0.405,0.185
365.0,-8.046,-1.455,4.463,0.261,-0.367,0.235
369.0,-8.046,-1.455,4.463,0.261,-0.367,0.235
372.0,-8.046,-1.457,4.736,0.261,-0.367,0.235
376.0,-8.139,-1.457,4.736,0.144,-0.339,0.283
380.0,-8.139,-1.457,4.736,0.144,-0.339,0.283
384.0,-8.252,-1.685,4.899,0.042,-0.331,0.334
388.0,-8.252,-1.685,4.899,0.042,-0.331,0.334
391.0,-8.252,-1.685,4.899,0.042,-0.331,0.334
395.0,-8.139,-2.056,4.956,-0.015,-0.327,0.404
399.0,-8.139,-2.056,4.956,-0.015,-0.327,0.404
403.0,-8.085,-2.16,4.911,-0.028,-0.314,0.48
407.0,-8.085,-2.16,4.911,-0.028,-0.314,0.48
411.0,-8.085,-2.16,4.911,-0.028,-0.314,0.48
415.0,-8.231,-2.021,4.847,-0.061,-0.29,0.533
419.0,-8.231,-2.021,4.847,-0.061,-0.29,0.533
423.0,-8.45,-1.879,4.86,-0.135,-0.268,0.574
427.0,-8.45,-1.879,4.86,-0.135,-0.268,0.574
430.0,-8.45,-1.879,4.86,-0.135,-0.268,0.574
434.0,-8.466,-1.71,4.934,-0.234,-0.246,0.606
438.0,-8.466,-1.71,4.934,-0.234,-0.246,0.606
442.0,-8.328,-1.635,5.028,-0.345,-0.212,0.63
446.0,-8.328,-1.635,5.028,-0.345,-0.212,0.63
450.0,-8.328,-1.635,5.028,-0.345,-0.212,0.63
454.0,-8.419,-1.631,5.277,-0.441,-0.173,0.652
458.0,-8.419,-1.631,5.277,-0.441,-0.173,0.652
462.0,-8.609,-1.46,5.701,-0.441,-0.139,0.666
466.0,-8.609,-1.46,5.701,-0.528,-0.139,0.666
469.0,-8.609,-1.46,5.701,-0.528,-0.139,0.666
473.0,-8.751,-1.191,6.166,-0.647,-0.127,0.658
477.0,-8.751,-1.191,6.166,-0.647,-0.127,0.658
481.0,-9.192,-1.237,6.664,-0.647,-0.127,0.625
485.0,-9.192,-1.237,6.664,-0.816,-0.149,0.625
489.0,-9.192,-1.237,6.664,-0.816,-0.149,0.625
493.0,-9.666,-1.354,6.949,-0.998,-0.215,0.579
497.0,-9.666,-1.354,6.949,-0.998,-0.215,0.579
501.0,-9.619,-1.817,6.96,-0.998,-0.215,0.579
505.0,-9.619,-1.817,6.96,-1.144,-0.324,0.542
509.0,-9.619,-1.817,6.96,-1.144,-0.324,0.542
512.0,-9.388,-2.222,6.623,-1.202,-0.394,0.538
516.0,-9.388,-2.222,6.623,-1.202,-0.394,0.538
520.0,-9.388,-2.222,6.184,-1.202,-0.394,0.538
524.0,-8.864,-2.179,6.184,-1.136,-0.484,0.556
528.0,-8.864,-2.179,6.184,-1.136,-0.484,0.556
532.0,-8.42,-2.055,5.798,-1.049,-0.528,0.572
536.0,-8.42,-2.055,5.798,-1.049,-0.528,0.572
540.0,-8.42,-2.055,5.798,-1.049,-0.528,0.572
544.0,-8.425,-2.155,5.366,-0.951,-0.534,0.579
548.0,-8.425,-2.155,5.366,-0.951,-0.534,0.579
552.0,-8.585,-2.448,4.978,-0.808,-0.555,0.587
555.0,-8.585,-2.448,4.978,-0.808,-0.555,0.587
559.0,-8.585,-2.448,4.978,-0.808,-0.555,0.587
563.0,-8.587,-2.372,4.697,-0.622,-0.588,0.593
567.0,-8.587,-2.372,4.697,-0.622,-0.588,0.593
571.0,-8.582,-2.343,4.554,-0.459,-0.609,0.592
575.0,-8.582,-2.343,4.554,-0.459,-0.609,0.592
579.0,-8.582,-2.343,4.554,-0.459,-0.609,0.592
583.0,-8.596,-2.3,4.481,-0.335,-0.612,0.592
587.0,-8.596,-2.3,4.481,-0.335,-0.612,0.592
591.0,-8.61,-2.264,4.505,-0.248,-0.6,0.586
594.0,-8.61,-2.264,4.505,-0.248,-0.6,0.586
598.0,-8.61,-2.264,4.505,-0.248,-0.6,0.586
602.0,-8.626,-2.21,4.528,-0.193,-0.584,0.566
606.0,-8.626,-2.21,4.528,-0.193,-0.584,0.566
610.0,-8.69,-2.052,4.751,-0.167,-0.559,0.531
614.0,-8.69,-2.052,4.751,-0.167,-0.559,0.531
618.0,-8.69,-2.052,4.751,-0.167,-0.559,0.531
622.0,-8.802,-1.85,5.014,-0.169,-0.533,0.49
626.0,-8.802,-1.85,5.014,-0.169,-0.533,0.49
630.0,-8.899,-1.642,5.209,-0.202,-0.502,0.445
634.0,-8.899,-1.642,5.209,-0.202,-0.502,0.445
637.0,-8.899,-1.642,5.209,-0.202,-0.502,0.445
641.0,-8.964,-1.439,5.515,-0.256,-0.47,0.396
645.0,-8.964,-1.439,5.515,-0.256,-0.47,0.396
649.0,-9.127,-1.28,6.004,-0.256,-0.453,0.354
653.0,-9.127,-1.28,6.004,-0.312,-0.453,0.354
657.0,-9.127,-1.28,6.004,-0.312,-0.453,0.354
661.0,-9.357,-1.286,6.482,-0.351,-0.47,0.327
665.0,-9.357,-1.286,6.482,-0.351,-0.47,0.327
669.0,-9.53,-1.45,6.83,-0.351,-0.47,0.327
673.0,-9.53,-1.45,6.83,-0.362,-0.519,0.308
677.0,-9.53,-1.45,6.83,-0.362,-0.519,0.308
680.0,-9.443,-1.713,7.088,-0.346,-0.581,0.281
684.0,-9.443,-1.713,7.088,-0.346,-0.581,0.281
688.0,-9.245,-1.918,7.462,-0.346,-0.581,0.281
692.0,-9.245,-1.918,7.462,-0.301,-0.633,0.239
696.0,-9.245,-1.918,7.462,-0.301,-0.633,0.239
700.0,-9.221,-1.878,7.969,-0.225,-0.678,0.188
704.0,-9.221,-1.878,7.969,-0.225,-0.678,0.188
708.0,-9.221,-1.878,8.484,-0.225,-0.678,0.188
712.0,-9.306,-1.665,8.484,-0.121,-0.73,0.157
716.0,-9.306,-1.665,8.484,-0.121,-0.73,0.157
719.0,-9.322,-1.473,9.145,-0.003,-0.793,0.164
723.0,-9.322,-1.473,9.145,-0.003,-0.793,0.164
727.0,-9.322,-1.473,9.145,-0.003,-0.793,0.164
731.0,-9.376,-1.312,10.025,0.131,-0.883,0.207
735.0,-9.376,-1.312,10.025,0.131,-0.883,0.207
739.0,-9.569,-1.171,10.924,0.29,-1.009,0.275
743.0,-9.569,-1.171,10.924,0.29,-1.009,0.275
747.0,-9.569,-1.171,10.924,0.29,-1.009,0.275
751.0,-9.672,-1.1,11.828,0.462,-1.181,0.356
755.0,-9.672,-1.1,11.828,0.462,-1.181,0.356
759.0,-9.653,-0.927,12.597,0.617,-1.395,0.415
762.0,-9.653,-0.927,12.597,0.617,-1.395,0.415
766.0,-9.653,-0.927,12.597,0.617,-1.395,0.415
770.0,-9.408,-0.444,13.086,0.741,-1.617,0.435
774.0,-9.408,-0.444,13.086,0.741,-1.617,0.435
778.0,-9.224,0.209,13.569,0.826,-1.824,0.444
782.0,-9.224,0.209,13.569,0.826,-1.824,0.444
786.0,-9.224,0.209,13.569,0.826,-1.824,0.444
790.0,-9.238,0.622,14.11,0.883,-2.036,0.471
793.0,-9.238,0.622,14.11,0.883,-2.036,0.471
797.0,-9.38,0.908,14.818,0.883,-2.036,0.511
801.0,-9.38,0.908,14.818,0.918,-2.248,0.511
805.0,-9.38,0.908,14.818,0.918,-2.248,0.511
809.0,-9.79,1.159,15.738,0.935,-2.472,0.548
812.0,-9.79,1.159,15.738,0.935,-2.472,0.548
816.0,-9.79,1.159,16.424,0.935,-2.472,0.548
820.0,-10.319,1.049,16.424,0.933,-2.755,0.571
824.0,-10.319,1.049,16.424,0.933,-2.755,0.571
828.0,-10.548,0.715,16.795,0.905,-3.088,0.568
832.0,-10.548,0.715,16.795,0.905,-3.088,0.568
836.0,-10.548,0.715,16.795,0.905,-3.088,0.568
840.0,-10.405,0.246,16.872,0.844,-3.407,0.55
844.0,-10.405,0.246,16.872,0.844,-3.407,0.55
847.0,-10.205,-0.167,16.969,0.762,-3.684,0.529
851.0,-10.205,-0.167,16.969,0.762,-3.684,0.529
855.0,-10.205,-0.167,16.969,0.762,-3.684,0.529
859.0,-10.214,-0.282,17.125,0.705,-3.944,0.498
863.0,-10.214,-0.282,17.125,0.705,-3.944,0.498
867.0,-10.214,-0.491,17.046,0.71,-4.212,0.468
871.0,-10.214,-0.491,17.046,0.71,-4.212,0.468
875.0,-10.214,-0.491,17.046,0.71,-4.212,0.468
879.0,-9.95,-0.97,16.833,0.765,-4.483,0.449
883.0,-9.95,-0.97,16.833,0.765,-4.483,0.449
887.0,-9.779,-1.522,16.573,0.854,-4.734,0.442
891.0,-9.779,-1.522,16.573,0.854,-4.734,0.442
895.0,-9.779,-1.522,16.573,0.854,-4.734,0.442
899.0,-9.538,-2.157,16.167,0.976,-4.939,0.44
903.0,-9.538,-2.157,16.167,0.976,-4.939,0.44
907.0,-9.098,-2.748,15.775,1.129,-4.992,0.424
911.0,-9.098,-2.748,15.775,1.129,-4.992,0.424
915.0,-9.098,-2.748,15.775,1.129,-4.992,0.424
918.0,-8.72,-3.208,15.417,1.309,-4.992,0.385
922.0,-8.72,-3.208,15.417,1.309,-4.992,0.385
926.0,-8.401,-3.528,14.844,1.497,-4.992,0.326
930.0,-8.401,-3.528,14.844,1.497,-4.992,0.326
934.0,-8.401,-3.528,14.844,1.497,-4.992,0.326
938.0,-7.994,-3.767,14.156,1.684,-4.992,0.254
942.0,-7.994,-3.767,14.156,1.684,-4.992,0.254
946.0,-7.601,-4.055,13.616,1.864,-4.992,0.185
950.0,-7.601,-4.055,13.616,1.864,-4.992,0.185
954.0,-7.601,-4.055,13.616,1.864,-4.992,0.185
958.0,-7.164,-4.6,13.055,2.0,-4.992,0.128
961.0,-7.164,-4.6,13.055,2.0,-4.992,0.128
965.0,-7.091,-5.357,12.495,2.086,-4.992,0.059
969.0,-7.091,-5.357,12.495,2.086,-4.992,0.059
973.0,-7.091,-5.357,12.495,2.086,-4.992,0.059
977.0,-6.415,-5.572,11.799,2.174,-4.992,-0.015
981.0,-6.415,-5.572,11.799,2.174,-4.992,-0.015
985.0,-6.023,-5.699,11.126,2.25,-4.992,-0.099
989.0,-6.023,-5.699,11.126,2.25,-4.992,-0.099
993.0,-6.023,-5.699,11.126,2.25,-4.992,-0.099
997.0,-5.688,-5.568,10.604,2.362,-4.992,-0.189
1001.0,-5.688,-5.568,10.604,2.362,-4.992,-0.189
1005.0,-5.202,-5.411,9.967,2.494,-4.992,-0.27
1009.0,-5.202,-5.411,9.967,2.494,-4.992,-0.27
1013.0,-5.202,-5.411,9.967,2.494,-4.992,-0.27
1017.0,-4.61,-5.302,9.34,2.611,-4.992,-0.333
1021.0,-4.61,-5.302,9.34,2.611,-4.992,-0.333
1025.0,-4.059,-5.319,8.692,2.702,-4.992,-0.39
1029.0,-4.059,-5.319,8.692,2.702,-4.992,-0.39
1033.0,-4.059,-5.319,8.692,2.702,-4.992,-0.39
1037.0,-3.65,-5.229,7.989,2.777,-4.992,-0.452
1041.0,-3.65,-5.229,7.989,2.777,-4.992,-0.452
1045.0,-3.322,-4.93,7.339,2.836,-4.992,-0.523
1049.0,-3.322,-4.93,7.339,2.836,-4.992,-0.523
1053.0,-3.322,-4.93,7.339,2.836,-4.992,-0.523
1057.0,-2.894,-4.315,6.697,2.893,-4.992,-0.602
1061.0,-2.894,-4.315,6.697,2.893,-4.992,-0.602
1065.0,-2.361,-3.677,5.964,2.939,-4.992,-0.672
1069.0,-2.361,-3.677,5.964,2.939,-4.992,-0.672
1073.0,-2.361,-3.677,5.182,2.939,-4.992,-0.672
1077.0,-1.802,-3.258,5.182,2.952,-4.992,-0.728
1081.0,-1.802,-3.258,5.182,2.952,-4.992,-0.728
1085.0,-1.352,-3.017,4.427,2.931,-4.992,-0.787
1089.0,-1.352,-3.017,4.427,2.931,-4.992,-0.787
1093.0,-0.916,-2.463,3.783,2.931,-4.992,-0.787
1097.0,-0.916,-2.463,3.783,2.895,-4.992,-0.861
1101.0,-0.916,-2.463,3.783,2.895,-4.992,-0.861
1105.0,-0.715,-1.999,3.146,2.846,-4.992,-0.93
1109.0,-0.715,-1.999,3.146,2.846,-4.992,-0.93
1113.0,0.065,-1.452,2.54,2.846,-4.992,-0.978
1117.0,0.065,-1.452,2.54,2.802,-4.971,-0.978
1121.0,0.065,-1.452,2.54,2.802,-4.971,-0.978
1125.0,0.689,-1.186,2.097,2.712,-4.857,-1.024
1129.0,0.689,-1.186,2.097,2.712,-4.857,-1.024
1132.0,1.041,-0.926,1.783,2.712,-4.857,-1.024
1136.0,1.041,-0.926,1.783,2.614,-4.702,-1.084
1140.0,1.041,-0.926,1.783,2.614,-4.702,-1.084
1144.0,1.19,-0.686,1.394,2.534,-4.55,-1.153
1148.0,1.19,-0.686,1.394,2.534,-4.55,-1.153
1152.0,1.19,-0.686,0.913,2.534,-4.55,-1.153
1156.0,1.396,-0.473,0.913,2.475,-4.402,-1.212
1160.0,1.396,-0.473,0.913,2.475,-4.402,-1.212
1164.0,1.691,-0.392,0.539,2.451,-4.245,-1.259
1168.0,1.691,-0.392,0.539,2.451,-4.245,-1.259
1171.0,1.691,-0.392,0.539,2.451,-4.245,-1.259
1175.0,2.067,-0.279,0.311,2.49,-4.084,-1.299
1179.0,2.067,-0.279,0.311,2.49,-4.084,-1.299
1183.0,2.301,-0.026,0.056,2.598,-3.927,-1.325
1187.0,2.301,-0.026,0.056,2.598,-3.927,-1.325
1191.0,2.301,-0.026,0.056,2.598,-3.927,-1.325
1195.0,2.536,0.252,-0.3,2.741,-3.773,-1.33
1199.0,2.536,0.252,-0.3,2.741,-3.773,-1.33
1203.0,2.883,0.519,-0.758,2.877,-3.611,-1.329
1207.0,2.883,0.519,-0.758,2.877,-3.611,-1.329
1211.0,2.883,0.519,-0.758,2.877,-3.611,-1.329
1214.0,3.197,0.863,-1.276,2.986,-3.44,-1.341
1218.0,3.197,0.863,-1.276,2.986,-3.44,-1.341
1222.0,3.495,1.382,-1.869,3.046,-3.262,-1.365
1226.0,3.495,1.382,-1.869,3.046,-3.262,-1.365
1230.0,3.495,1.382,-1.869,3.046,-3.262,-1.365
1234.0,3.842,1.966,-2.409,3.056,-3.06,-1.392
1238.0,3.842,1.966,-2.409,3.056,-3.06,-1.392
1242.0,4.196,2.786,-2.961,3.043,-2.844,-1.427
1246.0,4.196,2.786,-2.961,3.043,-2.844,-1.427
1250.0,4.196,2.786,-2.961,3.043,-2.844,-1.427
1254.0,4.702,3.805,-3.693,3.024,-2.617,-1.469
1257.0,4.702,3.805,-3.693,3.024,-2.617,-1.469
1261.0,5.428,5.093,-4.753,2.999,-2.356,-1.499
1265.0,5.428,5.093,-4.753,2.999,-2.356,-1.499
1269.0,5.428,5.093,-4.753,2.999,-2.356,-1.499
1273.0,6.534,6.75,-6.163,2.969,-2.068,-1.486
1277.0,6.534,6.75,-6.163,2.969,-2.068,-1.486
1281.0,7.811,8.426,-7.719,2.969,-1.714,-1.402
1285.0,7.811,8.426,-7.719,2.932,-1.714,-1.402
1289.0,7.811,8.426,-7.719,2.932,-1.714,-1.402
1293.0,9.078,9.861,-9.163,2.891,-1.265,-1.237
1296.0,9.078,9.861,-9.163,2.891,-1.265,-1.237
1300.0,10.103,11.045,-10.301,2.891,-1.265,-1.237
1305.0,10.103,11.045,-10.301,2.829,-0.757,-1.014
1309.0,10.103,11.045,-10.301,2.829,-0.757,-1.014
1313.0,10.744,12.213,-11.079,2.734,-0.208,-0.734
1317.0,10.744,12.213,-11.079,2.734,-0.208,-0.734
1321.0,11.003,13.465,-11.435,2.611,0.363,-0.384
1325.0,11.003,13.465,-11.435,2.611,0.363,-0.384
1329.0,11.003,13.465,-11.435,2.611,0.363,-0.384
1333.0,11.08,14.386,-11.718,2.463,0.94,0.037
1337.0,11.08,14.386,-11.718,2.463,0.94,0.037
1341.0,11.381,15.192,-12.483,2.293,1.515,0.509
1345.0,11.381,15.192,-12.483,2.293,1.515,0.509
1349.0,11.381,15.909,-13.658,2.293,1.515,0.509
1353.0,11.94,15.909,-13.658,2.14,2.125,1.008
1357.0,11.94,15.909,-13.658,2.14,2.125,1.008
1361.0,12.905,17.19,-15.169,2.066,2.778,1.514
1365.0,12.905,17.19,-15.169,2.066,2.778,1.514
1369.0,13.684,17.825,-15.899,2.066,2.778,1.514
1373.0,13.684,17.825,-15.899,1.967,3.503,2.016
1377.0,13.684,17.825,-15.899,1.967,3.503,2.016
1381.0,14.039,17.608,-15.688,1.759,4.256,2.473
1385.0,14.039,17.608,-15.688,1.759,4.256,2.473
1389.0,13.406,17.371,-13.908,1.759,4.256,2.875
1393.0,13.406,17.371,-13.908,1.426,4.882,2.875
1397.0,13.406,17.371,-13.908,1.426,4.882,2.875
1401.0,11.302,16.604,-10.545,1.013,5.015,3.288
1405.0,11.302,16.604,-10.545,1.013,5.015,3.288
1409.0,8.142,14.615,-7.046,1.013,5.015,3.72
1413.0,8.142,14.615,-7.046,0.585,5.015,3.72
1417.0,8.142,14.615,-7.046,0.585,5.015,3.72
1421.0,4.487,12.124,-4.844,0.185,5.015,4.125
1425.0,4.487,12.124,-4.844,0.185,5.015,4.125
1428.0,4.487,9.688,-3.447,0.185,5.015,4.125
1432.0,0.596,9.688,-3.447,-0.17,5.015,4.472
1436.0,0.596,9.688,-3.447,-0.17,5.015,4.472
1440.0,-4.345,6.442,-0.71,-0.546,5.015,4.718
1444.0,-4.345,6.442,-0.71,-0.546,5.015,4.718
1448.0,-4.345,6.442,-0.71,-0.546,5.015,4.718
1452.0,-10.501,2.935,3.657,-0.999,5.015,4.702
1455.0,-10.501,2.935,3.657,-0.999,5.015,4.702
1459.0,-17.487,-0.776,6.668,-1.5,5.004,4.344
1463.0,-17.487,-0.776,6.668,-1.5,5.004,4.344
1467.0,-17.487,-0.776,6.668,-1.5,5.004,4.344
1471.0,-19.6,-5.341,7.024,-1.93,4.506,3.755
1475.0,-19.6,-5.341,7.024,-1.93,4.506,3.755
1479.0,-19.6,-8.855,9.486,-2.065,3.335,2.892
1483.0,-19.6,-8.855,9.486,-2.065,3.335,2.892
1487.0,-19.6,-8.855,9.486,-2.065,3.335,2.892
1491.0,-17.239,-9.99,11.699,-1.979,2.079,1.916
1495.0,-17.239,-9.99,11.699,-1.979,2.079,1.916
1499.0,-12.54,-10.307,10.734,-1.815,0.904,0.995
1504.0,-12.54,-10.307,10.734,-1.815,0.904,0.995
1508.0,-9.368,-10.238,9.232,-1.815,0.904,0.103
1512.0,-9.368,-10.238,9.232,-1.574,-0.06,0.103
1516.0,-9.368,-10.238,9.232,-1.574,-0.06,0.103
1520.0,-6.837,-10.071,8.316,-1.262,-0.811,-0.693
1524.0,-6.837,-10.071,8.316,-1.262,-0.811,-0.693
1528.0,-4.379,-9.274,7.357,-0.894,-1.408,-1.325
1532.0,-4.379,-9.274,7.357,-0.894,-1.408,-1.325
1536.0,-4.379,-9.274,7.357,-0.894,-1.408,-1.325
1540.0,-2.128,-7.894,6.421,-0.509,-1.853,-1.787
1545.0,-2.128,-7.894,6.421,-0.509,-1.853,-1.787
1549.0,-0.357,-6.431,5.529,-0.186,-2.179,-2.123
1553.0,-0.357,-6.431,5.529,-0.186,-2.179,-2.123
1557.0,0.696,-5.021,4.723,-0.186,-2.179,-2.123
1561.0,0.696,-5.021,4.723,0.041,-2.44,-2.438
1565.0,0.696,-5.021,4.723,0.041,-2.44,-2.438
1569.0,1.027,-3.548,3.878,0.184,-2.654,-2.777
1573.0,1.027,-3.548,3.878,0.184,-2.654,-2.777
1576.0,1.027,-2.189,3.156,0.184,-2.654,-2.777
1580.0,1.195,-2.189,3.156,0.249,-2.821,-3.095
1584.0,1.195,-2.189,3.156,0.249,-2.821,-3.095
1588.0,1.899,-0.84,2.747,0.242,-2.953,-3.352
1592.0,1.899,-0.84,2.747,0.242,-2.953,-3.352
1596.0,1.899,-0.84,2.624,0.242,-2.953,-3.352
1600.0,3.669,0.309,2.624,0.204,-3.046,-3.528
1604.0,3.669,0.309,2.624,0.204,-3.046,-3.528
1608.0,6.106,1.236,2.544,0.216,-3.082,-3.66
1611.0,6.106,1.236,2.544,0.216,-3.082,-3.66
1615.0,6.106,1.236,2.544,0.216,-3.082,-3.66
1619.0,8.597,2.247,2.201,0.337,-3.057,-3.769
1623.0,8.597,2.247,2.201,0.337,-3.057,-3.769
1627.0,10.711,3.343,1.699,0.564,-2.968,-3.824
1631.0,10.711,3.343,1.699,0.564,-2.968,-3.824
1634.0,10.711,3.343,1.699,0.564,-2.968,-3.824
1638.0,12.073,4.489,0.979,0.859,-2.843,-3.831
1642.0,12.073,4.489,0.979,0.859,-2.843,-3.831
1646.0,12.674,6.051,0.153,0.859,-2.703,-3.81
1650.0,12.674,6.051,0.153,1.151,-2.703,-3.81
1654.0,12.674,6.051,0.153,1.151,-2.703,-3.81
1658.0,12.692,8.217,-1.031,1.404,-2.561,-3.735
1662.0,12.692,8.217,-1.031,1.404,-2.561,-3.735
1666.0,12.974,10.822,-2.973,1.404,-2.434,-3.559
1670.0,12.974,10.822,-2.973,1.609,-2.434,-3.559
1674.0,12.974,10.822,-2.973,1.609,-2.434,-3.559
1678.0,13.966,13.044,-4.939,1.784,-2.287,-3.283
1682.0,13.966,13.044,-4.939,1.784,-2.287,-3.283
1686.0,15.584,15.238,-7.183,1.931,-2.096,-2.945
1690.0,15.584,15.238,-7.183,1.931,-2.096,-2.945
1694.0,15.584,15.238,-7.183,1.931,-2.096,-2.945
1698.0,17.536,17.914,-9.928,2.05,-1.788,-2.523
1703.0,17.536,17.914,-9.928,2.05,-1.788,-2.523
1707.0,19.289,19.52,-11.828,2.149,-1.318,-1.982
1711.0,19.289,19.52,-11.828,2.149,-1.318,-1.982
1715.0,19.595,19.596,-13.224,2.149,-1.318,-1.357
1719.0,19.595,19.596,-13.224,2.206,-0.731,-1.357
1723.0,19.595,19.596,-13.224,2.206,-0.731,-1.357
1727.0,19.596,19.596,-14.876,2.189,-0.072,-0.661
1732.0,19.596,19.596,-14.876,2.189,-0.072,-0.661
1736.0,19.596,19.596,-15.406,2.063,0.66,0.072
1740.0,19.596,19.596,-15.406,2.063,0.66,0.072
1744.0,19.596,19.596,-15.406,2.063,0.66,0.072
1748.0,19.556,19.596,-14.426,1.817,1.399,0.782
1752.0,19.556,19.596,-14.426,1.817,1.399,0.782
1756.0,18.426,19.596,-13.494,1.484,2.084,1.426
1760.0,18.426,19.596,-13.494,1.484,2.084,1.426
1764.0,18.426,19.596,-12.83,1.484,2.084,1.426
1768.0,17.025,19.596,-12.83,1.131,2.746,2.015
1772.0,17.025,19.596,-12.83,1.131,2.746,2.015
1776.0,16.033,19.596,-12.22,0.8,3.404,2.546
1780.0,16.033,19.596,-12.22,0.8,3.404,2.546
1784.0,16.033,19.069,-11.091,0.8,3.404,2.546
1788.0,14.782,19.069,-11.091,0.507,4.054,3.012
1792.0,14.782,19.069,-11.091,0.507,4.054,3.012
1796.0,13.108,16.925,-9.232,0.25,4.648,3.444
1800.0,13.108,16.925,-9.232,0.25,4.648,3.444
1804.0,10.658,14.496,-6.309,0.25,4.648,3.444
1807.0,10.658,14.496,-6.309,0.029,4.989,3.864
1811.0,10.658,14.496,-6.309,0.029,4.989,3.864
1815.0,7.86,12.501,-4.088,-0.154,5.015,4.301
1819.0,7.86,12.501,-4.088,-0.154,5.015,4.301
1823.0,7.86,12.501,-2.218,-0.154,5.015,4.301
1827.0,5.166,10.449,-2.218,-0.305,5.015,4.759
1831.0,5.166,10.449,-2.218,-0.305,5.015,4.759
1835.0,2.279,8.13,-0.472,-0.46,5.015,5.001
1839.0,2.279,8.13,-0.472,-0.46,5.015,5.001
1842.0,2.279,8.13,-0.472,-0.46,5.015,5.001
1846.0,-1.195,6.188,0.868,-0.647,5.015,5.013
1850.0,-1.195,6.188,0.868,-0.647,5.015,5.013
1854.0,-5.189,4.665,1.759,-0.883,5.015,5.013
1858.0,-5.189,4.665,1.759,-0.883,5.015,5.013
1861.0,-5.189,4.665,1.759,-0.883,5.015,5.013
1865.0,-9.648,3.279,2.471,-1.152,5.015,5.013
1869.0,-9.648,3.279,2.471,-1.152,5.015,5.013
1873.0,-14.512,1.357,3.931,-1.152,5.015,5.013
1877.0,-14.512,1.357,3.931,-1.386,5.015,5.013
1881.0,-14.512,1.357,3.931,-1.386,5.015,5.013
1885.0,-18.982,-1.169,5.548,-1.504,4.858,5.013
1889.0,-18.982,-1.169,5.548,-1.504,4.858,5.013
1893.0,-19.6,-3.931,6.925,-1.504,4.858,5.005
1897.0,-19.6,-3.931,6.925,-1.44,3.941,5.005
1901.0,-19.6,-3.931,6.925,-1.44,3.941,5.005
1905.0,-18.957,-6.303,7.155,-1.133,2.607,4.725
1909.0,-18.957,-6.303,7.155,-1.133,2.607,4.725
1913.0,-11.405,-7.308,5.572,-1.133,1.368,4.004
1917.0,-11.405,-7.308,5.572,-0.692,1.368,4.004
1921.0,-11.405,-7.308,5.572,-0.692,1.368,4.004
1925.0,-2.191,-7.005,3.935,-0.377,0.586,3.011
1929.0,-2.191,-7.005,3.935,-0.377,0.586,3.011
1932.0,4.014,-5.965,4.387,-0.377,0.191,1.801
1936.0,4.014,-5.965,4.387,-0.309,0.191,1.801
1940.0,4.014,-5.965,4.387,-0.309,0.191,1.801
1944.0,6.623,-4.693,5.993,-0.397,-0.138,0.59
1948.0,6.623,-4.693,5.993,-0.397,-0.138,0.59
1952.0,6.644,-4.048,6.401,-0.397,-0.138,0.59
1956.0,6.644,-4.048,6.401,-0.513,-0.518,-0.396
1960.0,6.644,-4.048,6.401,-0.513,-0.518,-0.396
1964.0,5.431,-4.205,5.027,-0.601,-0.813,-1.063
1968.0,5.431,-4.205,5.027,-0.601,-0.813,-1.063
1972.0,4.813,-4.665,3.71,-0.601,-0.813,-1.465
1976.0,4.813,-4.665,3.71,-0.601,-0.898,-1.465
1980.0,4.813,-4.665,3.71,-0.601,-0.898,-1.465
1984.0,5.728,-4.431,3.437,-0.459,-0.85,-1.679
1988.0,5.728,-4.431,3.437,-0.459,-0.85,-1.679
1992.0,7.979,-3.671,3.351,-0.459,-0.805,-1.726
1996.0,7.979,-3.671,3.351,-0.209,-0.805,-1.726
2000.0,7.979,-3.671,3.351,-0.209,-0.805,-1.726
2004.0,10.046,-2.477,3.516,0.083,-0.689,-1.668
2008.0,10.046,-2.477,3.516,0.083,-0.689,-1.668
2011.0,10.991,-1.255,4.279,0.392,-0.475,-1.511
2015.0,10.991,-1.255,4.279,0.392,-0.475,-1.511
2019.0,10.991,-1.255,4.279,0.392,-0.475,-1.511
2023.0,11.258,-0.352,5.153,0.703,-0.263,-1.235
2027.0,11.258,-0.352,5.153,0.703,-0.263,-1.235
2031.0,11.225,0.373,5.608,0.992,-0.097,-0.903
2035.0,11.225,0.373,5.608,0.992,-0.097,-0.903
2039.0,11.225,0.373,5.608,0.992,-0.097,-0.903
2043.0,11.046,1.114,5.679,1.245,0.021,-0.608
2047.0,11.046,1.114,5.679,1.245,0.021,-0.608
2051.0,10.836,1.82,5.615,1.245,0.081,-0.389
2055.0,10.836,1.82,5.615,1.432,0.081,-0.389
2058.0,10.836,1.82,5.615,1.432,0.081,-0.389
2062.0,10.476,2.448,5.34,1.532,0.092,-0.258
2066.0,10.476,2.448,5.34,1.532,0.092,-0.258
2070.0,10.476,3.099,4.799,1.532,0.092,-0.258
2074.0,9.769,3.099,4.799,1.534,0.091,-0.188
2077.0,9.769,3.099,4.799,1.534,0.091,-0.188
2081.0,8.937,3.629,4.22,1.44,0.075,-0.139
2085.0,8.937,3.629,4.22,1.44,0.075,-0.139
2089.0,8.937,3.629,4.22,1.44,0.075,-0.139
2092.0,8.466,3.724,3.861,1.248,0.026,-0.088
2096.0,8.466,3.724,3.861,1.248,0.026,-0.088
2100.0,8.289,3.647,3.759,1.248,0.026,-0.088
2104.0,8.289,3.647,3.759,0.967,-0.043,-0.056
2107.0,8.289,3.647,3.759,0.967,-0.043,-0.056
2111.0,8.27,3.683,3.61,0.633,-0.111,-0.031
2115.0,8.27,3.683,3.61,0.633,-0.111,-0.031
2119.0,8.27,3.683,3.61,0.633,-0.111,-0.031
2123.0,8.381,3.516,3.414,0.286,-0.15,-0.003
2127.0,8.381,3.516,3.414,0.286,-0.15,-0.003
2130.0,8.46,3.074,3.319,-0.046,-0.151,0.007
2134.0,8.46,3.074,3.319,-0.046,-0.151,0.007
2138.0,8.46,3.074,3.319,-0.046,-0.151,0.007
2142.0,8.372,2.477,3.113,-0.337,-0.129,-0.006
2146.0,8.372,2.477,3.113,-0.337,-0.129,-0.006
2150.0,8.222,1.798,2.857,-0.552,-0.085,-0.035
2154.0,8.222,1.798,2.857,-0.552,-0.085,-0.035
2157.0,8.222,1.798,2.857,-0.552,-0.085,-0.035
2161.0,8.066,1.146,2.791,-0.668,-0.022,-0.079
2165.0,8.066,1.146,2.791,-0.668,-0.022,-0.079
2169.0,7.796,0.641,2.758,-0.668,-0.022,-0.142
2173.0,7.796,0.641,2.758,-0.686,0.03,-0.142
2177.0,7.796,0.641,2.758,-0.686,0.03,-0.142
2181.0,7.683,0.258,2.709,-0.617,0.054,-0.214
2184.0,7.683,0.258,2.709,-0.617,0.054,-0.214
2188.0,7.683,0.094,2.683,-0.617,0.054,-0.214
2192.0,7.512,0.094,2.683,-0.478,0.064,-0.308
2196.0,7.512,0.094,2.683,-0.478,0.064,-0.308
2200.0,7.283,0.046,2.462,-0.298,0.055,-0.405
2204.0,7.283,0.046,2.462,-0.298,0.055,-0.405
2207.0,7.283,0.046,2.462,-0.298,0.055,-0.405
2211.0,7.058,0.01,1.979,-0.099,0.034,-0.505
2215.0,7.058,0.01,1.979,-0.099,0.034,-0.505
2219.0,6.845,0.229,1.326,0.096,0.016,-0.621
2223.0,6.845,0.229,1.326,0.096,0.016,-0.621
2226.0,6.845,0.229,1.326,0.096,0.016,-0.621
2230.0,6.729,0.469,0.72,0.276,0.006,-0.728
2234.0,6.729,0.469,0.72,0.276,0.006,-0.728
2238.0,6.729,0.469,0.456,0.276,0.006,-0.728
2241.0,6.73,0.958,0.456,0.43,0.0,-0.813
2245.0,6.73,0.958,0.456,0.43,0.0,-0.813
2249.0,6.881,1.395,0.04,0.55,0.0,-0.864
2252.0,6.881,1.395,0.04,0.55,0.0,-0.864
2256.0,6.881,1.395,0.04,0.55,0.0,-0.864
2260.0,6.885,1.324,-0.299,0.617,0.03,-0.907
2264.0,6.885,1.324,-0.299,0.617,0.03,-0.907
2268.0,6.42,1.208,-0.416,0.617,0.03,-0.907
2271.0,6.42,1.208,-0.416,0.621,0.072,-1.013
2275.0,6.42,1.208,-0.416,0.621,0.072,-1.013
2279.0,5.6,1.119,-0.437,0.569,0.097,-1.191
2283.0,5.6,1.119,-0.437,0.569,0.097,-1.191
2287.0,5.6,1.119,-0.437,0.569,0.097,-1.191
2290.0,4.638,0.921,-0.526,0.476,0.105,-1.416
2294.0,4.638,0.921,-0.526,0.476,0.105,-1.416
2298.0,3.762,0.69,-0.644,0.366,0.108,-1.68
2302.0,3.762,0.69,-0.644,0.366,0.108,-1.68
2306.0,3.762,0.69,-0.644,0.366,0.108,-1.68
2310.0,2.873,0.5,-0.756,0.256,0.134,-1.959
2313.0,2.873,0.5,-0.756,0.256,0.134,-1.959
2317.0,2.07,0.328,-0.754,0.256,0.172,-2.214
2321.0,2.07,0.328,-0.754,0.153,0.172,-2.214
2325.0,2.07,0.328,-0.754,0.153,0.172,-2.214
2329.0,1.353,0.144,-0.687,0.065,0.205,-2.448
2332.0,1.353,0.144,-0.687,0.065,0.205,-2.448
2336.0,1.353,0.144,-0.523,0.065,0.205,-2.448
2340.0,0.525,-0.059,-0.523,-0.011,0.234,-2.669
2344.0,0.525,-0.059,-0.523,-0.011,0.234,-2.669
2348.0,-0.282,-0.443,-0.394,-0.084,0.244,-2.872
2352.0,-0.282,-0.443,-0.394,-0.084,0.244,-2.872
2356.0,-0.959,-0.918,-0.162,-0.084,0.244,-2.872
2360.0,-0.959,-0.918,-0.162,-0.153,0.262,-3.093
2364.0,-0.959,-0.918,-0.162,-0.153,0.262,-3.093
2369.0,-1.771,-1.493,0.297,-0.203,0.322,-3.359
2373.0,-1.771,-1.493,0.297,-0.203,0.322,-3.359
2377.0,-2.743,-2.012,0.718,-0.203,0.395,-3.637
2381.0,-2.743,-2.012,0.718,-0.216,0.395,-3.637
2384.0,-2.743,-2.012,0.718,-0.216,0.395,-3.637
2388.0,-3.58,-2.517,1.178,-0.185,0.435,-3.883
2392.0,-3.58,-2.517,1.178,-0.185,0.435,-3.883
2396.0,-3.989,-2.808,1.357,-0.11,0.44,-4.087
2400.0,-3.989,-2.808,1.357,-0.11,0.44,-4.087
2404.0,-3.989,-2.808,1.357,-0.11,0.44,-4.087
2408.0,-3.998,-2.794,1.288,-0.0,0.461,-4.243
2412.0,-3.998,-2.794,1.288,-0.0,0.461,-4.243
2416.0,-3.763,-2.666,1.342,0.106,0.528,-4.353
2420.0,-3.763,-2.666,1.342,0.106,0.528,-4.353
2424.0,-3.763,-2.666,1.342,0.106,0.528,-4.353
2428.0,-3.367,-2.265,1.494,0.156,0.638,-4.439
2432.0,-3.367,-2.265,1.494,0.156,0.638,-4.439
2436.0,-2.864,-1.54,1.706,0.119,0.797,-4.511
2440.0,-2.864,-1.54,1.706,0.119,0.797,-4.511
2444.0,-2.864,-1.54,1.706,0.119,0.797,-4.511
2448.0,-2.362,-0.936,2.082,-0.015,0.988,-4.563
2452.0,-2.362,-0.936,2.082,-0.015,0.988,-4.563
2456.0,-1.614,-0.324,2.402,-0.245,1.185,-4.603
2460.0,-1.614,-0.324,2.402,-0.245,1.185,-4.603
2464.0,-1.614,-0.324,2.402,-0.245,1.185,-4.603
2468.0,-0.422,0.431,2.541,-0.558,1.419,-4.654
2472.0,-0.422,0.431,2.541,-0.558,1.419,-4.654
2475.0,1.012,1.025,2.588,-0.94,1.725,-4.723
2479.0,1.012,1.025,2.588,-0.94,1.725,-4.723
2483.0,1.012,1.025,2.588,-0.94,1.725,-4.723
2487.0,2.422,1.63,2.873,-1.391,2.127,-4.818
2491.0,2.422,1.63,2.873,-1.391,2.127,-4.818
2495.0,3.231,2.494,3.663,-1.391,2.127,-4.818
2498.0,3.231,2.494,3.663,-1.891,2.608,-4.926
2502.0,3.231,2.494,3.663,-1.891,2.608,-4.926
2506.0,3.434,3.383,4.32,-2.411,3.089,-4.976
2510.0,3.434,3.383,4.32,-2.411,3.089,-4.976
2514.0,3.434,3.383,4.32,-2.411,3.089,-4.976
2517.0,3.216,4.185,4.98,-2.952,3.532,-4.949
2521.0,3.216,4.185,4.98,-2.952,3.532,-4.949
2525.0,2.836,4.704,5.27,-3.548,3.949,-4.849
2529.0,2.836,4.704,5.27,-3.548,3.949,-4.849
2533.0,2.836,4.704,5.27,-3.548,3.949,-4.849
2537.0,2.201,4.36,5.013,-4.248,4.379,-4.706
2540.0,2.201,4.36,5.013,-4.248,4.379,-4.706
2544.0,1.115,3.772,5.31,-4.248,4.841,-4.602
2548.0,1.115,3.772,5.31,-4.892,4.841,-4.602
2552.0,1.115,3.772,5.31,-4.892,4.841,-4.602
2556.0,-1.271,3.723,6.762,-5.013,5.014,-4.561
2560.0,-1.271,3.723,6.762,-5.013,5.014,-4.561
2563.0,-1.271,3.453,7.754,-5.013,5.014,-4.561
2567.0,-3.898,3.453,7.754,-5.013,5.015,-4.46
2571.0,-3.898,3.453,7.754,-5.013,5.015,-4.46
2575.0,-6.002,2.869,8.804,-5.013,5.015,-4.244
2579.0,-6.002,2.869,8.804,-5.013,5.015,-4.244
2583.0,-6.002,2.869,9.122,-5.013,5.015,-4.244
2587.0,-7.531,1.715,9.122,-5.013,5.015,-3.891
2591.0,-7.531,1.715,9.122,-5.013,5.015,-3.891
2595.0,-8.46,0.8,8.478,-5.013,5.015,-3.419
2599.0,-8.46,0.8,8.478,-5.013,5.015,-3.419
2603.0,-8.46,0.8,8.478,-5.013,5.015,-3.419
2606.0,-9.287,-0.129,7.806,-5.013,5.015,-2.891
2610.0,-9.287,-0.129,7.806,-5.013,5.015,-2.891
2614.0,-11.069,-0.51,7.701,-5.013,5.015,-2.352
2619.0,-11.069,-0.51,7.701,-5.013,5.015,-2.352
2623.0,-11.069,-1.138,7.813,-5.013,5.015,-2.352
2627.0,-12.949,-1.138,7.813,-5.013,5.015,-1.817
2631.0,-12.949,-1.138,7.813,-5.013,5.015,-1.817
2635.0,-14.661,-2.156,8.679,-5.013,5.015,-1.375
2639.0,-14.661,-2.156,8.679,-5.013,5.015,-1.375
2643.0,-16.455,-2.987,9.157,-5.013,5.015,-1.068
2647.0,-16.455,-2.987,9.157,-4.907,5.015,-1.068
2651.0,-16.455,-2.987,9.157,-4.907,5.015,-1.068
2655.0,-18.043,-3.27,9.218,-4.448,5.015,-0.817
2659.0,-18.043,-3.27,9.218,-4.448,5.015,-0.817
2663.0,-18.827,-3.245,9.06,-4.018,5.015,-0.531
2667.0,-18.827,-3.245,9.06,-4.018,5.015,-0.531
2672.0,-18.827,-3.245,9.06,-4.018,5.015,-0.531
2676.0,-19.226,-2.821,8.91,-3.695,5.015,-0.188
2680.0,-19.226,-2.821,8.91,-3.695,5.015,-0.188
2684.0,-19.596,-2.308,8.773,-3.442,5.015,0.217
2688.0,-19.596,-2.308,8.773,-3.442,5.015,0.217
2692.0,-19.596,-1.805,9.141,-3.442,5.015,0.217
2696.0,-19.6,-1.805,9.141,-3.215,5.015,0.67
2700.0,-19.6,-1.805,9.141,-3.215,5.015,0.67
2704.0,-19.6,-1.488,10.14,-2.981,5.015,1.135
2708.0,-19.6,-1.488,10.14,-2.981,5.015,1.135
2712.0,-19.6,-0.928,10.464,-2.981,5.015,1.558
2716.0,-19.6,-0.928,10.464,-2.706,5.015,1.558
2720.0,-19.6,-0.928,10.464,-2.706,5.015,1.558
2724.0,-19.6,-0.141,10.151,-2.437,5.015,1.924
2728.0,-19.6,-0.141,10.151,-2.437,5.015,1.924
2732.0,-19.6,0.391,9.34,-2.239,5.011,2.232
2736.0,-19.6,0.391,9.34,-2.239,5.011,2.232
2740.0,-19.6,0.391,9.34,-2.239,5.011,2.232
2744.0,-19.6,0.818,7.987,-2.14,4.826,2.469
2748.0,-19.6,0.818,7.987,-2.14,4.826,2.469
2752.0,-19.6,1.232,6.294,-2.149,4.486,2.644
2756.0,-19.6,1.232,6.294,-2.149,4.486,2.644
2760.0,-19.6,1.232,6.294,-2.149,4.486,2.644
2764.0,-19.6,1.518,4.869,-2.269,4.3,2.755
2767.0,-19.6,1.518,4.869,-2.269,4.3,2.755
2771.0,-19.6,1.718,4.01,-2.269,4.231,2.765
2775.0,-19.6,1.718,4.01,-2.486,4.231,2.765
2779.0,-19.6,1.718,4.01,-2.486,4.231,2.765
2783.0,-19.6,1.732,3.736,-2.776,4.176,2.63
2787.0,-19.6,1.732,3.736,-2.776,4.176,2.63
2791.0,-19.6,2.176,4.276,-2.776,4.176,2.311
2795.0,-19.6,2.176,4.276,-3.096,4.045,2.311
2799.0,-19.6,2.176,4.276,-3.096,4.045,2.311
2803.0,-19.6,2.207,4.756,-3.406,3.758,1.829
2807.0,-19.6,2.207,4.756,-3.406,3.758,1.829
2810.0,-19.6,2.612,5.445,-3.406,3.758,1.829
2814.0,-19.6,2.612,5.445,-3.688,3.29,1.21
2818.0,-19.6,2.612,5.445,-3.688,3.29,1.21
2822.0,-18.638,2.783,5.76,-3.939,2.698,0.569
2826.0,-18.638,2.783,5.76,-3.939,2.698,0.569
2830.0,-18.638,2.902,5.825,-3.939,2.698,0.569
2834.0,-16.542,2.902,5.825,-4.14,2.087,-0.043
2838.0,-16.542,2.902,5.825,-4.14,2.087,-0.043
2842.0,-14.361,2.861,5.483,-4.28,1.533,-0.604
2846.0,-14.361,2.861,5.483,-4.28,1.533,-0.604
2850.0,-12.511,2.669,4.957,-4.28,1.533,-0.604
2854.0,-12.511,2.669,4.957,-4.348,1.08,-1.091
2858.0,-12.511,2.669,4.957,-4.348,1.08,-1.091
2862.0,-11.054,2.194,4.431,-4.332,0.752,-1.486
2866.0,-11.054,2.194,4.431,-4.332,0.752,-1.486
2870.0,-10.003,1.606,4.07,-4.332,0.752,-1.784
2874.0,-10.003,1.606,4.07,-4.219,0.544,-1.784
2878.0,-10.003,1.606,4.07,-4.219,0.544,-1.784
2882.0,-9.49,1.068,3.868,-4.038,0.418,-1.996
2886.0,-9.49,1.068,3.868,-4.038,0.418,-1.996
2890.0,-9.489,0.493,3.836,-4.038,0.418,-2.109
2894.0,-9.489,0.493,3.836,-3.81,0.352,-2.109
2897.0,-9.489,0.493,3.836,-3.81,0.352,-2.109
2901.0,-9.773,-0.351,3.672,-3.552,0.308,-2.129
2905.0,-9.773,-0.351,3.672,-3.552,0.308,-2.129
2909.0,-10.168,-1.282,3.494,-3.552,0.308,-2.103
2913.0,-10.168,-1.282,3.494,-3.277,0.279,-2.103
2917.0,-10.168,-1.282,3.494,-3.277,0.279,-2.103
2922.0,-10.36,-2.012,3.399,-2.986,0.251,-2.043
2926.0,-10.36,-2.012,3.399,-2.986,0.251,-2.043
2930.0,-10.288,-2.514,3.593,-2.694,0.209,-1.951
2934.0,-10.288,-2.514,3.593,-2.694,0.209,-1.951
2938.0,-10.288,-2.514,3.593,-2.694,0.209,-1.951
2942.0,-10.177,-3.154,3.783,-2.402,0.149,-1.832
2946.0,-10.177,-3.154,3.783,-2.402,0.149,-1.832
2950.0,-9.983,-3.738,3.899,-2.102,0.078,-1.704
2954.0,-9.983,-3.738,3.899,-2.102,0.078,-1.704
2958.0,-9.983,-3.738,4.211,-2.102,0.078,-1.704
2962.0,-9.879,-4.0,4.211,-1.799,-0.003,-1.571
2966.0,-9.879,-4.0,4.211,-1.799,-0.003,-1.571
2970.0,-9.814,-4.119,4.533,-1.458,-0.094,-1.412
2974.0,-9.814,-4.119,4.533,-1.458,-0.094,-1.412
2978.0,-9.527,-3.913,4.47,-1.458,-0.094,-1.215
2982.0,-9.527,-3.913,4.47,-1.04,-0.187,-1.215
2987.0,-9.527,-3.913,4.47,-1.04,-0.187,-1.215
2991.0,-9.307,-3.289,4.455,-0.541,-0.271,-0.975
2995.0,-9.307,-3.289,4.455,-0.541,-0.271,-0.975
2999.0,-9.36,-2.433,4.379,0.065,-0.342,-0.659
