deltaTime,Acc_X,Acc_Y,Acc_Z,Gyro_X,Gyro_Y,Gyro_Z
0.0,-8.13,-0.575,3.906,-1.296,-0.049,-0.07
3.0,-8.13,-0.575,3.906,-1.296,-0.049,-0.07
6.0,-8.019,-0.751,4.39,-1.461,-0.064,-0.131
9.0,-8.019,-0.751,4.39,-1.461,-0.064,-0.131
12.0,-8.019,-0.751,4.39,-1.461,-0.064,-0.131
15.0,-8.272,-1.356,5.093,-1.59,-0.074,-0.174
18.0,-8.272,-1.356,5.093,-1.59,-0.074,-0.174
21.0,-8.272,-1.356,5.093,-1.59,-0.074,-0.174
24.0,-8.272,-2.145,5.535,-1.59,-0.074,-0.174
27.0,-8.346,-2.145,5.535,-1.608,-0.142,-0.18
30.0,-8.346,-2.145,5.535,-1.608,-0.142,-0.18
34.0,-8.177,-2.914,5.544,-1.608,-0.142,-0.18
38.0,-8.177,-2.914,5.544,-1.5,-0.246,-0.15
42.0,-8.177,-2.914,5.544,-1.5,-0.246,-0.15
46.0,-7.82,-3.702,5.33,-1.276,-0.342,-0.113
50.0,-7.82,-3.702,5.33,-1.276,-0.342,-0.113
54.0,-7.82,-4.232,5.07,-1.276,-0.342,-0.113
58.0,-7.632,-4.232,5.07,-0.945,-0.384,-0.074
62.0,-7.632,-4.232,5.07,-0.945,-0.384,-0.074
66.0,-7.924,-3.861,4.872,-0.578,-0.398,-0.091
69.0,-7.924,-3.861,4.872,-0.578,-0.398,-0.091
73.0,-7.924,-3.861,4.898,-0.578,-0.398,-0.091
77.0,-7.979,-3.15,4.898,-0.291,-0.419,-0.175
81.0,-7.979,-3.15,4.898,-0.291,-0.419,-0.175
85.0,-8.696,-2.436,4.959,-0.103,-0.419,-0.25
89.0,-8.696,-2.436,4.959,-0.103,-0.419,-0.25
93.0,-8.696,-2.436,4.959,-0.103,-0.419,-0.25
97.0,-9.477,-1.985,4.833,0.013,-0.439,-0.265
101.0,-9.477,-1.985,4.833,0.013,-0.439,-0.265
105.0,-10.021,-2.131,4.613,0.09,-0.462,-0.207
109.0,-10.021,-2.131,4.613,0.09,-0.462,-0.207
113.0,-10.021,-2.131,4.613,0.09,-0.462,-0.207
117.0,-9.882,-2.649,4.568,0.174,-0.473,-0.116
120.0,-9.882,-2.649,4.568,0.174,-0.473,-0.116
124.0,-9.233,-3.254,4.645,0.299,-0.463,-0.044
128.0,-9.233,-3.254,4.645,0.299,-0.463,-0.044
132.0,-9.233,-3.254,4.645,0.299,-0.463,-0.044
136.0,-8.573,-3.502,4.667,0.474,-0.448,-0.005
140.0,-8.573,-3.502,4.667,0.474,-0.448,-0.005
144.0,-8.113,-3.451,4.532,0.631,-0.413,0.002
148.0,-8.113,-3.451,4.532,0.631,-0.413,0.002
151.0,-8.113,-3.451,4.532,0.631,-0.413,0.002
155.0,-7.983,-3.007,4.376,0.722,-0.344,0.006
159.0,-7.983,-3.007,4.376,0.722,-0.344,0.006
163.0,-7.907,-2.035,4.228,0.722,-0.274,-0.001
167.0,-7.907,-2.035,4.228,0.689,-0.274,-0.001
171.0,-7.907,-2.035,4.228,0.689,-0.274,-0.001
175.0,-7.89,-1.168,4.16,0.449,-0.21,-0.037
179.0,-7.89,-1.168,4.16,0.449,-0.21,-0.037
182.0,-7.878,-1.385,4.392,0.449,-0.21,-0.069
186.0,-7.878,-1.385,4.392,0.076,-0.145,-0.069
190.0,-7.878,-1.385,4.392,0.076,-0.145,-0.069
194.0,-8.072,-1.779,4.777,-0.236,-0.09,-0.086
198.0,-8.072,-1.779,4.777,-0.236,-0.09,-0.086
202.0,-8.362,-1.972,5.042,-0.236,-0.09,-0.12
206.0,-8.362,-1.972,5.042,-0.444,-0.065,-0.12
210.0,-8.362,-1.972,5.042,-0.444,-0.065,-0.12
214.0,-8.574,-2.128,4.987,-0.572,-0.066,-0.153
218.0,-8.574,-2.128,4.987,-0.572,-0.066,-0.153
222.0,-8.758,-1.905,4.693,-0.572,-0.064,-0.173
226.0,-8.758,-1.905,4.693,-0.646,-0.064,-0.173
230.0,-8.758,-1.905,4.693,-0.646,-0.064,-0.173
234.0,-9.041,-1.788,4.473,-0.73,-0.057,-0.189
238.0,-9.041,-1.788,4.473,-0.73,-0.057,-0.189
242.0,-9.206,-1.89,4.401,-0.795,-0.05,-0.172
246.0,-9.206,-1.89,4.401,-0.795,-0.05,-0.172
250.0,-9.206,-1.89,4.401,-0.795,-0.05,-0.172
254.0,-9.227,-2.087,4.54,-0.816,-0.045,-0.124
258.0,-9.227,-2.087,4.54,-0.816,-0.045,-0.124
262.0,-9.008,-2.277,4.813,-0.797,-0.051,-0.069
266.0,-9.008,-2.277,4.813,-0.797,-0.051,-0.069
270.0,-9.008,-2.277,4.813,-0.797,-0.051,-0.069
274.0,-8.795,-2.16,5.054,-0.772,-0.07,-0.042
278.0,-8.795,-2.16,5.054,-0.772,-0.07,-0.042
282.0,-8.806,-2.177,5.385,-0.805,-0.082,-0.043
286.0,-8.806,-2.177,5.385,-0.805,-0.082,-0.043
290.0,-8.806,-2.177,5.385,-0.805,-0.082,-0.043
294.0,-9.02,-2.072,5.712,-0.826,-0.15,-0.052
298.0,-9.02,-2.072,5.712,-0.826,-0.15,-0.052
302.0,-9.205,-2.455,6.033,-0.867,-0.225,-0.09
306.0,-9.205,-2.455,6.033,-0.867,-0.225,-0.09
310.0,-9.205,-2.455,6.033,-0.867,-0.225,-0.09
314.0,-9.087,-2.549,5.927,-0.838,-0.306,-0.122
318.0,-9.087,-2.549,5.927,-0.838,-0.306,-0.122
322.0,-8.599,-2.503,5.772,-0.749,-0.406,-0.125
326.0,-8.599,-2.503,5.772,-0.749,-0.406,-0.125
330.0,-8.599,-2.503,5.691,-0.749,-0.406,-0.125
334.0,-8.68,-2.71,5.691,-0.643,-0.417,-0.047
338.0,-8.68,-2.71,5.691,-0.643,-0.417,-0.047
342.0,-9.445,-2.804,5.544,-0.496,-0.451,0.08
346.0,-9.445,-2.804,5.544,-0.496,-0.451,0.08
350.0,-9.445,-2.804,5.346,-0.496,-0.451,0.08
354.0,-9.817,-2.891,5.346,-0.321,-0.576,0.167
358.0,-9.817,-2.891,5.346,-0.321,-0.576,0.167
361.0,-9.917,-2.994,5.124,-0.134,-0.722,0.213
365.0,-9.917,-2.994,5.124,-0.134,-0.722,0.213
369.0,-9.917,-2.994,5.124,-0.134,-0.722,0.213
373.0,-9.827,-3.153,5.067,0.04,-0.837,0.249
377.0,-9.827,-3.153,5.067,0.04,-0.837,0.249
381.0,-9.737,-3.479,5.361,0.208,-0.902,0.296
385.0,-9.737,-3.479,5.361,0.208,-0.902,0.296
388.0,-9.737,-3.479,5.361,0.208,-0.902,0.296
392.0,-9.657,-3.626,5.805,0.421,-0.932,0.364
396.0,-9.657,-3.626,5.805,0.421,-0.932,0.364
400.0,-9.674,-3.29,6.482,0.661,-0.949,0.415
404.0,-9.674,-3.29,6.482,0.661,-0.949,0.415
408.0,-9.674,-3.29,6.482,0.661,-0.949,0.415
411.0,-10.069,-3.004,7.365,0.88,-0.992,0.431
415.0,-10.069,-3.004,7.365,0.88,-0.992,0.431
419.0,-10.701,-2.596,8.394,0.88,-0.992,0.431
423.0,-10.701,-2.596,8.394,1.081,-1.088,0.434
427.0,-10.701,-2.596,8.394,1.081,-1.088,0.434
431.0,-11.256,-2.196,9.626,1.274,-1.253,0.451
435.0,-11.256,-2.196,9.626,1.274,-1.253,0.451
439.0,-11.256,-2.128,10.728,1.274,-1.253,0.451
443.0,-11.586,-2.128,10.728,1.455,-1.486,0.494
447.0,-11.586,-2.128,10.728,1.455,-1.486,0.494
451.0,-11.496,-2.222,11.369,1.624,-1.738,0.548
455.0,-11.496,-2.222,11.369,1.624,-1.738,0.548
459.0,-10.883,-2.097,11.651,1.624,-1.738,0.548
463.0,-10.883,-2.097,11.651,1.78,-1.928,0.602
467.0,-10.883,-2.097,11.651,1.78,-1.928,0.602
471.0,-10.067,-2.176,11.99,1.902,-2.026,0.669
475.0,-10.067,-2.176,11.99,1.902,-2.026,0.669
479.0,-9.598,-2.481,12.659,1.902,-2.026,0.725
483.0,-9.598,-2.481,12.659,1.985,-2.079,0.725
486.0,-9.598,-2.481,12.659,1.985,-2.079,0.725
490.0,-9.681,-2.709,13.666,2.042,-2.156,0.734
494.0,-9.681,-2.709,13.666,2.042,-2.156,0.734
498.0,-10.287,-2.807,14.672,2.042,-2.156,0.734
502.0,-10.287,-2.807,14.672,2.071,-2.317,0.685
506.0,-10.287,-2.807,14.672,2.071,-2.317,0.685
510.0,-11.18,-2.797,15.476,2.077,-2.577,0.599
514.0,-11.18,-2.797,15.476,2.077,-2.577,0.599
518.0,-11.827,-2.685,16.0,2.077,-2.577,0.507
522.0,-11.827,-2.685,16.0,2.085,-2.91,0.507
526.0,-11.827,-2.685,16.0,2.085,-2.91,0.507
530.0,-11.95,-2.574,16.347,2.105,-3.28,0.425
534.0,-11.95,-2.574,16.347,2.105,-3.28,0.425
538.0,-11.783,-2.716,16.452,2.11,-3.65,0.349
542.0,-11.783,-2.716,16.452,2.11,-3.65,0.349
546.0,-11.783,-2.716,16.452,2.11,-3.65,0.349
550.0,-11.527,-3.041,16.494,2.064,-3.985,0.254
554.0,-11.527,-3.041,16.494,2.064,-3.985,0.254
558.0,-11.392,-3.532,16.804,1.967,-4.276,0.129
562.0,-11.392,-3.532,16.804,1.967,-4.276,0.129
566.0,-11.392,-3.532,16.804,1.967,-4.276,0.129
570.0,-11.742,-4.265,17.227,1.848,-4.558,-0.029
574.0,-11.742,-4.265,17.227,1.848,-4.558,-0.029
578.0,-12.227,-4.908,17.287,1.721,-4.85,-0.216
582.0,-12.227,-4.908,17.287,1.721,-4.85,-0.216
586.0,-12.227,-4.908,17.287,1.721,-4.85,-0.216
590.0,-12.315,-5.502,17.024,1.597,-4.987,-0.404
595.0,-12.315,-5.502,17.024,1.597,-4.987,-0.404
599.0,-12.114,-6.361,16.687,1.533,-4.992,-0.589
603.0,-12.114,-6.361,16.687,1.533,-4.992,-0.589
607.0,-11.681,-7.278,16.153,1.533,-4.992,-0.589
611.0,-11.681,-7.278,16.153,1.582,-4.992,-0.795
615.0,-11.681,-7.278,16.153,1.582,-4.992,-0.795
619.0,-11.022,-7.903,15.23,1.756,-4.992,-1.019
623.0,-11.022,-7.903,15.23,1.756,-4.992,-1.019
627.0,-10.326,-8.368,14.427,2.026,-4.992,-1.237
631.0,-10.326,-8.368,14.427,2.026,-4.992,-1.237
635.0,-10.326,-8.368,14.427,2.026,-4.992,-1.237
639.0,-9.84,-8.894,13.82,2.341,-4.992,-1.446
643.0,-9.84,-8.894,13.82,2.341,-4.992,-1.446
647.0,-9.306,-9.163,13.034,2.659,-4.992,-1.665
651.0,-9.306,-9.163,13.034,2.659,-4.992,-1.665
655.0,-9.306,-9.163,13.034,2.659,-4.992,-1.665
659.0,-8.969,-9.077,11.883,2.999,-4.992,-1.885
663.0,-8.969,-9.077,11.883,2.999,-4.992,-1.885
667.0,-7.705,-8.586,10.555,3.384,-4.992,-2.07
671.0,-7.705,-8.586,10.555,3.384,-4.992,-2.07
675.0,-7.705,-8.586,9.192,3.384,-4.992,-2.07
679.0,-6.579,-8.062,9.192,3.75,-4.992,-2.22
683.0,-6.579,-8.062,9.192,3.75,-4.992,-2.22
687.0,-5.738,-7.561,7.966,4.072,-4.992,-2.325
691.0,-5.738,-7.561,7.966,4.072,-4.992,-2.325
695.0,-5.738,-7.561,7.966,4.072,-4.992,-2.325
699.0,-5.237,-6.804,6.75,4.357,-4.992,-2.388
703.0,-5.237,-6.804,6.75,4.357,-4.992,-2.388
707.0,-4.338,-5.587,5.654,4.618,-4.992,-2.412
711.0,-4.338,-5.587,5.654,4.618,-4.992,-2.412
714.0,-4.338,-5.587,5.654,4.618,-4.992,-2.412
718.0,-3.845,-4.357,4.713,4.811,-4.992,-2.408
722.0,-3.845,-4.357,4.713,4.811,-4.992,-2.408
726.0,-3.452,-3.266,3.781,4.94,-4.992,-2.36
730.0,-3.452,-3.266,3.781,4.94,-4.992,-2.36
734.0,-3.452,-3.266,3.781,4.94,-4.992,-2.36
738.0,-3.041,-2.102,3.089,4.987,-4.992,-2.276
742.0,-3.041,-2.102,3.089,4.987,-4.992,-2.276
746.0,-2.908,-0.988,2.847,4.993,-4.992,-2.178
750.0,-2.908,-0.988,2.847,4.993,-4.992,-2.178
753.0,-2.908,-0.988,2.847,4.993,-4.992,-2.178
757.0,-2.674,0.382,2.783,4.995,-4.992,-2.074
761.0,-2.674,0.382,2.783,4.995,-4.992,-2.074
765.0,-2.582,1.925,2.887,4.995,-4.97,-1.943
769.0,-2.582,1.925,2.887,4.995,-4.97,-1.943
773.0,-2.582,1.925,2.887,4.995,-4.97,-1.943
776.0,-2.212,2.771,2.682,4.994,-4.872,-1.772
780.0,-2.212,2.771,2.682,4.994,-4.872,-1.772
784.0,-2.212,3.507,2.166,4.994,-4.872,-1.772
788.0,-1.397,3.507,2.166,4.988,-4.74,-1.591
792.0,-1.397,3.507,2.166,4.988,-4.74,-1.591
796.0,-0.383,4.604,1.573,4.979,-4.561,-1.403
799.0,-0.383,4.604,1.573,4.979,-4.561,-1.403
803.0,-0.383,4.604,1.573,4.979,-4.561,-1.403
807.0,0.472,6.206,0.447,4.953,-4.289,-1.21
811.0,0.472,6.206,0.447,4.953,-4.289,-1.21
815.0,1.777,8.097,-0.855,4.894,-3.945,-0.993
818.0,1.777,8.097,-0.855,4.894,-3.945,-0.993
822.0,1.777,8.097,-0.855,4.894,-3.945,-0.993
826.0,3.146,9.692,-1.994,4.791,-3.52,-0.766
830.0,3.146,9.692,-1.994,4.791,-3.52,-0.766
834.0,3.146,11.216,-3.031,4.791,-3.52,-0.766
838.0,4.448,11.216,-3.031,4.645,-3.06,-0.545
841.0,4.448,11.216,-3.031,4.645,-3.06,-0.545
845.0,5.721,12.986,-4.146,4.475,-2.582,-0.298
849.0,5.721,12.986,-4.146,4.475,-2.582,-0.298
853.0,5.721,12.986,-5.308,4.475,-2.582,-0.298
857.0,7.227,14.307,-5.308,4.279,-2.068,0.016
861.0,7.227,14.307,-5.308,4.279,-2.068,0.016
865.0,9.012,15.387,-6.454,4.099,-1.478,0.392
869.0,9.012,15.387,-6.454,4.099,-1.478,0.392
872.0,9.012,15.387,-6.454,4.099,-1.478,0.392
876.0,10.704,16.366,-7.338,3.978,-0.81,0.824
880.0,10.704,16.366,-7.338,3.978,-0.81,0.824
884.0,11.903,17.002,-8.24,3.896,-0.075,1.326
888.0,11.903,17.002,-8.24,3.896,-0.075,1.326
892.0,11.903,17.002,-8.24,3.896,-0.075,1.326
896.0,12.949,17.331,-8.705,3.832,0.662,1.892
899.0,12.949,17.331,-8.705,3.832,0.662,1.892
903.0,13.527,17.544,-9.403,3.832,1.445,2.484
907.0,13.527,17.544,-9.403,3.751,1.445,2.484
911.0,13.527,17.544,-9.403,3.751,1.445,2.484
915.0,13.711,17.99,-10.114,3.624,2.268,3.077
919.0,13.711,17.99,-10.114,3.624,2.268,3.077
923.0,13.073,18.314,-9.867,3.624,2.268,3.077
926.0,13.073,18.314,-9.867,3.394,3.109,3.663
930.0,13.073,18.314,-9.867,3.394,3.109,3.663
934.0,11.397,18.096,-8.828,2.962,3.896,4.233
938.0,11.397,18.096,-8.828,2.962,3.896,4.233
942.0,11.397,18.096,-8.828,2.962,3.896,4.233
945.0,8.575,17.25,-7.375,2.292,4.582,4.757
949.0,8.575,17.25,-7.375,2.292,4.582,4.757
953.0,4.617,15.613,-5.944,1.432,4.98,5.003
957.0,4.617,15.613,-5.944,1.432,4.98,5.003
960.0,4.617,15.613,-5.944,1.432,4.98,5.003
964.0,-0.045,13.292,-4.522,0.449,5.015,5.013
968.0,-0.045,13.292,-4.522,0.449,5.015,5.013
972.0,-5.378,10.539,-2.396,0.449,5.015,5.013
976.0,-5.378,10.539,-2.396,-0.615,5.015,5.013
980.0,-5.378,10.539,-2.396,-0.615,5.015,5.013
983.0,-11.575,7.28,0.82,-1.778,5.015,5.013
987.0,-11.575,7.28,0.82,-1.778,5.015,5.013
991.0,-11.575,7.28,0.82,-1.778,5.015,5.013
995.0,-18.503,3.477,4.728,-3.039,4.862,5.013
999.0,-18.503,3.477,4.728,-3.039,4.862,5.013
1003.0,-19.6,-2.378,5.405,-4.174,3.964,4.998
1007.0,-19.6,-2.378,5.405,-4.174,3.964,4.998
1011.0,-19.6,-2.378,5.405,-4.174,3.964,4.998
1015.0,-19.6,-6.614,5.521,-4.825,2.524,4.615
1019.0,-19.6,-6.614,5.521,-4.825,2.524,4.615
1022.0,-19.6,-11.402,6.736,-5.007,0.935,3.69
1027.0,-19.6,-11.402,6.736,-5.007,0.935,3.69
1031.0,-19.6,-11.402,6.736,-5.007,0.935,3.69
1035.0,-18.059,-15.934,7.051,-4.994,-0.576,2.088
1039.0,-18.059,-15.934,7.051,-4.994,-0.576,2.088
1043.0,-14.003,-17.384,6.928,-4.725,-1.809,0.126
1047.0,-14.003,-17.384,6.928,-4.725,-1.809,0.126
1051.0,-10.148,-16.651,6.236,-4.073,-2.512,-1.485
1056.0,-10.148,-16.651,6.236,-4.073,-2.512,-1.485
1060.0,-10.148,-16.651,6.236,-4.073,-2.512,-1.485
1064.0,-7.037,-15.525,5.791,-3.052,-2.789,-2.524
1068.0,-7.037,-15.525,5.791,-3.052,-2.789,-2.524
1072.0,-4.75,-15.089,5.076,-1.752,-2.931,-3.149
1077.0,-4.75,-15.089,5.076,-1.752,-2.931,-3.149
1081.0,-3.008,-14.536,3.392,-1.752,-3.02,-3.579
1085.0,-3.008,-14.536,3.392,-0.347,-3.02,-3.579
1089.0,-3.008,-14.536,3.392,-0.347,-3.02,-3.579
1093.0,-1.962,-13.133,1.527,0.98,-2.998,-3.887
1097.0,-1.962,-13.133,1.527,0.98,-2.998,-3.887
1101.0,-1.464,-10.804,-0.031,2.042,-2.883,-4.054
1106.0,-1.464,-10.804,-0.031,2.042,-2.883,-4.054
1110.0,-1.464,-10.804,-0.806,2.042,-2.883,-4.054
1114.0,-1.154,-7.903,-0.806,2.721,-2.762,-4.128
1118.0,-1.154,-7.903,-0.806,2.721,-2.762,-4.128
1122.0,-0.824,-4.895,-0.702,3.023,-2.717,-4.19
1126.0,-0.824,-4.895,-0.702,3.023,-2.717,-4.19
1130.0,-0.203,-1.823,-0.615,3.023,-2.757,-4.292
1134.0,-0.203,-1.823,-0.615,3.043,-2.757,-4.292
1138.0,-0.203,-1.823,-0.615,3.043,-2.757,-4.292
1143.0,1.054,1.05,-0.748,2.894,-2.825,-4.412
1146.0,1.054,1.05,-0.748,2.894,-2.825,-4.412
1150.0,3.272,3.732,-0.829,2.679,-2.879,-4.53
1154.0,3.272,3.732,-0.829,2.679,-2.879,-4.53
1158.0,3.272,3.732,-0.829,2.679,-2.879,-4.53
1162.0,5.814,5.964,-0.797,2.492,-2.932,-4.663
1166.0,5.814,5.964,-0.797,2.492,-2.932,-4.663
1170.0,8.136,7.774,-0.808,2.335,-3.018,-4.769
1174.0,8.136,7.774,-0.808,2.335,-3.018,-4.769
1178.0,8.136,7.774,-0.808,2.335,-3.018,-4.769
1182.0,9.77,9.334,-1.393,2.159,-3.084,-4.816
1186.0,9.77,9.334,-1.393,2.159,-3.084,-4.816
1189.0,10.131,10.943,-1.948,2.159,-3.108,-4.823
1194.0,10.131,10.943,-1.948,1.951,-3.108,-4.823
1198.0,10.131,10.943,-1.948,1.951,-3.108,-4.823
1202.0,9.723,12.728,-2.896,1.76,-3.094,-4.795
1206.0,9.723,12.728,-2.896,1.76,-3.094,-4.795
1210.0,9.671,15.427,-5.067,1.619,-3.071,-4.724
1214.0,9.671,15.427,-5.067,1.619,-3.071,-4.724
1218.0,9.671,15.427,-5.067,1.619,-3.071,-4.724
1222.0,11.185,18.778,-8.161,1.542,-2.987,-4.538
1226.0,11.185,18.778,-8.161,1.542,-2.987,-4.538
1230.0,13.248,19.595,-11.357,1.486,-2.779,-4.21
1234.0,13.248,19.595,-11.357,1.486,-2.779,-4.21
1238.0,13.248,19.595,-14.609,1.486,-2.779,-4.21
1242.0,15.022,19.596,-14.609,1.35,-2.435,-3.752
1246.0,15.022,19.596,-14.609,1.35,-2.435,-3.752
1251.0,16.427,19.596,-16.739,1.076,-1.912,-3.098
1255.0,16.427,19.596,-16.739,1.076,-1.912,-3.098
1259.0,16.271,19.596,-16.74,0.631,-1.235,-2.315
1263.0,16.271,19.596,-16.74,0.631,-1.235,-2.315
1267.0,16.271,19.596,-16.74,0.631,-1.235,-2.315
1271.0,14.626,19.596,-15.315,0.2,-0.52,-1.479
1276.0,14.626,19.596,-15.315,0.2,-0.52,-1.479
1280.0,13.115,19.596,-13.477,0.038,0.153,-0.585
1284.0,13.115,19.596,-13.477,0.038,0.153,-0.585
1288.0,12.546,19.596,-12.534,0.038,0.153,0.347
1292.0,12.546,19.596,-12.534,0.221,0.751,0.347
1296.0,12.546,19.596,-12.534,0.221,0.751,0.347
1300.0,12.98,19.596,-13.339,0.595,1.361,1.332
1304.0,12.98,19.596,-13.339,0.595,1.361,1.332
1308.0,13.913,19.596,-14.642,0.595,2.086,2.315
1312.0,13.913,19.596,-14.642,0.955,2.086,2.315
1316.0,13.913,19.596,-14.642,0.955,2.086,2.315
1320.0,14.353,19.596,-14.664,1.169,2.9,3.177
1324.0,14.353,19.596,-14.664,1.169,2.9,3.177
1328.0,14.244,19.596,-14.086,1.159,3.698,3.906
1332.0,14.244,19.596,-14.086,1.159,3.698,3.906
1336.0,14.244,19.596,-14.086,1.159,3.698,3.906
1340.0,13.455,19.596,-13.232,0.97,4.445,4.557
1344.0,13.455,19.596,-13.232,0.97,4.445,4.557
1348.0,11.952,19.596,-12.2,0.7,4.956,4.975
1352.0,11.952,19.596,-12.2,0.7,4.956,4.975
1356.0,11.952,19.596,-12.2,0.7,4.956,4.975
1360.0,9.891,19.461,-10.246,0.372,5.015,5.013
1364.0,9.891,19.461,-10.246,0.372,5.015,5.013
1368.0,6.772,17.027,-7.208,-0.015,5.015,5.013
1372.0,6.772,17.027,-7.208,-0.015,5.015,5.013
1375.0,6.772,17.027,-7.208,-0.015,5.015,5.013
1379.0,2.372,13.93,-4.421,-0.455,5.015,5.013
1383.0,2.372,13.93,-4.421,-0.455,5.015,5.013
1387.0,-3.053,11.517,-2.206,-0.94,5.015,5.013
1391.0,-3.053,11.517,-2.206,-0.94,5.015,5.013
1395.0,-3.053,11.517,-2.206,-0.94,5.015,5.013
1399.0,-9.624,9.266,0.323,-1.547,5.015,5.013
1403.0,-9.624,9.266,0.323,-1.547,5.015,5.013
1407.0,-16.533,6.82,1.622,-2.356,5.015,5.013
1411.0,-16.533,6.82,1.622,-2.356,5.015,5.013
1415.0,-16.533,6.82,1.622,-2.356,5.015,5.013
1418.0,-19.595,4.228,1.782,-3.299,5.015,5.013
1422.0,-19.595,4.228,1.782,-3.299,5.015,5.013
1426.0,-19.6,-2.529,2.215,-3.299,5.007,5.013
1430.0,-19.6,-2.529,2.215,-4.026,5.007,5.013
1434.0,-19.6,-2.529,2.215,-4.026,5.007,5.013
1438.0,-19.6,-8.509,6.772,-3.989,4.335,5.013
1442.0,-19.6,-8.509,6.772,-3.989,4.335,5.013
1446.0,-19.118,-13.175,6.964,-3.353,2.638,4.944
1450.0,-19.118,-13.175,6.964,-3.353,2.638,4.944
1454.0,-19.118,-13.175,6.964,-3.353,2.638,4.944
1459.0,-11.523,-15.837,4.56,-2.412,1.226,4.084
1463.0,-11.523,-15.837,4.56,-2.412,1.226,4.084
1467.0,-4.164,-14.516,4.168,-1.538,0.218,2.526
1471.0,-4.164,-14.516,4.168,-1.538,0.218,2.526
1475.0,-4.164,-14.516,4.168,-1.538,0.218,2.526
1479.0,-0.583,-11.11,4.753,-0.936,-0.538,1.015
1483.0,-0.583,-11.11,4.753,-0.936,-0.538,1.015
1487.0,1.448,-7.968,4.667,-0.547,-1.178,-0.166
1491.0,1.448,-7.968,4.667,-0.547,-1.178,-0.166
1495.0,1.448,-5.942,3.876,-0.547,-1.178,-0.166
1499.0,2.62,-5.942,3.876,-0.372,-1.641,-1.014
1503.0,2.62,-5.942,3.876,-0.372,-1.641,-1.014
1507.0,3.327,-4.658,2.566,-0.412,-1.867,-1.583
1511.0,3.327,-4.658,2.566,-0.412,-1.867,-1.583
1515.0,4.452,-3.514,0.982,-0.412,-1.867,-1.583
1519.0,4.452,-3.514,0.982,-0.612,-1.87,-1.903
1523.0,4.452,-3.514,0.982,-0.612,-1.87,-1.903
1527.0,6.65,-2.4,-0.39,-0.864,-1.691,-2.008
1531.0,6.65,-2.4,-0.39,-0.864,-1.691,-2.008
1535.0,10.398,-1.342,-0.767,-0.864,-1.331,-1.966
1539.0,10.398,-1.342,-0.767,-1.071,-1.331,-1.966
1543.0,10.398,-1.342,-0.767,-1.071,-1.331,-1.966
1547.0,14.026,-0.103,0.435,-1.16,-0.814,-1.828
1551.0,14.026,-0.103,0.435,-1.16,-0.814,-1.828
1556.0,15.528,1.229,1.474,-1.115,-0.338,-1.568
1560.0,15.528,1.229,1.474,-1.115,-0.338,-1.568
1564.0,15.528,1.229,1.474,-1.115,-0.338,-1.568
1568.0,14.694,2.221,2.052,-0.97,0.019,-1.186
1571.0,14.694,2.221,2.052,-0.97,0.019,-1.186
1575.0,12.852,2.367,2.386,-0.744,0.244,-0.77
1579.0,12.852,2.367,2.386,-0.744,0.244,-0.77
1583.0,12.852,2.367,2.386,-0.744,0.244,-0.77
1587.0,11.406,1.985,2.596,-0.453,0.329,-0.456
1591.0,11.406,1.985,2.596,-0.453,0.329,-0.456
1595.0,10.177,1.892,2.617,-0.135,0.335,-0.32
1599.0,10.177,1.892,2.617,-0.135,0.335,-0.32
1603.0,10.177,1.892,2.617,-0.135,0.335,-0.32
1607.0,9.101,2.3,2.55,0.171,0.323,-0.302
1610.0,9.101,2.3,2.55,0.171,0.323,-0.302
1614.0,8.646,3.022,2.329,0.439,0.305,-0.313
1618.0,8.646,3.022,2.329,0.439,0.305,-0.313
1622.0,8.646,3.022,2.329,0.439,0.305,-0.313
1625.0,8.569,3.599,2.226,0.649,0.304,-0.306
1629.0,8.569,3.599,2.226,0.649,0.304,-0.306
1633.0,8.569,3.599,2.226,0.649,0.304,-0.306
1636.0,8.509,3.619,2.384,0.775,0.306,-0.276
1640.0,8.509,3.619,2.384,0.775,0.306,-0.276
1644.0,8.256,3.395,2.559,0.824,0.305,-0.268
1648.0,8.256,3.395,2.559,0.824,0.305,-0.268
1651.0,8.256,3.395,2.559,0.824,0.305,-0.268
1655.0,7.779,3.318,2.697,0.828,0.315,-0.304
1659.0,7.779,3.318,2.697,0.828,0.315,-0.304
1663.0,7.779,3.455,2.867,0.828,0.315,-0.304
1666.0,7.199,3.455,2.867,0.809,0.337,-0.358
1670.0,7.199,3.455,2.867,0.809,0.337,-0.358
1674.0,6.8,3.65,2.877,0.772,0.356,-0.402
1678.0,6.8,3.65,2.877,0.772,0.356,-0.402
1681.0,6.8,3.65,2.877,0.772,0.356,-0.402
1685.0,6.535,3.909,2.885,0.732,0.381,-0.435
1689.0,6.535,3.909,2.885,0.732,0.381,-0.435
1692.0,6.261,3.962,2.968,0.732,0.381,-0.435
1696.0,6.261,3.962,2.968,0.704,0.399,-0.454
1700.0,6.261,3.962,2.968,0.704,0.399,-0.454
1704.0,6.173,4.098,2.952,0.688,0.397,-0.472
1707.0,6.173,4.098,2.952,0.688,0.397,-0.472
1711.0,6.173,4.098,2.952,0.688,0.397,-0.472
1715.0,6.0,4.209,2.81,0.68,0.392,-0.468
1719.0,6.0,4.209,2.81,0.68,0.392,-0.468
1722.0,6.091,4.134,2.551,0.68,0.392,-0.445
1726.0,6.091,4.134,2.551,0.676,0.371,-0.445
1730.0,6.091,4.134,2.551,0.676,0.371,-0.445
1734.0,6.322,4.082,2.332,0.672,0.338,-0.45
1737.0,6.322,4.082,2.332,0.672,0.338,-0.45
1741.0,6.322,4.082,2.332,0.672,0.338,-0.45
1745.0,6.717,4.293,1.953,0.655,0.303,-0.475
1748.0,6.717,4.293,1.953,0.655,0.303,-0.475
1752.0,7.244,4.625,1.704,0.628,0.305,-0.472
1756.0,7.244,4.625,1.704,0.628,0.305,-0.472
1760.0,7.244,4.625,1.704,0.628,0.305,-0.472
1763.0,7.68,4.77,1.717,0.597,0.342,-0.407
1767.0,7.68,4.77,1.717,0.597,0.342,-0.407
1771.0,7.68,4.77,1.717,0.597,0.342,-0.407
1775.0,8.091,4.74,1.886,0.562,0.389,-0.316
1778.0,8.091,4.74,1.886,0.562,0.389,-0.316
1782.0,8.018,4.799,2.131,0.52,0.446,-0.258
1786.0,8.018,4.799,2.131,0.52,0.446,-0.258
1790.0,8.018,4.799,2.131,0.52,0.446,-0.258
1793.0,7.497,4.991,2.406,0.467,0.5,-0.228
1797.0,7.497,4.991,2.406,0.467,0.5,-0.228
1801.0,7.497,4.991,2.7,0.467,0.5,-0.228
1804.0,6.987,5.121,2.7,0.407,0.538,-0.216
1808.0,6.987,5.121,2.7,0.407,0.538,-0.216
1812.0,6.765,5.129,2.958,0.349,0.551,-0.226
1816.0,6.765,5.129,2.958,0.349,0.551,-0.226
1819.0,6.765,5.129,2.958,0.349,0.551,-0.226
1823.0,6.769,5.063,3.195,0.301,0.537,-0.256
1827.0,6.769,5.063,3.195,0.301,0.537,-0.256
1831.0,6.82,5.139,3.353,0.301,0.537,-0.256
1834.0,6.82,5.139,3.353,0.275,0.513,-0.298
1838.0,6.82,5.139,3.353,0.275,0.513,-0.298
1842.0,7.024,5.285,3.383,0.276,0.494,-0.315
1845.0,7.024,5.285,3.383,0.276,0.494,-0.315
1849.0,7.024,5.285,3.383,0.276,0.494,-0.315
1853.0,7.407,5.195,3.426,0.293,0.481,-0.3
1857.0,7.407,5.195,3.426,0.293,0.481,-0.3
1860.0,7.644,5.076,3.607,0.293,0.481,-0.296
1864.0,7.644,5.076,3.607,0.316,0.465,-0.296
1868.0,7.644,5.076,3.607,0.316,0.465,-0.296
1872.0,7.527,5.068,3.808,0.349,0.44,-0.314
1875.0,7.527,5.068,3.808,0.349,0.44,-0.314
1879.0,7.527,5.068,3.808,0.349,0.44,-0.314
1883.0,7.177,5.095,3.97,0.388,0.41,-0.323
1887.0,7.177,5.095,3.97,0.388,0.41,-0.323
1890.0,6.829,5.151,4.137,0.388,0.38,-0.31
1894.0,6.829,5.151,4.137,0.43,0.38,-0.31
1898.0,6.829,5.151,4.137,0.43,0.38,-0.31
1901.0,6.755,5.27,4.127,0.48,0.349,-0.262
1905.0,6.755,5.27,4.127,0.48,0.349,-0.262
1909.0,6.755,5.27,4.127,0.48,0.349,-0.262
1913.0,7.125,5.219,4.161,0.536,0.316,-0.182
1916.0,7.125,5.219,4.161,0.536,0.316,-0.182
1920.0,7.69,5.078,4.183,0.596,0.276,-0.1
1924.0,7.69,5.078,4.183,0.596,0.276,-0.1
1928.0,7.69,5.078,4.183,0.596,0.276,-0.1
1931.0,8.082,4.953,4.12,0.658,0.23,-0.045
1935.0,8.082,4.953,4.12,0.658,0.23,-0.045
1939.0,8.082,4.953,3.991,0.658,0.23,-0.045
1943.0,8.098,4.854,3.991,0.715,0.176,-0.024
1946.0,8.098,4.854,3.991,0.715,0.176,-0.024
1950.0,7.78,4.863,3.84,0.758,0.123,-0.029
1954.0,7.78,4.863,3.84,0.758,0.123,-0.029
1957.0,7.78,4.863,3.84,0.758,0.123,-0.029
1961.0,7.616,4.93,3.723,0.784,0.069,-0.043
1965.0,7.616,4.93,3.723,0.784,0.069,-0.043
1969.0,7.616,5.056,3.671,0.784,0.069,-0.043
1972.0,7.856,5.056,3.671,0.792,0.02,-0.056
1976.0,7.856,5.056,3.671,0.792,0.02,-0.056
1980.0,8.553,5.129,3.602,0.778,-0.021,-0.053
1984.0,8.553,5.129,3.602,0.778,-0.021,-0.053
1988.0,8.553,5.129,3.602,0.778,-0.021,-0.053
1991.0,9.559,5.139,3.432,0.738,-0.04,-0.051
1995.0,9.559,5.139,3.432,0.738,-0.04,-0.051
1999.0,10.318,5.117,3.299,0.676,-0.028,-0.078
2003.0,10.318,5.117,3.299,0.676,-0.028,-0.078
2007.0,10.318,5.117,3.299,0.676,-0.028,-0.078
2011.0,10.88,5.073,3.173,0.593,0.0,-0.132
2014.0,10.88,5.073,3.173,0.593,0.0,-0.132
2018.0,11.099,5.079,3.245,0.593,0.0,-0.21
2022.0,11.099,5.079,3.245,0.493,0.046,-0.21
2026.0,11.099,5.079,3.245,0.493,0.046,-0.21
2030.0,11.056,5.143,3.536,0.381,0.094,-0.299
2034.0,11.056,5.143,3.536,0.381,0.094,-0.299
2037.0,11.056,5.143,3.536,0.381,0.094,-0.299
2041.0,10.759,5.271,3.987,0.258,0.132,-0.39
2045.0,10.759,5.271,3.987,0.258,0.132,-0.39
2049.0,10.301,5.428,4.516,0.142,0.145,-0.468
2053.0,10.301,5.428,4.516,0.142,0.145,-0.468
2057.0,10.301,5.428,4.516,0.142,0.145,-0.468
2060.0,9.855,5.501,4.925,0.041,0.124,-0.518
2064.0,9.855,5.501,4.925,0.041,0.124,-0.518
2068.0,9.358,5.478,5.132,0.041,0.124,-0.529
2072.0,9.358,5.478,5.132,-0.039,0.081,-0.529
2075.0,9.358,5.478,5.132,-0.039,0.081,-0.529
2079.0,8.896,5.268,5.096,-0.097,0.036,-0.496
2083.0,8.896,5.268,5.096,-0.097,0.036,-0.496
2087.0,8.896,5.268,5.064,-0.097,0.036,-0.496
2091.0,8.503,4.908,5.064,-0.139,0.004,-0.434
2094.0,8.503,4.908,5.064,-0.139,0.004,-0.434
2098.0,8.135,4.566,4.937,-0.169,-0.006,-0.357
2102.0,8.135,4.566,4.937,-0.169,-0.006,-0.357
2106.0,8.135,4.566,4.937,-0.169,-0.006,-0.357
2110.0,7.621,4.237,4.704,-0.192,0.003,-0.259
2114.0,7.621,4.237,4.704,-0.192,0.003,-0.259
2118.0,7.186,3.897,4.402,-0.209,0.003,-0.143
2121.0,7.186,3.897,4.402,-0.209,0.003,-0.143
2125.0,7.186,3.897,4.402,-0.209,0.003,-0.143
2129.0,7.43,3.58,4.059,-0.223,-0.029,-0.052
2133.0,7.43,3.58,4.059,-0.223,-0.029,-0.052
2137.0,8.462,3.407,3.794,-0.223,-0.029,-0.032
2141.0,8.462,3.407,3.794,-0.24,-0.075,-0.032
2145.0,8.462,3.407,3.794,-0.24,-0.075,-0.032
2149.0,9.577,3.442,3.684,-0.271,-0.106,-0.077
2153.0,9.577,3.442,3.684,-0.271,-0.106,-0.077
2156.0,10.234,3.617,3.607,-0.271,-0.106,-0.077
2160.0,10.234,3.617,3.607,-0.323,-0.095,-0.148
2164.0,10.234,3.617,3.607,-0.323,-0.095,-0.148
2168.0,10.437,3.778,3.668,-0.394,-0.022,-0.206
2172.0,10.437,3.778,3.668,-0.394,-0.022,-0.206
2176.0,10.336,3.924,3.924,-0.394,-0.022,-0.244
2180.0,10.336,3.924,3.924,-0.473,0.098,-0.244
2184.0,10.336,3.924,3.924,-0.473,0.098,-0.244
2188.0,10.018,4.008,4.336,-0.548,0.233,-0.262
2192.0,10.018,4.008,4.336,-0.548,0.233,-0.262
2196.0,9.52,4.019,4.725,-0.548,0.233,-0.268
2200.0,9.52,4.019,4.725,-0.607,0.35,-0.268
2204.0,9.52,4.019,4.725,-0.607,0.35,-0.268
2207.0,9.096,3.9,4.938,-0.641,0.442,-0.273
2211.0,9.096,3.9,4.938,-0.641,0.442,-0.273
2215.0,9.096,3.9,4.938,-0.641,0.442,-0.273
2219.0,8.721,3.658,5.027,-0.657,0.51,-0.29
2223.0,8.721,3.658,5.027,-0.657,0.51,-0.29
2227.0,8.331,3.411,5.106,-0.647,0.544,-0.327
2230.0,8.331,3.411,5.106,-0.647,0.544,-0.327
2234.0,8.331,3.411,5.106,-0.647,0.544,-0.327
2238.0,7.951,3.267,5.161,-0.598,0.539,-0.372
2242.0,7.951,3.267,5.161,-0.598,0.539,-0.372
2246.0,7.613,3.24,5.192,-0.598,0.508,-0.409
2249.0,7.613,3.24,5.192,-0.515,0.508,-0.409
2253.0,7.613,3.24,5.192,-0.515,0.508,-0.409
2257.0,7.224,3.19,5.227,-0.415,0.457,-0.421
2261.0,7.224,3.19,5.227,-0.415,0.457,-0.421
2265.0,7.224,3.044,5.234,-0.415,0.457,-0.421
2269.0,6.836,3.044,5.234,-0.316,0.385,-0.412
2272.0,6.836,3.044,5.234,-0.316,0.385,-0.412
2276.0,6.485,2.859,5.256,-0.228,0.302,-0.401
2280.0,6.485,2.859,5.256,-0.228,0.302,-0.401
2284.0,6.485,2.859,5.256,-0.228,0.302,-0.401
2288.0,6.145,2.693,5.254,-0.158,0.214,-0.395
2291.0,6.145,2.693,5.254,-0.158,0.214,-0.395
2295.0,5.9,2.616,5.231,-0.114,0.126,-0.4
2299.0,5.9,2.616,5.231,-0.114,0.126,-0.4
2303.0,5.9,2.616,5.231,-0.114,0.126,-0.4
2307.0,5.748,2.629,5.136,-0.097,0.041,-0.412
2311.0,5.748,2.629,5.136,-0.097,0.041,-0.412
2314.0,5.707,2.709,4.982,-0.097,0.041,-0.412
2318.0,5.707,2.709,4.982,-0.108,-0.034,-0.425
2322.0,5.707,2.709,4.982,-0.108,-0.034,-0.425
2326.0,5.808,2.788,4.811,-0.143,-0.101,-0.439
2330.0,5.808,2.788,4.811,-0.143,-0.101,-0.439
2334.0,5.808,2.827,4.625,-0.143,-0.101,-0.439
2338.0,6.022,2.827,4.625,-0.193,-0.155,-0.465
2342.0,6.022,2.827,4.625,-0.193,-0.155,-0.465
2346.0,6.307,2.783,4.429,-0.251,-0.188,-0.507
2349.0,6.307,2.783,4.429,-0.251,-0.188,-0.507
2353.0,6.307,2.783,4.162,-0.251,-0.188,-0.507
2357.0,6.733,2.717,4.162,-0.31,-0.208,-0.563
2361.0,6.733,2.717,4.162,-0.31,-0.208,-0.563
2365.0,7.149,2.669,3.913,-0.361,-0.195,-0.641
2369.0,7.149,2.669,3.913,-0.361,-0.195,-0.641
2373.0,7.149,2.669,3.913,-0.361,-0.195,-0.641
2377.0,7.275,2.708,3.843,-0.397,-0.135,-0.73
2381.0,7.275,2.708,3.843,-0.397,-0.135,-0.73
2385.0,7.164,2.743,4.021,-0.404,-0.046,-0.797
2389.0,7.164,2.743,4.021,-0.404,-0.046,-0.797
2392.0,7.164,2.743,4.021,-0.404,-0.046,-0.797
2396.0,6.823,2.782,4.366,-0.367,0.051,-0.828
2400.0,6.823,2.782,4.366,-0.367,0.051,-0.828
2404.0,6.461,2.814,4.729,-0.281,0.113,-0.82
2408.0,6.461,2.814,4.729,-0.281,0.113,-0.82
2412.0,6.461,2.814,4.729,-0.281,0.113,-0.82
2415.0,6.156,2.915,4.97,-0.151,0.127,-0.789
2419.0,6.156,2.915,4.97,-0.151,0.127,-0.789
2423.0,5.94,3.075,5.06,-0.151,0.127,-0.735
2427.0,5.94,3.075,5.06,0.001,0.107,-0.735
2431.0,5.94,3.075,5.06,0.001,0.107,-0.735
2434.0,5.894,3.158,4.957,0.151,0.074,-0.661
2438.0,5.894,3.158,4.957,0.151,0.074,-0.661
2442.0,5.894,3.158,4.957,0.151,0.074,-0.661
2446.0,6.057,3.202,4.799,0.284,0.05,-0.589
2449.0,6.057,3.202,4.799,0.284,0.05,-0.589
2453.0,6.262,3.229,4.663,0.391,0.036,-0.541
2457.0,6.262,3.229,4.663,0.391,0.036,-0.541
2461.0,6.262,3.229,4.663,0.391,0.036,-0.541
2464.0,6.391,3.323,4.622,0.464,0.027,-0.522
2468.0,6.391,3.323,4.622,0.464,0.027,-0.522
2472.0,6.391,3.323,4.622,0.464,0.027,-0.522
2475.0,6.395,3.508,4.711,0.497,0.027,-0.524
2479.0,6.395,3.508,4.711,0.497,0.027,-0.524
2483.0,6.318,3.706,4.914,0.495,0.028,-0.524
2487.0,6.318,3.706,4.914,0.495,0.028,-0.524
2490.0,6.318,3.706,4.914,0.495,0.028,-0.524
2494.0,6.242,3.852,5.204,0.465,0.028,-0.513
2498.0,6.242,3.852,5.204,0.465,0.028,-0.513
2502.0,6.242,3.852,5.515,0.465,0.028,-0.513
2505.0,6.178,3.988,5.515,0.417,0.025,-0.493
2509.0,6.178,3.988,5.515,0.417,0.025,-0.493
2513.0,6.172,4.086,5.731,0.358,0.016,-0.471
2516.0,6.172,4.086,5.731,0.358,0.016,-0.471
2520.0,6.172,4.086,5.731,0.358,0.016,-0.471
2524.0,6.19,4.194,5.907,0.299,0.01,-0.456
2528.0,6.19,4.194,5.907,0.299,0.01,-0.456
2531.0,6.27,4.33,6.054,0.299,0.01,-0.456
2535.0,6.27,4.33,6.054,0.245,0.008,-0.449
2539.0,6.27,4.33,6.054,0.245,0.008,-0.449
2543.0,6.41,4.515,6.056,0.202,0.015,-0.447
2546.0,6.41,4.515,6.056,0.202,0.015,-0.447
2550.0,6.41,4.515,6.056,0.202,0.015,-0.447
2554.0,6.488,4.63,6.129,0.167,0.032,-0.44
2558.0,6.488,4.63,6.129,0.167,0.032,-0.44
2561.0,6.446,4.585,6.342,0.167,0.032,-0.43
2565.0,6.446,4.585,6.342,0.138,0.048,-0.43
2569.0,6.446,4.585,6.342,0.138,0.048,-0.43
2572.0,6.275,4.514,6.671,0.127,0.056,-0.426
2576.0,6.275,4.514,6.671,0.127,0.056,-0.426
2580.0,6.275,4.514,6.671,0.127,0.056,-0.426
2584.0,6.17,4.452,6.986,0.154,0.057,-0.434
2587.0,6.17,4.452,6.986,0.154,0.057,-0.434
2591.0,6.178,4.494,7.262,0.154,0.058,-0.474
2595.0,6.178,4.494,7.262,0.237,0.058,-0.474
2599.0,6.178,4.494,7.262,0.237,0.058,-0.474
2602.0,6.463,4.743,7.522,0.386,0.043,-0.552
2606.0,6.463,4.743,7.522,0.386,0.043,-0.552
2610.0,6.463,4.743,7.522,0.386,0.043,-0.552
2614.0,6.748,5.265,7.796,0.59,0.009,-0.648
2617.0,6.748,5.265,7.796,0.59,0.009,-0.648
2621.0,6.808,5.864,7.904,0.826,-0.038,-0.705
2625.0,6.808,5.864,7.904,0.826,-0.038,-0.705
2629.0,6.808,5.864,7.904,0.826,-0.038,-0.705
2632.0,6.797,6.395,7.602,1.064,-0.067,-0.671
2636.0,6.797,6.395,7.602,1.064,-0.067,-0.671
2640.0,7.072,6.699,7.108,1.064,-0.067,-0.671
2644.0,7.072,6.699,7.108,1.283,-0.062,-0.559
2648.0,7.072,6.699,7.108,1.283,-0.062,-0.559
2652.0,7.521,6.798,6.65,1.472,-0.035,-0.441
2655.0,7.521,6.798,6.65,1.472,-0.035,-0.441
2659.0,7.521,6.798,6.65,1.472,-0.035,-0.441
2663.0,8.066,6.92,6.191,1.614,-0.015,-0.375
2667.0,8.066,6.92,6.191,1.614,-0.015,-0.375
2671.0,8.616,7.301,5.837,1.691,0.009,-0.375
2674.0,8.616,7.301,5.837,1.691,0.009,-0.375
2678.0,8.616,7.301,5.837,1.691,0.009,-0.375
2682.0,9.128,7.965,5.803,1.702,0.051,-0.409
2686.0,9.128,7.965,5.803,1.702,0.051,-0.409
2689.0,9.395,8.716,6.035,1.702,0.051,-0.409
2693.0,9.395,8.716,6.035,1.663,0.094,-0.455
2697.0,9.395,8.716,6.035,1.663,0.094,-0.455
2701.0,9.22,9.388,6.25,1.589,0.11,-0.473
2704.0,9.22,9.388,6.25,1.589,0.11,-0.473
2708.0,9.22,9.388,6.25,1.589,0.11,-0.473
2712.0,8.574,9.674,6.242,1.478,0.102,-0.412
2715.0,8.574,9.674,6.242,1.478,0.102,-0.412
2719.0,7.899,9.433,5.947,1.478,0.102,-0.288
2723.0,7.899,9.433,5.947,1.333,0.072,-0.288
2727.0,7.899,9.433,5.947,1.333,0.072,-0.288
2730.0,7.553,8.883,5.45,1.165,0.025,-0.173
2734.0,7.553,8.883,5.45,1.165,0.025,-0.173
2738.0,7.553,8.883,5.45,1.165,0.025,-0.173
2742.0,7.293,8.357,4.93,0.983,-0.035,-0.109
2745.0,7.293,8.357,4.93,0.983,-0.035,-0.109
2749.0,7.067,7.995,4.42,0.793,-0.1,-0.087
2753.0,7.067,7.995,4.42,0.793,-0.1,-0.087
2757.0,7.067,7.995,4.42,0.793,-0.1,-0.087
2761.0,6.872,7.754,4.053,0.608,-0.155,-0.092
2764.0,6.872,7.754,4.053,0.608,-0.155,-0.092
2768.0,6.66,7.583,3.805,0.608,-0.155,-0.092
2772.0,6.66,7.583,3.805,0.43,-0.187,-0.102
2776.0,6.66,7.583,3.805,0.43,-0.187,-0.102
2780.0,6.43,7.51,3.696,0.259,-0.189,-0.092
2784.0,6.43,7.51,3.696,0.259,-0.189,-0.092
2787.0,6.43,7.51,3.696,0.259,-0.189,-0.092
2791.0,6.109,7.332,3.718,0.093,-0.161,-0.05
2795.0,6.109,7.332,3.718,0.093,-0.161,-0.05
2799.0,5.76,7.094,3.775,-0.067,-0.123,0.011
2803.0,5.76,7.094,3.775,-0.067,-0.123,0.011
2807.0,5.76,7.094,3.775,-0.067,-0.123,0.011
2810.0,5.461,6.772,3.772,-0.213,-0.09,0.074
2814.0,5.461,6.772,3.772,-0.213,-0.09,0.074
2818.0,5.332,6.424,3.79,-0.213,-0.09,0.109
2822.0,5.332,6.424,3.79,-0.339,-0.071,0.109
2826.0,5.332,6.424,3.79,-0.339,-0.071,0.109
2829.0,5.255,6.196,3.73,-0.433,-0.068,0.088
2833.0,5.255,6.196,3.73,-0.433,-0.068,0.088
2837.0,5.255,6.196,3.659,-0.433,-0.068,0.088
2841.0,5.273,6.135,3.659,-0.488,-0.075,0.017
2845.0,5.273,6.135,3.659,-0.488,-0.075,0.017
2849.0,5.267,6.223,3.647,-0.501,-0.078,-0.075
2852.0,5.267,6.223,3.647,-0.501,-0.078,-0.075
2856.0,5.267,6.223,3.647,-0.501,-0.078,-0.075
2860.0,5.277,6.36,3.678,-0.466,-0.077,-0.149
2864.0,5.277,6.36,3.678,-0.466,-0.077,-0.149
2868.0,5.28,6.486,3.805,-0.377,-0.077,-0.2
2872.0,5.28,6.486,3.805,-0.377,-0.077,-0.2
2876.0,5.28,6.486,3.805,-0.377,-0.077,-0.2
2880.0,5.149,6.613,3.913,-0.238,-0.084,-0.229
2884.0,5.149,6.613,3.913,-0.238,-0.084,-0.229
2888.0,4.866,6.718,3.988,-0.063,-0.101,-0.234
2891.0,4.866,6.718,3.988,-0.063,-0.101,-0.234
2895.0,4.866,6.718,3.988,-0.063,-0.101,-0.234
2899.0,4.543,6.799,3.915,0.131,-0.133,-0.217
2903.0,4.543,6.799,3.915,0.131,-0.133,-0.217
2907.0,4.368,6.933,3.673,0.131,-0.172,-0.184
2911.0,4.368,6.933,3.673,0.33,-0.172,-0.184
2915.0,4.368,6.933,3.673,0.33,-0.172,-0.184
2918.0,4.396,7.077,3.408,0.513,-0.204,-0.14
2922.0,4.396,7.077,3.408,0.513,-0.204,-0.14
2926.0,4.396,7.225,3.022,0.513,-0.204,-0.14
2930.0,4.541,7.225,3.022,0.666,-0.229,-0.085
2934.0,4.541,7.225,3.022,0.666,-0.229,-0.085
2937.0,4.8,7.384,2.59,0.773,-0.245,-0.028
2941.0,4.8,7.384,2.59,0.773,-0.245,-0.028
2945.0,4.8,7.384,2.59,0.773,-0.245,-0.028
2949.0,5.066,7.563,2.176,0.826,-0.245,0.019
2953.0,5.066,7.563,2.176,0.826,-0.245,0.019
2956.0,5.262,7.71,1.762,0.817,-0.231,0.058
2960.0,5.262,7.71,1.762,0.817,-0.231,0.058
2964.0,5.262,7.71,1.762,0.817,-0.231,0.058
2968.0,5.369,7.841,1.382,0.743,-0.207,0.086
2971.0,5.369,7.841,1.382,0.743,-0.207,0.086
2975.0,5.369,7.841,1.382,0.743,-0.207,0.086
2979.0,5.449,7.93,1.106,0.611,-0.175,0.106
2983.0,5.449,7.93,1.106,0.611,-0.175,0.106
2986.0,5.483,7.973,0.866,0.434,-0.14,0.121
2990.0,5.483,7.973,0.866,0.434,-0.14,0.121
2994.0,5.483,7.973,0.866,0.434,-0.14,0.121
2997.0,5.468,7.906,0.748,0.227,-0.103,0.132
