deltaTime,Acc_X,Acc_Y,Acc_Z,Gyro_X,Gyro_Y,Gyro_Z
0.0,-8.414,-0.473,1.634,0.112,-0.146,0.249
3.0,-8.414,-0.473,1.634,0.112,-0.146,0.249
6.0,-8.414,-0.473,1.634,0.112,-0.146,0.249
9.0,-8.886,-0.534,1.588,0.134,-0.087,0.304
12.0,-8.886,-0.534,1.588,0.134,-0.087,0.304
15.0,-8.886,-0.534,1.588,0.134,-0.087,0.304
18.0,-9.348,-0.918,1.704,0.134,-0.087,0.304
21.0,-9.348,-0.918,1.704,0.12,-0.024,0.389
24.0,-9.348,-0.918,1.704,0.12,-0.024,0.389
27.0,-9.348,-0.918,1.704,0.12,-0.024,0.389
30.0,-9.662,-1.325,1.759,0.114,0.034,0.488
33.0,-9.662,-1.325,1.759,0.114,0.034,0.488
36.0,-9.662,-1.325,1.759,0.114,0.034,0.488
39.0,-9.722,-1.682,1.825,0.117,0.092,0.586
43.0,-9.722,-1.682,1.825,0.117,0.092,0.586
47.0,-9.722,-1.682,1.825,0.117,0.092,0.586
50.0,-9.605,-1.967,1.942,0.11,0.155,0.664
54.0,-9.605,-1.967,1.942,0.11,0.155,0.664
58.0,-9.541,-2.342,2.084,0.11,0.155,0.723
61.0,-9.541,-2.342,2.084,0.113,0.21,0.723
65.0,-9.541,-2.342,2.084,0.113,0.21,0.723
69.0,-9.413,-2.417,2.097,0.152,0.247,0.759
72.0,-9.413,-2.417,2.097,0.152,0.247,0.759
76.0,-9.413,-2.417,2.097,0.152,0.247,0.759
79.0,-9.223,-2.322,2.049,0.202,0.276,0.767
83.0,-9.223,-2.322,2.049,0.202,0.276,0.767
87.0,-9.223,-2.149,1.985,0.202,0.276,0.767
90.0,-9.048,-2.149,1.985,0.235,0.306,0.752
94.0,-9.048,-2.149,1.985,0.235,0.306,0.752
98.0,-9.039,-2.058,1.947,0.249,0.326,0.718
101.0,-9.039,-2.058,1.947,0.249,0.326,0.718
105.0,-9.039,-2.058,1.947,0.249,0.326,0.718
109.0,-8.926,-1.994,1.921,0.259,0.331,0.672
113.0,-8.926,-1.994,1.921,0.259,0.331,0.672
116.0,-8.926,-1.994,1.997,0.259,0.331,0.672
120.0,-8.748,-1.895,1.997,0.273,0.32,0.613
124.0,-8.748,-1.895,1.997,0.273,0.32,0.613
127.0,-8.825,-1.748,2.009,0.29,0.3,0.546
131.0,-8.825,-1.748,2.009,0.29,0.3,0.546
135.0,-8.825,-1.748,2.009,0.29,0.3,0.546
139.0,-8.989,-1.32,1.975,0.28,0.273,0.475
142.0,-8.989,-1.32,1.975,0.28,0.273,0.475
146.0,-8.928,-0.793,1.811,0.28,0.273,0.475
150.0,-8.928,-0.793,1.811,0.2,0.248,0.406
154.0,-8.928,-0.793,1.811,0.2,0.248,0.406
157.0,-9.11,-0.196,1.759,0.031,0.238,0.336
161.0,-9.11,-0.196,1.759,0.031,0.238,0.336
165.0,-9.11,-0.196,1.759,0.031,0.238,0.336
169.0,-9.458,0.264,1.868,-0.232,0.234,0.261
172.0,-9.458,0.264,1.868,-0.232,0.234,0.261
176.0,-9.662,0.411,2.183,-0.232,0.234,0.19
180.0,-9.662,0.411,2.183,-0.555,0.229,0.19
183.0,-9.662,0.411,2.183,-0.555,0.229,0.19
187.0,-9.922,0.153,2.565,-0.882,0.206,0.133
191.0,-9.922,0.153,2.565,-0.882,0.206,0.133
195.0,-9.922,0.153,2.565,-0.882,0.206,0.133
198.0,-10.241,-0.84,3.182,-1.133,0.155,0.094
202.0,-10.241,-0.84,3.182,-1.133,0.155,0.094
206.0,-10.489,-2.062,3.831,-1.2,0.139,0.097
210.0,-10.489,-2.062,3.831,-1.2,0.139,0.097
214.0,-10.489,-2.062,3.831,-1.2,0.139,0.097
218.0,-10.375,-2.453,4.192,-1.072,0.127,0.108
222.0,-10.375,-2.453,4.192,-1.072,0.127,0.108
226.0,-10.449,-2.081,4.139,-0.902,0.107,0.068
230.0,-10.449,-2.081,4.139,-0.902,0.107,0.068
234.0,-10.449,-2.081,4.139,-0.902,0.107,0.068
237.0,-10.781,-2.231,4.06,-0.785,0.009,-0.029
241.0,-10.781,-2.231,4.06,-0.785,0.009,-0.029
245.0,-10.895,-2.258,4.133,-0.785,-0.156,-0.105
250.0,-10.895,-2.258,4.133,-0.636,-0.156,-0.105
254.0,-10.895,-2.258,4.133,-0.636,-0.156,-0.105
258.0,-11.367,-1.929,3.933,-0.452,-0.306,-0.171
262.0,-11.367,-1.929,3.933,-0.452,-0.306,-0.171
266.0,-11.264,-1.302,3.584,-0.304,-0.462,-0.255
270.0,-11.264,-1.302,3.584,-0.304,-0.462,-0.255
274.0,-11.264,-1.302,3.584,-0.304,-0.462,-0.255
278.0,-10.427,-1.067,3.301,-0.252,-0.581,-0.319
282.0,-10.427,-1.067,3.301,-0.252,-0.581,-0.319
286.0,-9.809,-1.209,3.074,-0.237,-0.631,-0.34
290.0,-9.809,-1.209,3.074,-0.237,-0.631,-0.34
294.0,-9.547,-1.327,2.904,-0.237,-0.631,-0.34
298.0,-9.547,-1.327,2.904,-0.207,-0.642,-0.351
302.0,-9.547,-1.327,2.904,-0.207,-0.642,-0.351
306.0,-9.48,-1.424,2.836,-0.164,-0.641,-0.378
310.0,-9.48,-1.424,2.836,-0.164,-0.641,-0.378
314.0,-9.58,-1.406,2.917,-0.164,-0.641,-0.426
318.0,-9.58,-1.406,2.917,-0.117,-0.641,-0.426
322.0,-9.58,-1.406,2.917,-0.117,-0.641,-0.426
326.0,-9.932,-1.473,3.279,-0.063,-0.659,-0.493
330.0,-9.932,-1.473,3.279,-0.063,-0.659,-0.493
334.0,-10.848,-1.819,3.776,-0.063,-0.728,-0.574
338.0,-10.848,-1.819,3.776,0.032,-0.728,-0.574
342.0,-10.848,-1.819,3.776,0.032,-0.728,-0.574
346.0,-10.911,-1.834,4.263,0.178,-0.845,-0.646
350.0,-10.911,-1.834,4.263,0.178,-0.845,-0.646
354.0,-10.822,-1.957,4.658,0.34,-0.953,-0.66
358.0,-10.822,-1.957,4.658,0.34,-0.953,-0.66
362.0,-10.822,-1.957,4.658,0.34,-0.953,-0.66
366.0,-10.875,-2.152,4.947,0.521,-1.043,-0.646
370.0,-10.875,-2.152,4.947,0.521,-1.043,-0.646
374.0,-10.945,-2.376,5.124,0.726,-1.122,-0.638
378.0,-10.945,-2.376,5.124,0.726,-1.122,-0.638
382.0,-10.945,-2.376,5.124,0.726,-1.122,-0.638
386.0,-11.107,-2.77,5.32,0.97,-1.195,-0.641
390.0,-11.107,-2.77,5.32,0.97,-1.195,-0.641
394.0,-11.579,-3.53,5.712,1.282,-1.278,-0.64
398.0,-11.579,-3.53,5.712,1.282,-1.278,-0.64
402.0,-11.579,-3.53,5.712,1.282,-1.278,-0.64
406.0,-12.103,-4.406,6.249,1.704,-1.4,-0.635
410.0,-12.103,-4.406,6.249,1.704,-1.4,-0.635
414.0,-12.525,-4.605,7.072,2.247,-1.575,-0.634
418.0,-12.525,-4.605,7.072,2.247,-1.575,-0.634
422.0,-12.525,-4.605,7.072,2.247,-1.575,-0.634
426.0,-13.049,-3.845,8.02,2.885,-1.807,-0.582
430.0,-13.049,-3.845,8.02,2.885,-1.807,-0.582
434.0,-13.357,-2.315,8.656,3.535,-2.089,-0.43
438.0,-13.357,-2.315,8.656,3.535,-2.089,-0.43
442.0,-13.357,-2.315,9.111,3.535,-2.089,-0.43
446.0,-13.41,-0.482,9.111,4.093,-2.374,-0.183
450.0,-13.41,-0.482,9.111,4.093,-2.374,-0.183
454.0,-13.386,0.918,9.472,4.469,-2.627,0.105
458.0,-13.386,0.918,9.472,4.469,-2.627,0.105
462.0,-13.386,0.918,9.904,4.469,-2.627,0.105
466.0,-13.623,1.496,9.904,4.636,-2.847,0.336
469.0,-13.623,1.496,9.904,4.636,-2.847,0.336
473.0,-13.934,1.855,10.22,4.58,-3.068,0.436
477.0,-13.934,1.855,10.22,4.58,-3.068,0.436
481.0,-13.934,1.855,10.22,4.58,-3.068,0.436
485.0,-14.273,2.745,10.685,4.263,-3.29,0.409
489.0,-14.273,2.745,10.685,4.263,-3.29,0.409
493.0,-15.011,3.968,11.71,3.682,-3.515,0.324
497.0,-15.011,3.968,11.71,3.682,-3.515,0.324
500.0,-15.011,3.968,11.71,3.682,-3.515,0.324
504.0,-15.964,4.768,12.775,2.918,-3.781,0.263
508.0,-15.964,4.768,12.775,2.918,-3.781,0.263
512.0,-16.611,4.481,13.603,2.085,-4.105,0.246
516.0,-16.611,4.481,13.603,2.085,-4.105,0.246
520.0,-16.611,4.481,13.603,2.085,-4.105,0.246
524.0,-16.549,3.228,14.115,1.313,-4.458,0.224
528.0,-16.549,3.228,14.115,1.313,-4.458,0.224
532.0,-16.082,1.293,14.442,0.716,-4.811,0.152
536.0,-16.082,1.293,14.442,0.716,-4.811,0.152
540.0,-16.082,1.293,14.442,0.716,-4.811,0.152
543.0,-15.601,-1.039,14.245,0.351,-4.985,0.02
547.0,-15.601,-1.039,14.245,0.351,-4.985,0.02
551.0,-15.047,-3.041,13.966,0.351,-4.992,-0.14
556.0,-15.047,-3.041,13.966,0.25,-4.992,-0.14
560.0,-15.047,-3.041,13.966,0.25,-4.992,-0.14
564.0,-14.314,-4.33,13.986,0.432,-4.992,-0.265
568.0,-14.314,-4.33,13.986,0.432,-4.992,-0.265
572.0,-13.993,-5.191,14.183,0.845,-4.992,-0.334
576.0,-13.993,-5.191,14.183,0.845,-4.992,-0.334
580.0,-13.993,-5.191,14.183,0.845,-4.992,-0.334
584.0,-13.997,-6.14,14.48,1.406,-4.992,-0.365
588.0,-13.997,-6.14,14.48,1.406,-4.992,-0.365
592.0,-13.887,-6.701,14.472,2.037,-4.992,-0.397
596.0,-13.887,-6.701,14.472,2.037,-4.992,-0.397
600.0,-13.245,-7.224,14.203,2.037,-4.992,-0.397
604.0,-13.245,-7.224,14.203,2.646,-4.992,-0.44
609.0,-13.245,-7.224,14.203,2.646,-4.992,-0.44
613.0,-12.413,-7.313,13.764,3.147,-4.992,-0.52
617.0,-12.413,-7.313,13.764,3.147,-4.992,-0.52
621.0,-11.426,-6.552,12.781,3.512,-4.992,-0.619
625.0,-11.426,-6.552,12.781,3.512,-4.992,-0.619
629.0,-11.426,-6.552,12.781,3.512,-4.992,-0.619
633.0,-10.117,-5.543,11.624,3.741,-4.992,-0.706
637.0,-10.117,-5.543,11.624,3.741,-4.992,-0.706
641.0,-8.817,-4.782,10.433,3.867,-4.992,-0.781
645.0,-8.817,-4.782,10.433,3.867,-4.992,-0.781
649.0,-8.817,-4.782,10.433,3.867,-4.992,-0.781
653.0,-7.587,-4.491,9.572,3.928,-4.992,-0.85
657.0,-7.587,-4.491,9.572,3.928,-4.992,-0.85
661.0,-6.909,-4.752,9.05,3.951,-4.992,-0.922
665.0,-6.909,-4.752,9.05,3.951,-4.992,-0.922
669.0,-6.909,-4.752,9.05,3.951,-4.992,-0.922
673.0,-6.004,-4.755,8.237,3.966,-4.992,-1.002
677.0,-6.004,-4.755,8.237,3.966,-4.992,-1.002
681.0,-5.04,-4.697,7.554,3.995,-4.992,-1.046
684.0,-5.04,-4.697,7.554,3.995,-4.992,-1.046
688.0,-5.04,-4.697,7.554,3.995,-4.992,-1.046
692.0,-3.982,-4.301,6.773,4.062,-4.992,-1.056
696.0,-3.982,-4.301,6.773,4.062,-4.992,-1.056
700.0,-2.982,-3.796,5.835,4.155,-4.992,-1.066
704.0,-2.982,-3.796,5.835,4.155,-4.992,-1.066
708.0,-2.982,-3.796,5.835,4.155,-4.992,-1.066
712.0,-2.023,-3.196,5.005,4.274,-4.992,-1.098
716.0,-2.023,-3.196,5.005,4.274,-4.992,-1.098
720.0,-1.097,-2.445,4.213,4.408,-4.992,-1.129
723.0,-1.097,-2.445,4.213,4.408,-4.992,-1.129
727.0,-1.097,-2.445,4.213,4.408,-4.992,-1.129
731.0,-0.282,-1.537,3.638,4.544,-4.992,-1.139
735.0,-0.282,-1.537,3.638,4.544,-4.992,-1.139
739.0,0.348,-0.62,3.223,4.68,-4.939,-1.121
743.0,0.348,-0.62,3.223,4.68,-4.939,-1.121
747.0,0.348,-0.62,3.223,4.68,-4.939,-1.121
751.0,0.837,0.486,2.907,4.828,-4.697,-1.065
754.0,0.837,0.486,2.907,4.828,-4.697,-1.065
758.0,0.837,1.976,2.571,4.828,-4.697,-1.065
762.0,1.182,1.976,2.571,4.961,-4.413,-0.951
766.0,1.182,1.976,2.571,4.961,-4.413,-0.951
769.0,1.554,3.996,1.792,4.995,-4.139,-0.751
773.0,1.554,3.996,1.792,4.995,-4.139,-0.751
777.0,1.554,3.996,1.792,4.995,-4.139,-0.751
780.0,2.651,6.56,-0.053,4.995,-3.857,-0.425
784.0,2.651,6.56,-0.053,4.995,-3.857,-0.425
788.0,5.23,9.228,-3.317,4.995,-3.857,0.029
792.0,5.23,9.228,-3.317,4.995,-3.483,0.029
796.0,5.23,9.228,-3.317,4.995,-3.483,0.029
799.0,8.579,12.224,-7.147,4.995,-2.857,0.51
803.0,8.579,12.224,-7.147,4.995,-2.857,0.51
807.0,8.579,12.224,-7.147,4.995,-2.857,0.51
811.0,11.198,15.398,-10.019,4.995,-1.955,0.988
815.0,11.198,15.398,-10.019,4.995,-1.955,0.988
819.0,11.746,17.76,-10.831,4.995,-0.856,1.56
823.0,11.746,17.76,-10.831,4.995,-0.856,1.56
827.0,11.746,17.76,-10.831,4.995,-0.856,1.56
831.0,12.12,19.508,-9.62,4.995,0.11,2.263
835.0,12.12,19.508,-9.62,4.995,0.11,2.263
838.0,11.636,19.596,-7.624,4.993,1.018,3.018
842.0,11.636,19.596,-7.624,4.993,1.018,3.018
846.0,11.636,19.596,-7.624,4.993,1.018,3.018
850.0,10.405,19.224,-5.225,4.776,1.759,3.662
854.0,10.405,19.224,-5.225,4.776,1.759,3.662
857.0,8.707,17.168,-3.581,4.776,2.347,4.16
861.0,8.707,17.168,-3.581,4.196,2.347,4.16
865.0,8.707,17.168,-3.581,4.196,2.347,4.16
869.0,6.538,14.867,-3.072,3.722,2.875,4.598
872.0,6.538,14.867,-3.072,3.722,2.875,4.598
876.0,6.538,14.867,-3.072,3.722,2.875,4.598
880.0,4.412,12.544,-2.662,3.323,3.373,4.924
884.0,4.412,12.544,-2.662,3.323,3.373,4.924
887.0,2.798,10.737,-2.59,2.884,3.816,5.012
891.0,2.798,10.737,-2.59,2.884,3.816,5.012
895.0,2.798,10.737,-2.59,2.884,3.816,5.012
898.0,1.324,9.683,-2.811,2.321,4.22,5.013
902.0,1.324,9.683,-2.811,2.321,4.22,5.013
906.0,1.324,9.683,-2.811,2.321,4.22,5.013
909.0,-0.37,9.011,-2.888,1.619,4.57,5.011
913.0,-0.37,9.011,-2.888,1.619,4.57,5.011
917.0,-2.69,8.188,-2.26,0.796,4.807,5.003
921.0,-2.69,8.188,-2.26,0.796,4.807,5.003
924.0,-2.69,8.188,-2.26,0.796,4.807,5.003
928.0,-5.765,7.03,-0.671,-0.093,4.875,5.005
932.0,-5.765,7.03,-0.671,-0.093,4.875,5.005
936.0,-5.765,5.288,1.543,-0.093,4.875,5.005
939.0,-9.886,5.288,1.543,-0.983,4.733,5.004
943.0,-9.886,5.288,1.543,-0.983,4.733,5.004
947.0,-15.219,2.895,4.132,-1.817,4.371,4.891
951.0,-15.219,2.895,4.132,-1.817,4.371,4.891
955.0,-15.219,2.895,4.132,-1.817,4.371,4.891
958.0,-19.351,0.144,5.986,-2.547,3.769,4.525
962.0,-19.351,0.144,5.986,-2.547,3.769,4.525
966.0,-19.6,-2.844,6.914,-2.547,2.928,3.998
970.0,-19.6,-2.844,6.914,-3.121,2.928,3.998
974.0,-19.6,-2.844,6.914,-3.121,2.928,3.998
978.0,-17.777,-5.782,6.342,-3.5,1.913,3.407
982.0,-17.777,-5.782,6.342,-3.5,1.913,3.407
986.0,-13.487,-8.401,5.106,-3.5,1.913,2.618
989.0,-13.487,-8.401,5.106,-3.536,0.888,2.618
993.0,-13.487,-8.401,5.106,-3.536,0.888,2.618
997.0,-9.898,-10.125,4.379,-3.163,-0.072,1.564
1001.0,-9.898,-10.125,4.379,-3.163,-0.072,1.564
1005.0,-7.476,-10.856,4.378,-3.163,-0.072,0.393
1009.0,-7.476,-10.856,4.378,-2.571,-0.933,0.393
1014.0,-7.476,-10.856,4.378,-2.571,-0.933,0.393
1018.0,-5.997,-11.011,4.345,-1.961,-1.608,-0.706
1022.0,-5.997,-11.011,4.345,-1.961,-1.608,-0.706
1026.0,-4.947,-10.641,4.063,-1.326,-2.073,-1.627
1030.0,-4.947,-10.641,4.063,-1.326,-2.073,-1.627
1034.0,-4.947,-10.641,4.01,-1.326,-2.073,-1.627
1038.0,-4.077,-9.855,4.01,-0.658,-2.366,-2.321
1042.0,-4.077,-9.855,4.01,-0.658,-2.366,-2.321
1047.0,-3.377,-8.821,3.85,-0.015,-2.561,-2.81
1051.0,-3.377,-8.821,3.85,-0.015,-2.561,-2.81
1055.0,-2.795,-7.615,3.284,-0.015,-2.703,-3.15
1059.0,-2.795,-7.615,3.284,0.554,-2.703,-3.15
1063.0,-2.795,-7.615,3.284,0.554,-2.703,-3.15
1067.0,-2.185,-6.317,2.583,1.013,-2.817,-3.39
1071.0,-2.185,-6.317,2.583,1.013,-2.817,-3.39
1075.0,-1.531,-4.95,2.07,1.322,-2.914,-3.581
1079.0,-1.531,-4.95,2.07,1.322,-2.914,-3.581
1083.0,-1.531,-4.95,2.07,1.322,-2.914,-3.581
1087.0,-0.765,-3.564,1.696,1.484,-2.994,-3.772
1091.0,-0.765,-3.564,1.696,1.484,-2.994,-3.772
1095.0,0.214,-2.213,1.346,1.54,-3.049,-3.976
1099.0,0.214,-2.213,1.346,1.54,-3.049,-3.976
1103.0,0.214,-2.213,1.346,1.54,-3.049,-3.976
1106.0,1.502,-0.665,1.142,1.538,-3.066,-4.192
1110.0,1.502,-0.665,1.142,1.538,-3.066,-4.192
1114.0,3.019,1.015,1.249,1.529,-3.055,-4.405
1118.0,3.019,1.015,1.249,1.529,-3.055,-4.405
1122.0,3.019,1.015,1.249,1.529,-3.055,-4.405
1126.0,4.963,2.95,1.127,1.571,-3.031,-4.588
1130.0,4.963,2.95,1.127,1.571,-3.031,-4.588
1133.0,7.144,5.034,1.17,1.571,-3.031,-4.588
1137.0,7.144,5.034,1.17,1.703,-2.988,-4.69
1141.0,7.144,5.034,1.17,1.703,-2.988,-4.69
1145.0,9.364,6.839,1.198,1.899,-2.947,-4.688
1149.0,9.364,6.839,1.198,1.899,-2.947,-4.688
1152.0,9.364,6.839,1.198,1.899,-2.947,-4.688
1156.0,10.787,8.504,1.041,2.112,-2.898,-4.633
1160.0,10.787,8.504,1.041,2.112,-2.898,-4.633
1164.0,11.061,10.43,0.572,2.327,-2.841,-4.56
1168.0,11.061,10.43,0.572,2.327,-2.841,-4.56
1172.0,11.061,10.43,0.572,2.327,-2.841,-4.56
1176.0,10.672,12.868,-0.977,2.539,-2.803,-4.431
1180.0,10.672,12.868,-0.977,2.539,-2.803,-4.431
1184.0,10.569,15.553,-3.399,2.76,-2.75,-4.181
1188.0,10.569,15.553,-3.399,2.76,-2.75,-4.181
1192.0,10.569,18.632,-6.808,2.76,-2.75,-4.181
1196.0,11.487,18.632,-6.808,2.998,-2.64,-3.801
1201.0,11.487,18.632,-6.808,2.998,-2.64,-3.801
1205.0,13.597,19.594,-10.832,3.241,-2.402,-3.278
1209.0,13.597,19.594,-10.832,3.241,-2.402,-3.278
1213.0,16.007,19.596,-13.82,3.393,-1.982,-2.628
1217.0,16.007,19.596,-13.82,3.393,-1.982,-2.628
1221.0,16.007,19.596,-13.82,3.393,-1.982,-2.628
1225.0,18.245,19.596,-16.086,3.272,-1.398,-1.874
1230.0,18.245,19.596,-16.086,3.272,-1.398,-1.874
1234.0,19.328,19.596,-17.825,2.801,-0.692,-1.136
1238.0,19.328,19.596,-17.825,2.801,-0.692,-1.136
1242.0,18.841,19.596,-18.209,2.801,-0.692,-0.435
1246.0,18.841,19.596,-18.209,2.131,0.165,-0.435
1250.0,18.841,19.596,-18.209,2.131,0.165,-0.435
1254.0,16.742,19.596,-16.236,1.486,1.075,0.233
1258.0,16.742,19.596,-16.236,1.486,1.075,0.233
1262.0,13.99,19.596,-14.305,1.006,1.875,0.868
1266.0,13.99,19.596,-14.305,1.006,1.875,0.868
1270.0,13.99,19.596,-14.305,1.006,1.875,0.868
1274.0,11.85,19.596,-13.551,0.658,2.563,1.522
1278.0,11.85,19.596,-13.551,0.658,2.563,1.522
1282.0,11.106,19.596,-13.82,0.357,3.21,2.213
1286.0,11.106,19.596,-13.82,0.357,3.21,2.213
1290.0,11.106,19.596,-13.82,0.357,3.21,2.213
1294.0,11.468,19.596,-14.462,0.073,3.882,2.908
1298.0,11.468,19.596,-14.462,0.073,3.882,2.908
1302.0,11.459,19.596,-13.281,-0.171,4.598,3.583
1306.0,11.459,19.596,-13.281,-0.171,4.598,3.583
1311.0,11.459,19.596,-13.281,-0.171,4.598,3.583
1315.0,9.867,19.156,-10.348,-0.331,4.994,4.244
1319.0,9.867,19.156,-10.348,-0.331,4.994,4.244
1323.0,7.159,16.751,-7.22,-0.371,5.015,4.837
1327.0,7.159,16.751,-7.22,-0.371,5.015,4.837
1330.0,7.159,16.751,-4.184,-0.371,5.015,4.837
1334.0,3.857,13.967,-4.184,-0.325,5.015,5.012
1338.0,3.857,13.967,-4.184,-0.325,5.015,5.012
1342.0,0.477,11.361,-2.318,-0.292,5.015,5.013
1346.0,0.477,11.361,-2.318,-0.292,5.015,5.013
1350.0,0.477,11.361,-2.318,-0.292,5.015,5.013
1354.0,-2.701,9.575,-1.93,-0.356,5.015,5.013
1358.0,-2.701,9.575,-1.93,-0.356,5.015,5.013
1362.0,-6.384,8.786,-1.537,-0.578,5.015,5.013
1366.0,-6.384,8.786,-1.537,-0.578,5.015,5.013
1369.0,-6.384,8.786,-1.537,-0.578,5.015,5.013
1373.0,-11.06,7.738,-0.633,-0.965,5.015,5.013
1377.0,-11.06,7.738,-0.633,-0.965,5.015,5.013
1381.0,-16.79,5.803,1.436,-1.444,5.015,5.013
1385.0,-16.79,5.803,1.436,-1.444,5.015,5.013
1389.0,-16.79,5.803,1.436,-1.444,5.015,5.013
1393.0,-19.59,3.363,4.044,-1.926,5.015,5.013
1397.0,-19.59,3.363,4.044,-1.926,5.015,5.013
1401.0,-19.6,-0.058,5.744,-2.255,4.704,5.011
1405.0,-19.6,-0.058,5.744,-2.255,4.704,5.011
1409.0,-19.6,-0.058,5.744,-2.255,4.704,5.011
1413.0,-19.6,-3.402,6.066,-2.322,3.32,4.78
1417.0,-19.6,-3.402,6.066,-2.322,3.32,4.78
1421.0,-16.168,-5.962,4.653,-2.242,1.82,4.073
1425.0,-16.168,-5.962,4.653,-2.242,1.82,4.073
1429.0,-16.168,-5.962,4.653,-2.242,1.82,4.073
1433.0,-6.969,-6.869,2.773,-2.157,0.793,3.155
1437.0,-6.969,-6.869,2.773,-2.157,0.793,3.155
1441.0,-1.146,-6.427,2.676,-2.117,0.275,2.066
1445.0,-1.146,-6.427,2.676,-2.117,0.275,2.066
1448.0,-1.146,-6.427,2.676,-2.117,0.275,2.066
1452.0,1.983,-5.792,3.633,-2.111,-0.108,1.067
1456.0,1.983,-5.792,3.633,-2.111,-0.108,1.067
1460.0,4.451,-5.391,4.177,-2.066,-0.557,0.276
1464.0,4.451,-5.391,4.177,-2.066,-0.557,0.276
1468.0,4.451,-5.391,4.177,-2.066,-0.557,0.276
1472.0,6.523,-4.947,4.039,-1.924,-0.964,-0.393
1476.0,6.523,-4.947,4.039,-1.924,-0.964,-0.393
1480.0,8.111,-4.628,3.827,-1.722,-1.204,-0.927
1484.0,8.111,-4.628,3.827,-1.722,-1.204,-0.927
1488.0,8.111,-4.628,3.827,-1.722,-1.204,-0.927
1492.0,8.996,-4.429,3.619,-1.506,-1.28,-1.33
1496.0,8.996,-4.429,3.619,-1.506,-1.28,-1.33
1500.0,9.523,-3.867,3.301,-1.271,-1.261,-1.637
1504.0,9.523,-3.867,3.301,-1.271,-1.261,-1.637
1508.0,9.523,-3.867,3.301,-1.271,-1.261,-1.637
1512.0,10.097,-3.058,2.877,-1.02,-1.154,-1.846
1516.0,10.097,-3.058,2.877,-1.02,-1.154,-1.846
1520.0,10.676,-1.957,2.94,-0.75,-0.913,-1.943
1524.0,10.676,-1.957,2.94,-0.75,-0.913,-1.943
1528.0,10.687,-0.827,3.553,-0.75,-0.913,-1.943
1532.0,10.687,-0.827,3.553,-0.425,-0.586,-1.891
1536.0,10.687,-0.827,3.553,-0.425,-0.586,-1.891
1540.0,10.355,0.14,4.104,-0.039,-0.315,-1.673
1544.0,10.355,0.14,4.104,-0.039,-0.315,-1.673
1548.0,9.998,0.83,4.384,-0.039,-0.141,-1.359
1552.0,9.998,0.83,4.384,0.381,-0.141,-1.359
1556.0,9.998,0.83,4.384,0.381,-0.141,-1.359
1560.0,9.556,1.327,4.514,0.8,-0.044,-1.061
1564.0,9.556,1.327,4.514,0.8,-0.044,-1.061
1568.0,9.556,2.02,4.398,0.8,-0.044,-1.061
1571.0,8.904,2.02,4.398,1.175,-0.008,-0.835
1575.0,8.904,2.02,4.398,1.175,-0.008,-0.835
1579.0,8.401,2.939,4.102,1.47,-0.011,-0.665
1583.0,8.401,2.939,4.102,1.47,-0.011,-0.665
1587.0,8.401,2.939,4.102,1.47,-0.011,-0.665
1590.0,8.367,3.705,3.909,1.66,-0.035,-0.538
1594.0,8.367,3.705,3.909,1.66,-0.035,-0.538
1598.0,8.529,4.32,3.742,1.748,-0.083,-0.462
1602.0,8.529,4.32,3.742,1.748,-0.083,-0.462
1606.0,8.529,4.32,3.742,1.748,-0.083,-0.462
1610.0,8.518,4.935,3.604,1.746,-0.139,-0.422
1613.0,8.518,4.935,3.604,1.746,-0.139,-0.422
1617.0,8.507,5.439,3.374,1.746,-0.139,-0.394
1621.0,8.507,5.439,3.374,1.649,-0.186,-0.394
1625.0,8.507,5.439,3.374,1.649,-0.186,-0.394
1629.0,8.591,5.751,3.105,1.472,-0.207,-0.356
1633.0,8.591,5.751,3.105,1.472,-0.207,-0.356
1636.0,8.591,5.751,3.105,1.472,-0.207,-0.356
1640.0,8.861,5.881,2.869,1.237,-0.203,-0.31
1644.0,8.861,5.881,2.869,1.237,-0.203,-0.31
1648.0,9.129,5.909,2.57,0.966,-0.174,-0.27
1652.0,9.129,5.909,2.57,0.966,-0.174,-0.27
1655.0,9.129,5.909,2.57,0.966,-0.174,-0.27
1659.0,9.172,5.754,2.374,0.676,-0.108,-0.23
1663.0,9.172,5.754,2.374,0.676,-0.108,-0.23
1667.0,8.918,5.398,2.351,0.676,-0.024,-0.2
1671.0,8.918,5.398,2.351,0.394,-0.024,-0.2
1675.0,8.918,5.398,2.351,0.394,-0.024,-0.2
1678.0,8.45,5.017,2.416,0.146,0.046,-0.199
1682.0,8.45,5.017,2.416,0.146,0.046,-0.199
1686.0,8.45,5.017,2.508,0.146,0.046,-0.199
1690.0,7.957,4.717,2.508,-0.052,0.093,-0.222
1693.0,7.957,4.717,2.508,-0.052,0.093,-0.222
1697.0,7.662,4.446,2.565,-0.195,0.119,-0.251
1701.0,7.662,4.446,2.565,-0.195,0.119,-0.251
1705.0,7.662,4.446,2.565,-0.195,0.119,-0.251
1709.0,7.76,4.201,2.564,-0.287,0.123,-0.27
1712.0,7.76,4.201,2.564,-0.287,0.123,-0.27
1716.0,7.991,4.038,2.53,-0.287,0.121,-0.288
1720.0,7.991,4.038,2.53,-0.332,0.121,-0.288
1724.0,7.991,4.038,2.53,-0.332,0.121,-0.288
1728.0,8.236,3.909,2.435,-0.342,0.113,-0.29
1732.0,8.236,3.909,2.435,-0.342,0.113,-0.29
1735.0,8.236,3.687,2.441,-0.342,0.113,-0.29
1739.0,8.37,3.687,2.441,-0.333,0.107,-0.275
1743.0,8.37,3.687,2.441,-0.333,0.107,-0.275
1747.0,8.261,3.557,2.495,-0.315,0.102,-0.253
1751.0,8.261,3.557,2.495,-0.315,0.102,-0.253
1754.0,8.261,3.557,2.495,-0.315,0.102,-0.253
1758.0,8.036,3.547,2.582,-0.287,0.095,-0.22
1762.0,8.036,3.547,2.582,-0.287,0.095,-0.22
1766.0,7.82,3.498,2.738,-0.252,0.078,-0.183
1770.0,7.82,3.498,2.738,-0.252,0.078,-0.183
1774.0,7.82,3.498,2.738,-0.252,0.078,-0.183
1777.0,7.652,3.434,2.748,-0.214,0.053,-0.161
1781.0,7.652,3.434,2.748,-0.214,0.053,-0.161
1785.0,7.569,3.382,2.629,-0.214,0.053,-0.147
1789.0,7.569,3.382,2.629,-0.178,0.035,-0.147
1793.0,7.569,3.382,2.629,-0.178,0.035,-0.147
1796.0,7.651,3.27,2.547,-0.147,0.033,-0.138
1800.0,7.651,3.27,2.547,-0.147,0.033,-0.138
1804.0,7.651,3.27,2.547,-0.147,0.033,-0.138
1808.0,7.719,3.156,2.544,-0.123,0.043,-0.148
1812.0,7.719,3.156,2.544,-0.123,0.043,-0.148
1816.0,7.579,3.111,2.557,-0.107,0.057,-0.187
1819.0,7.579,3.111,2.557,-0.107,0.057,-0.187
1823.0,7.579,3.111,2.557,-0.107,0.057,-0.187
1827.0,7.359,3.158,2.551,-0.1,0.065,-0.246
1831.0,7.359,3.158,2.551,-0.1,0.065,-0.246
1835.0,7.126,3.138,2.585,-0.1,0.063,-0.312
1838.0,7.126,3.138,2.585,-0.106,0.063,-0.312
1842.0,7.126,3.138,2.585,-0.106,0.063,-0.312
1846.0,6.836,3.038,2.556,-0.125,0.047,-0.385
1850.0,6.836,3.038,2.556,-0.125,0.047,-0.385
1854.0,6.836,2.915,2.532,-0.125,0.047,-0.385
1858.0,6.523,2.915,2.532,-0.156,0.019,-0.47
1861.0,6.523,2.915,2.532,-0.156,0.019,-0.47
1865.0,6.23,2.603,2.557,-0.191,-0.019,-0.579
1869.0,6.23,2.603,2.557,-0.191,-0.019,-0.579
1873.0,6.23,2.603,2.557,-0.191,-0.019,-0.579
1877.0,5.987,2.506,2.538,-0.233,-0.073,-0.719
1881.0,5.987,2.506,2.538,-0.233,-0.073,-0.719
1885.0,5.701,2.401,2.447,-0.277,-0.143,-0.864
1889.0,5.701,2.401,2.447,-0.277,-0.143,-0.864
1893.0,5.701,2.401,2.447,-0.277,-0.143,-0.864
1896.0,5.487,2.299,2.212,-0.317,-0.232,-1.017
1900.0,5.487,2.299,2.212,-0.317,-0.232,-1.017
1904.0,5.541,2.286,1.816,-0.346,-0.311,-1.183
1908.0,5.541,2.286,1.816,-0.346,-0.311,-1.183
1912.0,5.541,2.286,1.816,-0.346,-0.311,-1.183
1916.0,5.824,2.319,1.583,-0.356,-0.357,-1.35
1920.0,5.824,2.319,1.583,-0.356,-0.357,-1.35
1924.0,6.181,2.444,1.592,-0.343,-0.376,-1.496
1928.0,6.181,2.444,1.592,-0.343,-0.376,-1.496
1932.0,6.181,2.444,1.592,-0.343,-0.376,-1.496
1936.0,6.446,2.515,1.815,-0.303,-0.377,-1.612
1939.0,6.446,2.515,1.815,-0.303,-0.377,-1.612
1943.0,6.504,2.549,2.154,-0.236,-0.385,-1.715
1947.0,6.504,2.549,2.154,-0.236,-0.385,-1.715
1951.0,6.504,2.549,2.154,-0.236,-0.385,-1.715
1955.0,6.29,2.556,2.463,-0.148,-0.416,-1.816
1959.0,6.29,2.556,2.463,-0.148,-0.416,-1.816
1963.0,5.889,2.66,2.618,-0.148,-0.457,-1.912
1967.0,5.889,2.66,2.618,-0.054,-0.457,-1.912
1971.0,5.889,2.66,2.618,-0.054,-0.457,-1.912
1975.0,5.762,3.258,2.4,0.039,-0.489,-1.987
1978.0,5.762,3.258,2.4,0.039,-0.489,-1.987
1982.0,6.293,4.199,1.972,0.039,-0.489,-1.987
1986.0,6.293,4.199,1.972,0.147,-0.471,-1.986
1990.0,6.293,4.199,1.972,0.147,-0.471,-1.986
1994.0,7.611,4.931,1.916,0.273,-0.41,-1.902
1998.0,7.611,4.931,1.916,0.273,-0.41,-1.902
2001.0,7.611,4.931,1.916,0.273,-0.41,-1.902
2005.0,8.88,5.558,2.288,0.405,-0.327,-1.806
2009.0,8.88,5.558,2.288,0.405,-0.327,-1.806
2013.0,9.407,6.127,2.671,0.541,-0.247,-1.708
2017.0,9.407,6.127,2.671,0.541,-0.247,-1.708
2020.0,9.407,6.127,2.671,0.541,-0.247,-1.708
2024.0,8.996,6.539,2.917,0.67,-0.181,-1.582
2028.0,8.996,6.539,2.917,0.67,-0.181,-1.582
2032.0,8.688,7.28,2.657,0.67,-0.181,-1.451
2036.0,8.688,7.28,2.657,0.798,-0.115,-1.451
2040.0,8.688,7.28,2.657,0.798,-0.115,-1.451
2043.0,9.055,8.238,2.163,0.927,-0.007,-1.293
2047.0,9.055,8.238,2.163,0.927,-0.007,-1.293
2051.0,9.055,8.238,2.066,0.927,-0.007,-1.293
2055.0,9.747,8.847,2.066,1.028,0.139,-1.082
2059.0,9.747,8.847,2.066,1.028,0.139,-1.082
2062.0,10.021,9.254,2.133,1.085,0.268,-0.851
2066.0,10.021,9.254,2.133,1.085,0.268,-0.851
2070.0,10.021,9.254,2.133,1.085,0.268,-0.851
2074.0,9.861,9.449,2.216,1.116,0.349,-0.658
2077.0,9.861,9.449,2.216,1.116,0.349,-0.658
2081.0,9.108,9.651,2.451,1.116,0.349,-0.522
2085.0,9.108,9.651,2.451,1.128,0.418,-0.522
2089.0,9.108,9.651,2.451,1.128,0.418,-0.522
2092.0,8.003,9.785,2.821,1.123,0.486,-0.407
2096.0,8.003,9.785,2.821,1.123,0.486,-0.407
2100.0,8.003,9.785,2.821,1.123,0.486,-0.407
2104.0,6.984,9.718,3.086,1.104,0.521,-0.29
2107.0,6.984,9.718,3.086,1.104,0.521,-0.29
2111.0,6.575,9.552,3.269,1.104,0.505,-0.203
2115.0,6.575,9.552,3.269,1.077,0.505,-0.203
2119.0,6.575,9.552,3.269,1.077,0.505,-0.203
2122.0,6.471,9.434,3.424,1.038,0.467,-0.178
2126.0,6.471,9.434,3.424,1.038,0.467,-0.178
2130.0,6.471,9.434,3.424,1.038,0.467,-0.178
2133.0,6.298,9.367,3.419,0.973,0.433,-0.173
2137.0,6.298,9.367,3.419,0.973,0.433,-0.173
2141.0,6.107,9.179,3.255,0.882,0.404,-0.159
2145.0,6.107,9.179,3.255,0.882,0.404,-0.159
2148.0,6.107,9.179,3.255,0.882,0.404,-0.159
2152.0,6.112,8.941,3.039,0.77,0.373,-0.137
2156.0,6.112,8.941,3.039,0.77,0.373,-0.137
2160.0,6.112,8.941,2.916,0.77,0.373,-0.137
2163.0,6.23,8.716,2.916,0.638,0.348,-0.123
2167.0,6.23,8.716,2.916,0.638,0.348,-0.123
2171.0,6.129,8.479,2.796,0.481,0.331,-0.109
2175.0,6.129,8.479,2.796,0.481,0.331,-0.109
2178.0,6.129,8.479,2.796,0.481,0.331,-0.109
2182.0,5.876,8.296,2.694,0.312,0.309,-0.09
2186.0,5.876,8.296,2.694,0.312,0.309,-0.09
2189.0,5.876,8.136,2.636,0.312,0.309,-0.09
2193.0,5.7,8.136,2.636,0.148,0.276,-0.074
2197.0,5.7,8.136,2.636,0.148,0.276,-0.074
2201.0,5.745,8.067,2.63,0.004,0.238,-0.068
2204.0,5.745,8.067,2.63,0.004,0.238,-0.068
2208.0,5.745,8.067,2.63,0.004,0.238,-0.068
2212.0,5.704,7.83,2.611,-0.12,0.216,-0.061
2216.0,5.704,7.83,2.611,-0.12,0.216,-0.061
2219.0,5.692,7.479,2.505,-0.12,0.216,-0.04
2223.0,5.692,7.479,2.505,-0.223,0.202,-0.04
2227.0,5.692,7.479,2.505,-0.223,0.202,-0.04
2231.0,5.757,7.165,2.454,-0.295,0.198,-0.022
2235.0,5.757,7.165,2.454,-0.295,0.198,-0.022
2239.0,5.757,7.165,2.5,-0.295,0.198,-0.022
2242.0,5.728,6.968,2.5,-0.336,0.189,-0.001
2246.0,5.728,6.968,2.5,-0.336,0.189,-0.001
2250.0,5.615,6.852,2.425,-0.351,0.173,0.034
2254.0,5.615,6.852,2.425,-0.351,0.173,0.034
2257.0,5.615,6.852,2.425,-0.351,0.173,0.034
2261.0,5.5,6.711,2.288,-0.354,0.159,0.081
2265.0,5.5,6.711,2.288,-0.354,0.159,0.081
2269.0,5.434,6.522,2.188,-0.354,0.159,0.12
2272.0,5.434,6.522,2.188,-0.35,0.145,0.12
2276.0,5.434,6.522,2.188,-0.35,0.145,0.12
2280.0,5.463,6.324,2.164,-0.343,0.128,0.138
2284.0,5.463,6.324,2.164,-0.343,0.128,0.138
2287.0,5.463,6.324,2.164,-0.343,0.128,0.138
2291.0,5.509,6.166,2.143,-0.335,0.108,0.133
2295.0,5.509,6.166,2.143,-0.335,0.108,0.133
2299.0,5.538,6.048,2.211,-0.335,0.096,0.116
2302.0,5.538,6.048,2.211,-0.323,0.096,0.116
2306.0,5.538,6.048,2.211,-0.323,0.096,0.116
2310.0,5.522,5.951,2.352,-0.307,0.093,0.089
2313.0,5.522,5.951,2.352,-0.307,0.093,0.089
2317.0,5.522,5.951,2.352,-0.307,0.093,0.089
2321.0,5.492,5.915,2.466,-0.287,0.088,0.061
2325.0,5.492,5.915,2.466,-0.287,0.088,0.061
2328.0,5.547,5.869,2.541,-0.263,0.082,0.037
2332.0,5.547,5.869,2.541,-0.263,0.082,0.037
2336.0,5.547,5.869,2.541,-0.263,0.082,0.037
2340.0,5.657,5.826,2.606,-0.238,0.083,0.01
2343.0,5.657,5.826,2.606,-0.238,0.083,0.01
2347.0,5.657,5.826,2.667,-0.238,0.083,0.01
2351.0,5.76,5.807,2.667,-0.211,0.09,-0.021
2355.0,5.76,5.807,2.667,-0.211,0.09,-0.021
2358.0,5.852,5.803,2.752,-0.179,0.1,-0.05
2362.0,5.852,5.803,2.752,-0.179,0.1,-0.05
2366.0,5.852,5.803,2.752,-0.179,0.1,-0.05
2370.0,5.888,5.792,2.833,-0.143,0.114,-0.075
2374.0,5.888,5.792,2.833,-0.143,0.114,-0.075
2378.0,5.88,5.805,2.904,-0.143,0.131,-0.091
2381.0,5.88,5.805,2.904,-0.101,0.131,-0.091
2385.0,5.88,5.805,2.904,-0.101,0.131,-0.091
2389.0,5.809,5.823,2.981,-0.052,0.15,-0.097
2393.0,5.809,5.823,2.981,-0.052,0.15,-0.097
2397.0,5.809,5.861,2.987,-0.052,0.15,-0.097
2400.0,5.779,5.861,2.987,0.005,0.164,-0.093
2404.0,5.779,5.861,2.987,0.005,0.164,-0.093
2408.0,5.814,5.971,2.911,0.064,0.172,-0.079
2412.0,5.814,5.971,2.911,0.064,0.172,-0.079
2415.0,5.814,5.971,2.911,0.064,0.172,-0.079
2419.0,5.907,6.147,2.84,0.122,0.18,-0.053
2423.0,5.907,6.147,2.84,0.122,0.18,-0.053
2427.0,6.014,6.323,2.8,0.122,0.18,-0.053
2430.0,6.014,6.323,2.8,0.176,0.181,-0.019
2434.0,6.014,6.323,2.8,0.176,0.181,-0.019
2438.0,6.092,6.523,2.771,0.222,0.178,0.018
2441.0,6.092,6.523,2.771,0.222,0.178,0.018
2445.0,6.092,6.523,2.771,0.222,0.178,0.018
2449.0,6.177,6.637,2.709,0.255,0.17,0.054
2452.0,6.177,6.637,2.709,0.255,0.17,0.054
2456.0,6.242,6.756,2.596,0.255,0.17,0.054
2460.0,6.242,6.756,2.596,0.271,0.164,0.084
2463.0,6.242,6.756,2.596,0.271,0.164,0.084
2467.0,6.286,6.826,2.469,0.273,0.166,0.106
2471.0,6.286,6.826,2.469,0.273,0.166,0.106
2474.0,6.286,6.826,2.469,0.273,0.166,0.106
2478.0,6.373,6.808,2.367,0.257,0.175,0.121
2482.0,6.373,6.808,2.367,0.257,0.175,0.121
2485.0,6.373,6.808,2.367,0.257,0.175,0.121
2489.0,6.502,6.836,2.289,0.227,0.192,0.121
2492.0,6.502,6.836,2.289,0.227,0.192,0.121
2496.0,6.675,6.882,2.226,0.189,0.213,0.112
2500.0,6.675,6.882,2.226,0.189,0.213,0.112
2503.0,6.675,6.882,2.226,0.189,0.213,0.112
2507.0,6.879,6.918,2.231,0.147,0.235,0.099
2511.0,6.879,6.918,2.231,0.147,0.235,0.099
2514.0,6.879,6.918,2.231,0.147,0.235,0.099
2518.0,7.009,6.98,2.252,0.099,0.252,0.079
2522.0,7.009,6.98,2.252,0.099,0.252,0.079
2525.0,7.047,7.036,2.282,0.099,0.252,0.079
2529.0,7.047,7.036,2.282,0.046,0.262,0.053
2533.0,7.047,7.036,2.282,0.046,0.262,0.053
2536.0,7.056,7.107,2.35,-0.005,0.263,0.021
2540.0,7.056,7.107,2.35,-0.005,0.263,0.021
2544.0,7.056,7.107,2.35,-0.005,0.263,0.021
2547.0,7.185,7.175,2.392,-0.049,0.263,-0.024
2551.0,7.185,7.175,2.392,-0.049,0.263,-0.024
2555.0,7.397,7.275,2.533,-0.049,0.263,-0.082
2559.0,7.397,7.275,2.533,-0.079,0.267,-0.082
2563.0,7.397,7.275,2.533,-0.079,0.267,-0.082
2567.0,7.651,7.387,2.723,-0.091,0.276,-0.142
2570.0,7.651,7.387,2.723,-0.091,0.276,-0.142
2574.0,7.651,7.387,3.044,-0.091,0.276,-0.142
2578.0,7.809,7.573,3.044,-0.083,0.283,-0.191
2582.0,7.809,7.573,3.044,-0.083,0.283,-0.191
2586.0,7.869,7.758,3.22,-0.053,0.281,-0.224
2589.0,7.869,7.758,3.22,-0.053,0.281,-0.224
2593.0,7.869,7.758,3.22,-0.053,0.281,-0.224
2597.0,7.862,7.972,3.277,-0.019,0.282,-0.239
2601.0,7.862,7.972,3.277,-0.019,0.282,-0.239
2605.0,7.859,8.158,3.228,0.014,0.298,-0.232
2608.0,7.859,8.158,3.228,0.014,0.298,-0.232
2612.0,7.859,8.158,3.228,0.014,0.298,-0.232
2616.0,7.829,8.207,3.187,0.045,0.327,-0.212
2620.0,7.829,8.207,3.187,0.045,0.327,-0.212
2623.0,7.829,8.207,3.187,0.045,0.327,-0.212
2627.0,7.767,8.171,3.136,0.075,0.365,-0.192
2631.0,7.767,8.171,3.136,0.075,0.365,-0.192
2635.0,7.672,8.132,3.132,0.104,0.406,-0.176
2638.0,7.672,8.132,3.132,0.104,0.406,-0.176
2642.0,7.672,8.132,3.132,0.104,0.406,-0.176
2646.0,7.613,8.081,3.242,0.133,0.443,-0.167
2650.0,7.613,8.081,3.242,0.133,0.443,-0.167
2653.0,7.613,8.081,3.41,0.133,0.443,-0.167
2657.0,7.525,8.101,3.41,0.166,0.475,-0.173
2661.0,7.525,8.101,3.41,0.166,0.475,-0.173
2664.0,7.425,8.166,3.645,0.21,0.501,-0.187
2668.0,7.425,8.166,3.645,0.21,0.501,-0.187
2672.0,7.425,8.166,3.645,0.21,0.501,-0.187
2676.0,7.252,8.286,3.887,0.273,0.518,-0.195
2679.0,7.252,8.286,3.887,0.273,0.518,-0.195
2683.0,7.036,8.337,4.079,0.273,0.518,-0.195
2687.0,7.036,8.337,4.079,0.353,0.515,-0.188
2691.0,7.036,8.337,4.079,0.353,0.515,-0.188
2694.0,6.858,8.294,4.187,0.439,0.491,-0.169
2698.0,6.858,8.294,4.187,0.439,0.491,-0.169
2702.0,6.858,8.294,4.187,0.439,0.491,-0.169
2705.0,6.836,8.259,4.207,0.52,0.451,-0.152
2709.0,6.836,8.259,4.207,0.52,0.451,-0.152
2713.0,6.904,8.235,4.114,0.52,0.451,-0.143
2717.0,6.904,8.235,4.114,0.585,0.401,-0.143
2720.0,6.904,8.235,4.114,0.585,0.401,-0.143
2724.0,7.013,8.243,3.897,0.617,0.341,-0.129
2728.0,7.013,8.243,3.897,0.617,0.341,-0.129
2732.0,7.013,8.243,3.897,0.617,0.341,-0.129
2735.0,7.085,8.192,3.659,0.608,0.283,-0.107
2739.0,7.085,8.192,3.659,0.608,0.283,-0.107
2743.0,7.05,8.115,3.442,0.608,0.237,-0.089
2747.0,7.05,8.115,3.442,0.564,0.237,-0.089
2750.0,7.05,8.115,3.442,0.564,0.237,-0.089
2754.0,6.996,8.069,3.296,0.491,0.199,-0.076
2758.0,6.996,8.069,3.296,0.491,0.199,-0.076
2761.0,6.996,8.069,3.296,0.491,0.199,-0.076
2765.0,6.9,8.022,3.281,0.397,0.168,-0.069
2769.0,6.9,8.022,3.281,0.397,0.168,-0.069
2773.0,6.807,7.862,3.299,0.289,0.142,-0.052
2776.0,6.807,7.862,3.299,0.289,0.142,-0.052
2780.0,6.807,7.862,3.299,0.289,0.142,-0.052
2784.0,6.73,7.609,3.304,0.166,0.125,-0.03
2788.0,6.73,7.609,3.304,0.166,0.125,-0.03
2791.0,6.73,7.609,3.382,0.166,0.125,-0.03
2795.0,6.677,7.338,3.382,0.039,0.12,-0.019
2799.0,6.677,7.338,3.382,0.039,0.12,-0.019
2803.0,6.6,7.12,3.536,-0.081,0.12,-0.025
2806.0,6.6,7.12,3.536,-0.081,0.12,-0.025
2810.0,6.6,7.12,3.536,-0.081,0.12,-0.025
2814.0,6.504,6.918,3.68,-0.188,0.119,-0.042
2818.0,6.504,6.918,3.68,-0.188,0.119,-0.042
2822.0,6.343,6.762,3.824,-0.188,0.119,-0.064
2825.0,6.343,6.762,3.824,-0.272,0.12,-0.064
2829.0,6.343,6.762,3.824,-0.272,0.12,-0.064
2833.0,6.142,6.549,3.904,-0.329,0.114,-0.086
2837.0,6.142,6.549,3.904,-0.329,0.114,-0.086
2841.0,6.142,6.549,3.909,-0.329,0.114,-0.086
2845.0,5.891,6.264,3.909,-0.363,0.097,-0.109
2848.0,5.891,6.264,3.909,-0.363,0.097,-0.109
2852.0,5.711,5.959,3.799,-0.378,0.074,-0.141
2856.0,5.711,5.959,3.799,-0.378,0.074,-0.141
2860.0,5.711,5.959,3.799,-0.378,0.074,-0.141
2864.0,5.551,5.731,3.617,-0.377,0.055,-0.188
2867.0,5.551,5.731,3.617,-0.377,0.055,-0.188
2871.0,5.397,5.535,3.384,-0.361,0.048,-0.244
2875.0,5.397,5.535,3.384,-0.361,0.048,-0.244
2879.0,5.397,5.535,3.384,-0.361,0.048,-0.244
2883.0,5.347,5.399,3.215,-0.331,0.058,-0.31
2887.0,5.347,5.399,3.215,-0.331,0.058,-0.31
2890.0,5.269,5.384,3.25,-0.331,0.058,-0.31
2894.0,5.269,5.384,3.25,-0.286,0.08,-0.379
2898.0,5.269,5.384,3.25,-0.286,0.08,-0.379
2902.0,5.218,5.505,3.515,-0.218,0.094,-0.443
2906.0,5.218,5.505,3.515,-0.218,0.094,-0.443
2909.0,5.218,5.505,3.515,-0.218,0.094,-0.443
2913.0,5.126,5.705,3.922,-0.128,0.09,-0.496
2917.0,5.126,5.705,3.922,-0.128,0.09,-0.496
2921.0,5.017,5.958,4.261,-0.021,0.066,-0.531
2925.0,5.017,5.958,4.261,-0.021,0.066,-0.531
2929.0,5.017,5.958,4.261,-0.021,0.066,-0.531
2932.0,4.892,6.266,4.423,0.09,0.032,-0.541
2936.0,4.892,6.266,4.423,0.09,0.032,-0.541
2940.0,4.824,6.584,4.439,0.09,0.032,-0.541
2944.0,4.824,6.584,4.439,0.19,-0.001,-0.529
2947.0,4.824,6.584,4.439,0.19,-0.001,-0.529
2951.0,4.81,6.945,4.35,0.273,-0.028,-0.497
2955.0,4.81,6.945,4.35,0.273,-0.028,-0.497
2959.0,4.81,6.945,4.35,0.273,-0.028,-0.497
2963.0,4.933,7.262,4.208,0.334,-0.057,-0.445
2967.0,4.933,7.262,4.208,0.334,-0.057,-0.445
2970.0,5.115,7.54,4.055,0.365,-0.085,-0.388
2974.0,5.115,7.54,4.055,0.365,-0.085,-0.388
2978.0,5.115,7.54,4.055,0.365,-0.085,-0.388
2982.0,5.286,7.815,3.881,0.365,-0.112,-0.345
2986.0,5.286,7.815,3.881,0.365,-0.112,-0.345
2989.0,5.373,8.072,3.714,0.365,-0.112,-0.317
2993.0,5.373,8.072,3.714,0.336,-0.138,-0.317
2997.0,5.373,8.072,3.714,0.336,-0.138,-0.317
