deltaTime,Acc_X,Acc_Y,Acc_Z,Gyro_X,Gyro_Y,Gyro_Z
0.0,-3.917,-3.796,3.792,0.606,0.472,-0.231
3.0,-3.917,-3.796,3.792,0.606,0.472,-0.231
6.0,-3.917,-3.796,3.792,0.606,0.472,-0.231
9.0,-4.403,-4.179,4.189,0.606,0.472,-0.286
12.0,-4.403,-4.179,4.189,0.677,0.469,-0.286
15.0,-4.403,-4.179,4.189,0.677,0.469,-0.286
18.0,-4.403,-4.179,4.189,0.677,0.469,-0.286
21.0,-4.923,-4.643,4.683,0.764,0.463,-0.311
24.0,-4.923,-4.643,4.683,0.764,0.463,-0.311
27.0,-4.923,-4.643,4.683,0.764,0.463,-0.311
30.0,-5.764,-4.813,5.114,0.897,0.438,-0.308
33.0,-5.764,-4.813,5.114,0.897,0.438,-0.308
36.0,-5.764,-4.813,5.114,0.897,0.438,-0.308
40.0,-6.693,-4.791,5.444,1.019,0.404,-0.289
43.0,-6.693,-4.791,5.444,1.019,0.404,-0.289
47.0,-6.693,-4.791,5.444,1.019,0.404,-0.289
51.0,-7.533,-4.762,5.787,1.087,0.359,-0.269
55.0,-7.533,-4.762,5.787,1.087,0.359,-0.269
58.0,-8.366,-4.634,6.031,1.087,0.359,-0.253
62.0,-8.366,-4.634,6.031,1.082,0.338,-0.253
66.0,-8.366,-4.634,6.031,1.082,0.338,-0.253
69.0,-9.141,-4.869,6.269,1.014,0.332,-0.229
73.0,-9.141,-4.869,6.269,1.014,0.332,-0.229
77.0,-9.141,-4.869,6.269,1.014,0.332,-0.229
81.0,-10.118,-5.331,6.648,0.934,0.349,-0.173
84.0,-10.118,-5.331,6.648,0.934,0.349,-0.173
88.0,-11.038,-5.788,7.253,0.861,0.397,-0.095
92.0,-11.038,-5.788,7.253,0.861,0.397,-0.095
96.0,-11.038,-5.788,7.253,0.861,0.397,-0.095
100.0,-12.042,-6.465,7.954,0.803,0.462,0.004
104.0,-12.042,-6.465,7.954,0.803,0.462,0.004
107.0,-12.983,-6.864,8.646,0.803,0.462,0.004
111.0,-12.983,-6.864,8.646,0.778,0.506,0.105
115.0,-12.983,-6.864,8.646,0.778,0.506,0.105
119.0,-13.875,-6.985,9.24,0.738,0.537,0.191
123.0,-13.875,-6.985,9.24,0.738,0.537,0.191
126.0,-13.875,-6.985,9.24,0.738,0.537,0.191
130.0,-14.468,-7.19,9.745,0.683,0.531,0.286
134.0,-14.468,-7.19,9.745,0.683,0.531,0.286
138.0,-14.789,-7.323,10.053,0.632,0.499,0.396
142.0,-14.789,-7.323,10.053,0.632,0.499,0.396
146.0,-14.789,-7.323,10.053,0.632,0.499,0.396
150.0,-14.539,-7.528,10.077,0.564,0.442,0.491
154.0,-14.539,-7.528,10.077,0.564,0.442,0.491
157.0,-13.856,-8.045,9.846,0.502,0.379,0.562
161.0,-13.856,-8.045,9.846,0.502,0.379,0.562
165.0,-13.856,-8.045,9.846,0.502,0.379,0.562
169.0,-13.067,-8.011,9.437,0.483,0.317,0.582
173.0,-13.067,-8.011,9.437,0.483,0.317,0.582
177.0,-11.948,-7.589,8.876,0.483,0.317,0.515
180.0,-11.948,-7.589,8.876,0.446,0.241,0.515
184.0,-11.948,-7.589,8.876,0.446,0.241,0.515
188.0,-10.72,-6.894,8.279,0.375,0.143,0.385
192.0,-10.72,-6.894,8.279,0.375,0.143,0.385
196.0,-10.72,-6.894,8.279,0.375,0.143,0.385
199.0,-9.793,-5.906,7.751,0.295,0.022,0.226
203.0,-9.793,-5.906,7.751,0.295,0.022,0.226
207.0,-9.347,-4.734,7.23,0.222,-0.12,0.085
211.0,-9.347,-4.734,7.23,0.222,-0.12,0.085
215.0,-9.347,-4.734,7.23,0.222,-0.12,0.085
218.0,-9.095,-3.416,6.665,0.126,-0.263,-0.016
222.0,-9.095,-3.416,6.665,0.126,-0.263,-0.016
226.0,-8.879,-2.259,6.159,0.126,-0.387,-0.075
230.0,-8.879,-2.259,6.159,-0.049,-0.387,-0.075
234.0,-8.879,-2.259,6.159,-0.049,-0.387,-0.075
238.0,-9.068,-1.643,6.002,-0.319,-0.485,-0.1
242.0,-9.068,-1.643,6.002,-0.319,-0.485,-0.1
246.0,-9.925,-2.163,6.233,-0.621,-0.583,-0.098
250.0,-9.925,-2.163,6.233,-0.621,-0.583,-0.098
254.0,-9.925,-2.163,6.233,-0.621,-0.583,-0.098
258.0,-9.786,-2.422,6.307,-0.83,-0.706,-0.077
262.0,-9.786,-2.422,6.307,-0.83,-0.706,-0.077
266.0,-9.421,-3.054,6.149,-0.964,-0.795,-0.03
270.0,-9.421,-3.054,6.149,-0.964,-0.795,-0.03
274.0,-9.421,-3.054,6.149,-0.964,-0.795,-0.03
278.0,-10.185,-3.686,5.86,-1.02,-0.818,0.052
282.0,-10.185,-3.686,5.86,-1.02,-0.818,0.052
286.0,-10.92,-4.088,5.538,-0.997,-0.826,0.143
290.0,-10.92,-4.088,5.538,-0.997,-0.826,0.143
294.0,-10.92,-4.088,5.538,-0.997,-0.826,0.143
298.0,-10.837,-4.613,5.611,-0.928,-0.784,0.275
302.0,-10.837,-4.613,5.611,-0.928,-0.784,0.275
306.0,-11.487,-5.209,5.719,-0.784,-0.647,0.494
310.0,-11.487,-5.209,5.719,-0.784,-0.647,0.494
314.0,-11.487,-5.209,5.719,-0.784,-0.647,0.494
318.0,-12.267,-5.137,5.8,-0.528,-0.583,0.62
322.0,-12.267,-5.137,5.8,-0.528,-0.583,0.62
326.0,-12.717,-4.643,5.75,-0.229,-0.647,0.658
330.0,-12.717,-4.643,5.75,-0.229,-0.647,0.658
334.0,-12.717,-4.643,5.699,-0.229,-0.647,0.658
338.0,-12.619,-4.105,5.699,0.068,-0.788,0.657
342.0,-12.619,-4.105,5.699,0.068,-0.788,0.657
346.0,-12.085,-3.586,5.659,0.351,-0.933,0.656
350.0,-12.085,-3.586,5.659,0.351,-0.933,0.656
354.0,-12.085,-3.586,5.659,0.351,-0.933,0.656
357.0,-11.527,-3.085,5.648,0.609,-1.051,0.672
361.0,-11.527,-3.085,5.648,0.609,-1.051,0.672
365.0,-11.14,-2.637,5.637,0.828,-1.14,0.708
369.0,-11.14,-2.637,5.637,0.828,-1.14,0.708
373.0,-11.14,-2.637,5.637,0.828,-1.14,0.708
377.0,-10.911,-2.271,5.606,0.991,-1.206,0.753
381.0,-10.911,-2.271,5.606,0.991,-1.206,0.753
385.0,-10.789,-1.983,5.704,1.095,-1.268,0.797
389.0,-10.789,-1.983,5.704,1.095,-1.268,0.797
393.0,-10.789,-1.983,5.704,1.095,-1.268,0.797
397.0,-10.838,-1.719,5.942,1.144,-1.35,0.83
400.0,-10.838,-1.719,5.942,1.144,-1.35,0.83
404.0,-10.932,-1.323,6.172,1.147,-1.464,0.851
408.0,-10.932,-1.323,6.172,1.147,-1.464,0.851
412.0,-10.932,-1.323,6.172,1.147,-1.464,0.851
416.0,-11.052,-1.11,6.505,1.117,-1.601,0.861
420.0,-11.052,-1.11,6.505,1.117,-1.601,0.861
424.0,-11.212,-1.091,6.89,1.058,-1.771,0.839
428.0,-11.212,-1.091,6.89,1.058,-1.771,0.839
432.0,-11.212,-1.091,6.89,1.058,-1.771,0.839
436.0,-11.17,-1.021,7.212,0.984,-1.968,0.788
439.0,-11.17,-1.021,7.212,0.984,-1.968,0.788
443.0,-10.896,-0.854,7.624,0.984,-2.174,0.713
447.0,-10.896,-0.854,7.624,0.913,-2.174,0.713
451.0,-10.896,-0.854,7.624,0.913,-2.174,0.713
455.0,-10.485,-0.689,8.057,0.864,-2.369,0.611
459.0,-10.485,-0.689,8.057,0.864,-2.369,0.611
463.0,-10.094,-0.361,8.551,0.864,-2.369,0.495
467.0,-10.094,-0.361,8.551,0.847,-2.55,0.495
471.0,-10.094,-0.361,8.551,0.847,-2.55,0.495
475.0,-9.872,-0.025,9.142,0.87,-2.737,0.401
478.0,-9.872,-0.025,9.142,0.87,-2.737,0.401
482.0,-9.872,0.021,9.781,0.87,-2.737,0.401
486.0,-9.784,0.021,9.781,0.929,-2.943,0.354
490.0,-9.784,0.021,9.781,0.929,-2.943,0.354
493.0,-9.745,-0.112,10.298,1.015,-3.176,0.347
497.0,-9.745,-0.112,10.298,1.015,-3.176,0.347
501.0,-9.745,-0.112,10.298,1.015,-3.176,0.347
505.0,-9.322,-0.253,10.388,1.114,-3.415,0.369
509.0,-9.322,-0.253,10.388,1.114,-3.415,0.369
513.0,-8.45,-0.427,10.436,1.209,-3.617,0.394
517.0,-8.45,-0.427,10.436,1.209,-3.617,0.394
521.0,-8.45,-0.427,10.436,1.209,-3.617,0.394
525.0,-7.586,-0.684,10.695,1.312,-3.783,0.393
529.0,-7.586,-0.684,10.695,1.312,-3.783,0.393
533.0,-7.102,-0.924,11.17,1.438,-3.935,0.352
536.0,-7.102,-0.924,11.17,1.438,-3.935,0.352
540.0,-7.102,-0.924,11.17,1.438,-3.935,0.352
544.0,-6.968,-0.981,11.405,1.587,-4.089,0.284
548.0,-6.968,-0.981,11.405,1.587,-4.089,0.284
552.0,-6.917,-0.872,11.558,1.758,-4.239,0.215
556.0,-6.917,-0.872,11.558,1.758,-4.239,0.215
560.0,-6.917,-0.872,11.558,1.758,-4.239,0.215
564.0,-6.99,-0.833,11.965,1.952,-4.387,0.158
568.0,-6.99,-0.833,11.965,1.952,-4.387,0.158
572.0,-7.007,-1.266,12.394,1.952,-4.558,0.112
576.0,-7.007,-1.266,12.394,2.142,-4.558,0.112
579.0,-7.007,-1.266,12.394,2.142,-4.558,0.112
583.0,-7.255,-1.767,12.756,2.322,-4.74,0.064
587.0,-7.255,-1.767,12.756,2.322,-4.74,0.064
591.0,-7.473,-2.221,12.895,2.322,-4.74,0.064
595.0,-7.473,-2.221,12.895,2.486,-4.924,0.014
599.0,-7.473,-2.221,12.895,2.486,-4.924,0.014
603.0,-7.376,-2.812,12.91,2.646,-4.991,-0.039
607.0,-7.376,-2.812,12.91,2.646,-4.991,-0.039
611.0,-7.164,-3.626,13.041,2.646,-4.991,-0.039
615.0,-7.164,-3.626,13.041,2.812,-4.992,-0.109
619.0,-7.164,-3.626,13.041,2.812,-4.992,-0.109
623.0,-7.309,-4.418,13.146,3.005,-4.992,-0.203
627.0,-7.309,-4.418,13.146,3.005,-4.992,-0.203
631.0,-7.831,-5.644,12.985,3.005,-4.992,-0.297
635.0,-7.831,-5.644,12.985,3.236,-4.992,-0.297
639.0,-7.831,-5.644,12.985,3.236,-4.992,-0.297
643.0,-7.997,-6.829,12.458,3.5,-4.992,-0.382
647.0,-7.997,-6.829,12.458,3.5,-4.992,-0.382
651.0,-7.527,-7.334,12.103,3.802,-4.992,-0.472
655.0,-7.527,-7.334,12.103,3.802,-4.992,-0.472
659.0,-7.527,-7.334,12.103,3.802,-4.992,-0.472
663.0,-6.973,-7.682,11.924,4.128,-4.992,-0.555
667.0,-6.973,-7.682,11.924,4.128,-4.992,-0.555
671.0,-6.553,-8.054,11.426,4.441,-4.992,-0.637
675.0,-6.553,-8.054,11.426,4.441,-4.992,-0.637
679.0,-6.553,-8.054,11.426,4.441,-4.992,-0.637
683.0,-5.746,-8.128,10.679,4.727,-4.992,-0.741
687.0,-5.746,-8.128,10.679,4.727,-4.992,-0.741
691.0,-4.637,-7.524,9.949,4.951,-4.992,-0.872
695.0,-4.637,-7.524,9.949,4.951,-4.992,-0.872
699.0,-4.637,-7.524,9.949,4.951,-4.992,-0.872
702.0,-3.544,-6.537,9.157,4.995,-4.975,-1.0
706.0,-3.544,-6.537,9.157,4.995,-4.975,-1.0
710.0,-2.731,-5.399,8.221,4.995,-4.847,-1.117
714.0,-2.731,-5.399,8.221,4.995,-4.847,-1.117
718.0,-2.731,-5.399,8.221,4.995,-4.847,-1.117
722.0,-1.878,-3.987,7.416,4.995,-4.608,-1.231
726.0,-1.878,-3.987,7.416,4.995,-4.608,-1.231
730.0,-1.099,-2.722,6.334,4.995,-4.325,-1.349
734.0,-1.099,-2.722,6.334,4.995,-4.325,-1.349
738.0,-1.099,-2.722,6.334,4.995,-4.325,-1.349
741.0,0.055,-1.257,4.935,4.995,-4.033,-1.484
745.0,0.055,-1.257,4.935,4.995,-4.033,-1.484
749.0,0.783,0.38,3.823,4.995,-4.033,-1.634
753.0,0.783,0.38,3.823,4.995,-3.689,-1.634
757.0,0.783,0.38,3.823,4.995,-3.689,-1.634
760.0,1.848,2.238,2.922,4.995,-3.448,-1.775
764.0,1.848,2.238,2.922,4.995,-3.448,-1.775
768.0,1.848,2.238,2.922,4.995,-3.448,-1.775
772.0,2.305,4.515,2.244,4.995,-3.195,-1.897
775.0,2.305,4.515,2.244,4.995,-3.195,-1.897
779.0,2.722,6.987,1.552,4.995,-2.974,-1.961
783.0,2.722,6.987,1.552,4.992,-2.974,-1.961
786.0,2.722,6.987,1.552,4.992,-2.974,-1.961
790.0,3.475,9.273,0.697,4.916,-2.797,-1.912
794.0,3.475,9.273,0.697,4.916,-2.797,-1.912
798.0,3.475,9.273,0.697,4.916,-2.797,-1.912
801.0,4.466,10.918,-0.081,4.774,-2.582,-1.738
805.0,4.466,10.918,-0.081,4.774,-2.582,-1.738
809.0,5.088,12.358,-1.132,4.701,-2.306,-1.432
813.0,5.088,12.358,-1.132,4.701,-2.306,-1.432
817.0,5.088,12.358,-1.132,4.701,-2.306,-1.432
821.0,5.532,14.077,-2.552,4.708,-1.962,-0.989
825.0,5.532,14.077,-2.552,4.708,-1.962,-0.989
829.0,6.205,15.628,-4.02,4.761,-1.551,-0.425
833.0,6.205,15.628,-4.02,4.761,-1.551,-0.425
837.0,6.205,15.628,-4.02,4.761,-1.551,-0.425
840.0,7.041,16.713,-4.956,4.84,-1.084,0.228
844.0,7.041,16.713,-4.956,4.84,-1.084,0.228
848.0,8.078,17.448,-5.53,4.84,-0.565,0.943
852.0,8.078,17.448,-5.53,4.897,-0.565,0.943
856.0,8.078,17.448,-5.53,4.897,-0.565,0.943
860.0,8.818,17.721,-5.82,4.917,-0.007,1.661
863.0,8.818,17.721,-5.82,4.917,-0.007,1.661
867.0,8.818,17.45,-5.789,4.917,-0.007,1.661
871.0,9.3,17.45,-5.789,4.872,0.545,2.342
875.0,9.3,17.45,-5.789,4.872,0.545,2.342
878.0,9.257,17.012,-5.39,4.703,1.119,2.944
882.0,9.257,17.012,-5.39,4.703,1.119,2.944
886.0,9.257,17.012,-5.39,4.703,1.119,2.944
890.0,8.409,16.507,-4.606,4.388,1.685,3.481
893.0,8.409,16.507,-4.606,4.388,1.685,3.481
897.0,6.612,15.672,-4.029,4.388,1.685,3.481
901.0,6.612,15.672,-4.029,3.924,2.188,3.974
905.0,6.612,15.672,-4.029,3.924,2.188,3.974
908.0,4.529,14.551,-4.201,3.315,2.571,4.394
912.0,4.529,14.551,-4.201,3.315,2.571,4.394
916.0,4.529,14.551,-4.201,3.315,2.571,4.394
920.0,2.665,13.32,-4.534,2.561,2.858,4.697
923.0,2.665,13.32,-4.534,2.561,2.858,4.697
927.0,0.965,12.082,-4.394,2.561,3.08,4.879
931.0,0.965,12.082,-4.394,1.657,3.08,4.879
934.0,0.965,12.082,-4.394,1.657,3.08,4.879
938.0,-0.788,10.54,-3.456,0.633,3.238,4.953
942.0,-0.788,10.54,-3.456,0.633,3.238,4.953
946.0,-0.788,10.54,-3.456,0.633,3.238,4.953
950.0,-3.035,8.576,-2.116,-0.45,3.297,4.932
953.0,-3.035,8.576,-2.116,-0.45,3.297,4.932
957.0,-5.703,6.446,-0.711,-1.539,3.214,4.826
961.0,-5.703,6.446,-0.711,-1.539,3.214,4.826
965.0,-5.703,6.446,-0.711,-1.539,3.214,4.826
969.0,-8.544,4.277,0.549,-2.603,2.992,4.608
972.0,-8.544,4.277,0.549,-2.603,2.992,4.608
976.0,-11.816,1.931,1.837,-2.603,2.992,4.227
980.0,-11.816,1.931,1.837,-3.615,2.645,4.227
984.0,-11.816,1.931,1.837,-3.615,2.645,4.227
988.0,-15.108,-0.673,2.885,-4.52,2.14,3.624
992.0,-15.108,-0.673,2.885,-4.52,2.14,3.624
995.0,-15.108,-4.017,3.078,-4.52,2.14,3.624
999.0,-16.265,-4.017,3.078,-4.987,1.449,2.85
1003.0,-16.265,-4.017,3.078,-4.987,1.449,2.85
1007.0,-14.456,-8.094,3.011,-5.013,0.659,1.93
1011.0,-14.456,-8.094,3.011,-5.013,0.659,1.93
1015.0,-14.456,-11.509,3.12,-5.013,0.659,1.93
1019.0,-11.39,-11.509,3.12,-5.013,-0.111,0.829
1024.0,-11.39,-11.509,3.12,-5.013,-0.111,0.829
1028.0,-8.411,-13.723,3.178,-5.012,-0.775,-0.329
1032.0,-8.411,-13.723,3.178,-5.012,-0.775,-0.329
1036.0,-5.948,-14.463,3.309,-4.759,-1.26,-1.358
1040.0,-5.948,-14.463,3.309,-4.759,-1.26,-1.358
1044.0,-5.948,-14.463,3.309,-4.759,-1.26,-1.358
1049.0,-4.066,-14.052,3.629,-3.85,-1.539,-2.125
1053.0,-4.066,-14.052,3.629,-3.85,-1.539,-2.125
1057.0,-2.922,-12.795,4.273,-2.766,-1.692,-2.629
1061.0,-2.922,-12.795,4.273,-2.766,-1.692,-2.629
1065.0,-2.204,-10.808,4.566,-2.766,-1.818,-2.931
1069.0,-2.204,-10.808,4.566,-1.695,-1.818,-2.931
1074.0,-2.204,-10.808,4.566,-1.695,-1.818,-2.931
1078.0,-1.526,-8.679,4.445,-0.734,-1.95,-3.105
1082.0,-1.526,-8.679,4.445,-0.734,-1.95,-3.105
1086.0,-0.908,-6.666,4.092,0.047,-2.099,-3.227
1090.0,-0.908,-6.666,4.092,0.047,-2.099,-3.227
1094.0,-0.908,-6.666,4.092,0.047,-2.099,-3.227
1098.0,-0.224,-4.75,3.348,0.624,-2.246,-3.351
1102.0,-0.224,-4.75,3.348,0.624,-2.246,-3.351
1106.0,0.586,-2.901,2.419,1.024,-2.335,-3.473
1110.0,0.586,-2.901,2.419,1.024,-2.335,-3.473
1114.0,0.586,-2.901,2.419,1.024,-2.335,-3.473
1118.0,1.939,-1.183,1.586,1.292,-2.353,-3.579
1121.0,1.939,-1.183,1.586,1.292,-2.353,-3.579
1125.0,3.767,0.788,0.759,1.476,-2.295,-3.685
1129.0,3.767,0.788,0.759,1.476,-2.295,-3.685
1133.0,3.767,0.788,0.759,1.476,-2.295,-3.685
1137.0,5.505,2.623,0.441,1.62,-2.185,-3.782
1141.0,5.505,2.623,0.441,1.62,-2.185,-3.782
1144.0,7.023,4.295,0.603,1.72,-2.084,-3.838
1148.0,7.023,4.295,0.603,1.72,-2.084,-3.838
1152.0,7.023,4.295,0.603,1.72,-2.084,-3.838
1156.0,7.035,5.273,1.006,1.736,-1.984,-3.846
1160.0,7.035,5.273,1.006,1.736,-1.984,-3.846
1164.0,7.584,7.022,0.701,1.736,-1.984,-3.846
1167.0,7.584,7.022,0.701,1.739,-2.065,-3.822
1171.0,7.584,7.022,0.701,1.739,-2.065,-3.822
1175.0,7.668,9.02,0.209,1.69,-2.089,-3.752
1179.0,7.668,9.02,0.209,1.69,-2.089,-3.752
1183.0,7.668,9.02,0.209,1.69,-2.089,-3.752
1186.0,8.047,10.597,-0.271,1.654,-2.114,-3.648
1190.0,8.047,10.597,-0.271,1.654,-2.114,-3.648
1194.0,8.667,12.258,-1.426,1.627,-2.129,-3.516
1198.0,8.667,12.258,-1.426,1.627,-2.129,-3.516
1202.0,8.667,12.258,-1.426,1.627,-2.129,-3.516
1206.0,9.609,13.95,-2.65,1.607,-2.085,-3.335
1210.0,9.609,13.95,-2.65,1.607,-2.085,-3.335
1214.0,10.551,15.966,-3.96,1.602,-1.966,-3.109
1218.0,10.551,15.966,-3.96,1.602,-1.966,-3.109
1223.0,10.551,18.507,-5.872,1.602,-1.966,-3.109
1227.0,11.659,18.507,-5.872,1.605,-1.772,-2.808
1231.0,11.659,18.507,-5.872,1.605,-1.772,-2.808
1235.0,13.535,19.59,-8.075,1.623,-1.512,-2.421
1239.0,13.535,19.59,-8.075,1.623,-1.512,-2.421
1243.0,16.201,19.596,-10.972,1.623,-1.09,-1.946
1247.0,16.201,19.596,-10.972,1.632,-1.09,-1.946
1251.0,16.201,19.596,-10.972,1.632,-1.09,-1.946
1255.0,18.656,19.596,-13.168,1.623,-0.455,-1.351
1260.0,18.656,19.596,-13.168,1.623,-0.455,-1.351
1264.0,19.586,19.596,-13.814,1.587,0.309,-0.647
1268.0,19.586,19.596,-13.814,1.587,0.309,-0.647
1272.0,19.586,19.596,-13.365,1.587,0.309,-0.647
1276.0,19.596,19.596,-13.365,1.552,1.107,0.076
1280.0,19.596,19.596,-13.365,1.552,1.107,0.076
1284.0,19.426,19.596,-12.987,1.519,1.888,0.791
1288.0,19.426,19.596,-12.987,1.519,1.888,0.791
1292.0,18.978,19.596,-13.157,1.519,1.888,1.531
1296.0,18.978,19.596,-13.157,1.472,2.658,1.531
1300.0,18.978,19.596,-13.157,1.472,2.658,1.531
1304.0,18.416,19.596,-12.494,1.366,3.453,2.31
1308.0,18.416,19.596,-12.494,1.366,3.453,2.31
1312.0,17.129,19.596,-10.967,1.366,4.228,3.058
1316.0,17.129,19.596,-10.967,1.176,4.228,3.058
1320.0,17.129,19.596,-10.967,1.176,4.228,3.058
1324.0,14.619,19.596,-8.664,0.911,4.865,3.77
1328.0,14.619,19.596,-8.664,0.911,4.865,3.77
1332.0,11.408,19.586,-6.312,0.911,5.015,4.449
1336.0,11.408,19.586,-6.312,0.636,5.015,4.449
1340.0,11.408,19.586,-6.312,0.636,5.015,4.449
1343.0,7.551,18.039,-3.574,0.363,5.015,4.942
1347.0,7.551,18.039,-3.574,0.363,5.015,4.942
1351.0,1.967,14.926,-0.654,0.363,5.015,4.942
1355.0,1.967,14.926,-0.654,0.044,5.015,5.013
1359.0,1.967,14.926,-0.654,0.044,5.015,5.013
1363.0,-4.557,11.751,3.315,-0.334,5.015,5.013
1366.0,-4.557,11.751,3.315,-0.334,5.015,5.013
1370.0,-4.557,11.751,8.944,-0.334,5.015,5.013
1374.0,-11.383,9.266,8.944,-0.84,5.015,5.013
1378.0,-11.383,9.266,8.944,-0.84,5.015,5.013
1382.0,-18.255,7.592,10.893,-1.502,4.973,5.013
1386.0,-18.255,7.592,10.893,-1.502,4.973,5.013
1390.0,-18.255,7.592,10.893,-1.502,4.973,5.013
1394.0,-19.6,4.452,7.7,-2.29,4.273,5.013
1398.0,-19.6,4.452,7.7,-2.29,4.273,5.013
1402.0,-19.6,-1.801,5.718,-3.142,3.11,4.9
1406.0,-19.6,-1.801,5.718,-3.142,3.11,4.9
1410.0,-19.6,-1.801,8.884,-3.142,3.11,4.9
1414.0,-18.641,-5.714,8.884,-3.911,1.759,3.94
1418.0,-18.641,-5.714,8.884,-3.911,1.759,3.94
1422.0,-10.189,-5.257,7.381,-4.559,0.495,2.711
1426.0,-10.189,-5.257,7.381,-4.559,0.495,2.711
1430.0,-10.189,-5.07,5.697,-4.559,0.495,2.711
1434.0,-4.828,-5.07,5.697,-4.954,-0.189,1.624
1438.0,-4.828,-5.07,5.697,-4.954,-0.189,1.624
1442.0,-1.54,-5.349,5.894,-5.013,-0.716,0.665
1446.0,-1.54,-5.349,5.894,-5.013,-0.716,0.665
1450.0,2.101,-5.55,6.593,-5.013,-0.716,0.665
1454.0,2.101,-5.55,6.593,-4.972,-1.207,-0.202
1458.0,2.101,-5.55,6.593,-4.972,-1.207,-0.202
1462.0,6.986,-4.986,7.068,-4.518,-1.543,-0.936
1466.0,6.986,-4.986,7.068,-4.518,-1.543,-0.936
1470.0,12.793,-4.451,6.658,-4.518,-1.543,-1.371
1474.0,12.793,-4.451,6.658,-3.638,-1.666,-1.371
1478.0,12.793,-4.451,6.658,-3.638,-1.666,-1.371
1482.0,16.012,-2.967,5.037,-2.573,-1.503,-1.501
1486.0,16.012,-2.967,5.037,-2.573,-1.503,-1.501
1490.0,16.365,-1.935,4.035,-1.431,-1.068,-1.445
1494.0,16.365,-1.935,4.035,-1.431,-1.068,-1.445
1498.0,16.365,-1.935,4.035,-1.431,-1.068,-1.445
1502.0,15.098,-1.0,3.482,-0.305,-0.598,-1.332
1506.0,15.098,-1.0,3.482,-0.305,-0.598,-1.332
1510.0,13.448,0.114,2.893,0.714,-0.242,-1.171
1514.0,13.448,0.114,2.893,0.714,-0.242,-1.171
1518.0,13.448,0.114,2.893,0.714,-0.242,-1.171
1522.0,11.868,1.266,2.587,1.573,0.015,-0.977
1526.0,11.868,1.266,2.587,1.573,0.015,-0.977
1530.0,10.233,2.386,2.614,2.249,0.186,-0.799
1534.0,10.233,2.386,2.614,2.249,0.186,-0.799
1537.0,10.233,2.386,2.614,2.249,0.186,-0.799
1541.0,8.745,3.445,2.667,2.724,0.268,-0.657
1545.0,8.745,3.445,2.667,2.724,0.268,-0.657
1549.0,7.63,4.526,2.559,2.724,0.268,-0.534
1552.0,7.63,4.526,2.559,2.996,0.296,-0.534
1556.0,7.63,4.526,2.559,2.996,0.296,-0.534
1560.0,6.989,5.374,2.376,3.085,0.305,-0.401
1564.0,6.989,5.374,2.376,3.085,0.305,-0.401
1567.0,6.989,5.374,2.376,3.085,0.305,-0.401
1571.0,6.684,5.979,2.276,3.012,0.301,-0.273
1575.0,6.684,5.979,2.276,3.012,0.301,-0.273
1579.0,6.209,6.769,1.962,3.012,0.276,-0.171
1582.0,6.209,6.769,1.962,2.804,0.276,-0.171
1586.0,6.209,6.769,1.962,2.804,0.276,-0.171
1590.0,5.9,7.298,1.647,2.456,0.241,-0.094
1594.0,5.9,7.298,1.647,2.456,0.241,-0.094
1597.0,5.9,7.298,1.647,2.456,0.241,-0.094
1601.0,5.771,7.474,1.531,1.977,0.203,-0.074
1605.0,5.771,7.474,1.531,1.977,0.203,-0.074
1608.0,5.631,7.539,1.502,1.405,0.158,-0.114
1612.0,5.631,7.539,1.502,1.405,0.158,-0.114
1616.0,5.631,7.539,1.502,1.405,0.158,-0.114
1620.0,5.431,7.419,1.589,0.812,0.123,-0.187
1623.0,5.431,7.419,1.589,0.812,0.123,-0.187
1627.0,5.431,7.419,1.731,0.812,0.123,-0.187
1631.0,5.241,7.071,1.731,0.268,0.109,-0.268
1635.0,5.241,7.071,1.731,0.268,0.109,-0.268
1638.0,5.165,6.532,1.88,-0.173,0.108,-0.348
1642.0,5.165,6.532,1.88,-0.173,0.108,-0.348
1646.0,5.165,6.532,1.88,-0.173,0.108,-0.348
1650.0,5.268,5.949,2.029,-0.492,0.107,-0.43
1654.0,5.268,5.949,2.029,-0.492,0.107,-0.43
1657.0,5.377,5.626,2.137,-0.492,0.101,-0.518
1661.0,5.377,5.626,2.137,-0.699,0.101,-0.518
1665.0,5.377,5.626,2.137,-0.699,0.101,-0.518
1669.0,5.413,5.614,2.071,-0.813,0.097,-0.591
1673.0,5.413,5.614,2.071,-0.813,0.097,-0.591
1677.0,5.413,5.614,1.946,-0.813,0.097,-0.591
1680.0,5.479,5.68,1.946,-0.861,0.099,-0.624
1684.0,5.479,5.68,1.946,-0.861,0.099,-0.624
1688.0,5.737,5.73,1.755,-0.858,0.1,-0.609
1692.0,5.737,5.73,1.755,-0.858,0.1,-0.609
1696.0,5.737,5.73,1.755,-0.858,0.1,-0.609
1699.0,6.041,5.646,1.633,-0.812,0.11,-0.554
1703.0,6.041,5.646,1.633,-0.812,0.11,-0.554
1707.0,6.237,5.443,1.645,-0.732,0.118,-0.478
1711.0,6.237,5.443,1.645,-0.732,0.118,-0.478
1715.0,6.237,5.443,1.645,-0.732,0.118,-0.478
1719.0,6.239,5.15,1.565,-0.625,0.119,-0.399
1722.0,6.239,5.15,1.565,-0.625,0.119,-0.399
1726.0,6.071,4.811,1.464,-0.625,0.119,-0.399
1730.0,6.071,4.811,1.464,-0.505,0.121,-0.335
1734.0,6.071,4.811,1.464,-0.505,0.121,-0.335
1738.0,5.708,4.586,1.442,-0.386,0.125,-0.308
1741.0,5.708,4.586,1.442,-0.386,0.125,-0.308
1745.0,5.708,4.586,1.442,-0.386,0.125,-0.308
1749.0,5.326,4.43,1.476,-0.28,0.114,-0.312
1753.0,5.326,4.43,1.476,-0.28,0.114,-0.312
1757.0,5.021,4.326,1.39,-0.198,0.086,-0.341
1761.0,5.021,4.326,1.39,-0.198,0.086,-0.341
1764.0,5.021,4.326,1.39,-0.198,0.086,-0.341
1768.0,4.817,4.434,1.132,-0.137,0.057,-0.382
1772.0,4.817,4.434,1.132,-0.137,0.057,-0.382
1776.0,4.845,4.589,0.754,-0.137,0.057,-0.404
1780.0,4.845,4.589,0.754,-0.097,0.042,-0.404
1783.0,4.845,4.589,0.754,-0.097,0.042,-0.404
1787.0,5.0,4.606,0.537,-0.081,0.052,-0.405
1791.0,5.0,4.606,0.537,-0.081,0.052,-0.405
1795.0,5.0,4.606,0.378,-0.081,0.052,-0.405
1799.0,5.057,4.539,0.378,-0.086,0.075,-0.403
1803.0,5.057,4.539,0.378,-0.086,0.075,-0.403
1806.0,4.879,4.336,0.233,-0.116,0.098,-0.414
1810.0,4.879,4.336,0.233,-0.116,0.098,-0.414
1814.0,4.879,4.336,0.233,-0.116,0.098,-0.414
1818.0,4.542,4.132,0.208,-0.17,0.117,-0.457
1822.0,4.542,4.132,0.208,-0.17,0.117,-0.457
1825.0,4.064,4.041,0.264,-0.238,0.126,-0.536
1829.0,4.064,4.041,0.264,-0.238,0.126,-0.536
1833.0,4.064,4.041,0.264,-0.238,0.126,-0.536
1837.0,3.536,3.818,0.375,-0.314,0.114,-0.625
1841.0,3.536,3.818,0.375,-0.314,0.114,-0.625
1845.0,3.036,3.645,0.456,-0.314,0.114,-0.625
1848.0,3.036,3.645,0.456,-0.399,0.081,-0.725
1852.0,3.036,3.645,0.456,-0.399,0.081,-0.725
1856.0,2.643,3.637,0.393,-0.49,0.041,-0.824
1860.0,2.643,3.637,0.393,-0.49,0.041,-0.824
1864.0,2.643,3.637,0.393,-0.49,0.041,-0.824
1868.0,2.572,3.921,-0.035,-0.577,0.027,-0.897
1871.0,2.572,3.921,-0.035,-0.577,0.027,-0.897
1875.0,2.791,4.094,-0.387,-0.639,0.065,-0.921
1879.0,2.791,4.094,-0.387,-0.639,0.065,-0.921
1883.0,2.791,4.094,-0.387,-0.639,0.065,-0.921
1887.0,3.245,4.058,-0.473,-0.677,0.124,-0.912
1891.0,3.245,4.058,-0.473,-0.677,0.124,-0.912
1895.0,3.75,3.901,-0.473,-0.701,0.185,-0.895
1899.0,3.75,3.901,-0.473,-0.701,0.185,-0.895
1903.0,3.75,3.901,-0.473,-0.701,0.185,-0.895
1907.0,3.977,3.683,-0.377,-0.727,0.244,-0.884
1910.0,3.977,3.683,-0.377,-0.727,0.244,-0.884
1914.0,3.785,3.473,-0.189,-0.761,0.292,-0.884
1918.0,3.785,3.473,-0.189,-0.761,0.292,-0.884
1922.0,3.785,3.473,-0.189,-0.761,0.292,-0.884
1926.0,3.258,3.338,0.036,-0.804,0.316,-0.895
1930.0,3.258,3.338,0.036,-0.804,0.316,-0.895
1934.0,2.667,3.224,0.206,-0.804,0.316,-0.92
1938.0,2.667,3.224,0.206,-0.857,0.314,-0.92
1941.0,2.667,3.224,0.206,-0.857,0.314,-0.92
1945.0,2.166,3.165,0.407,-0.921,0.291,-0.964
1949.0,2.166,3.165,0.407,-0.921,0.291,-0.964
1953.0,2.166,3.165,0.686,-0.921,0.291,-0.964
1957.0,1.818,3.109,0.686,-0.992,0.258,-1.027
1960.0,1.818,3.109,0.686,-0.992,0.258,-1.027
1964.0,1.613,3.098,0.956,-1.066,0.224,-1.1
1968.0,1.613,3.098,0.956,-1.066,0.224,-1.1
1972.0,1.613,3.098,0.956,-1.066,0.224,-1.1
1976.0,1.538,3.075,1.26,-1.136,0.192,-1.171
1980.0,1.538,3.075,1.26,-1.136,0.192,-1.171
1983.0,1.481,2.965,1.724,-1.209,0.158,-1.248
1987.0,1.481,2.965,1.724,-1.209,0.158,-1.248
1991.0,1.481,2.965,1.724,-1.209,0.158,-1.248
1995.0,1.357,3.0,2.21,-1.307,0.107,-1.343
1999.0,1.357,3.0,2.21,-1.307,0.107,-1.343
2002.0,1.18,3.146,2.81,-1.307,0.107,-1.343
2006.0,1.18,3.146,2.81,-1.446,0.044,-1.45
2010.0,1.18,3.146,2.81,-1.446,0.044,-1.45
2014.0,0.798,3.33,3.611,-1.622,-0.021,-1.571
2018.0,0.798,3.33,3.611,-1.622,-0.021,-1.571
2022.0,0.798,3.33,3.611,-1.622,-0.021,-1.571
2026.0,0.364,3.386,4.637,-1.822,-0.086,-1.695
2030.0,0.364,3.386,4.637,-1.822,-0.086,-1.695
2033.0,-0.324,3.188,5.783,-2.017,-0.164,-1.796
2037.0,-0.324,3.188,5.783,-2.017,-0.164,-1.796
2041.0,-0.324,3.188,5.783,-2.017,-0.164,-1.796
2045.0,-0.967,3.038,6.584,-2.159,-0.279,-1.885
2049.0,-0.967,3.038,6.584,-2.159,-0.279,-1.885
2053.0,-1.5,3.013,6.784,-2.222,-0.436,-1.939
2057.0,-1.5,3.013,6.784,-2.222,-0.436,-1.939
2061.0,-1.5,3.013,6.619,-2.222,-0.436,-1.939
2065.0,-1.241,2.873,6.619,-2.207,-0.614,-1.951
2069.0,-1.241,2.873,6.619,-2.207,-0.614,-1.951
2073.0,-0.223,2.843,6.3,-2.114,-0.766,-1.958
2077.0,-0.223,2.843,6.3,-2.114,-0.766,-1.958
2081.0,-0.223,3.017,5.922,-2.114,-0.766,-1.958
2085.0,1.135,3.017,5.922,-1.958,-0.855,-1.962
2089.0,1.135,3.017,5.922,-1.958,-0.855,-1.962
2093.0,2.457,3.342,5.389,-1.776,-0.861,-1.94
2097.0,2.457,3.342,5.389,-1.776,-0.861,-1.94
2101.0,2.457,3.342,4.764,-1.776,-0.861,-1.94
2105.0,3.425,3.836,4.764,-1.604,-0.778,-1.894
2109.0,3.425,3.836,4.764,-1.604,-0.778,-1.894
2113.0,4.028,4.603,4.489,-1.469,-0.619,-1.825
2117.0,4.028,4.603,4.489,-1.469,-0.619,-1.825
2121.0,4.028,4.603,4.489,-1.469,-0.619,-1.825
2124.0,4.657,5.185,4.367,-1.383,-0.417,-1.729
2128.0,4.657,5.185,4.367,-1.383,-0.417,-1.729
2132.0,6.194,5.883,3.839,-1.409,-0.176,-1.612
2136.0,6.194,5.883,3.839,-1.409,-0.176,-1.612
2140.0,6.194,5.883,3.839,-1.409,-0.176,-1.612
2144.0,7.729,7.011,3.728,-1.599,0.178,-1.543
2148.0,7.729,7.011,3.728,-1.599,0.178,-1.543
2152.0,8.749,8.264,3.652,-1.977,0.585,-1.494
2155.0,8.749,8.264,3.652,-1.977,0.585,-1.494
2159.0,8.749,8.264,3.652,-1.977,0.585,-1.494
2163.0,9.574,9.73,3.29,-2.584,1.01,-1.407
2167.0,9.574,9.73,3.29,-2.584,1.01,-1.407
2171.0,9.15,10.739,2.744,-2.584,1.474,-1.246
2175.0,9.15,10.739,2.744,-3.421,1.474,-1.246
2179.0,9.15,10.739,2.744,-3.421,1.474,-1.246
2182.0,6.976,10.546,2.209,-4.4,1.936,-0.958
2186.0,6.976,10.546,2.209,-4.4,1.936,-0.958
2190.0,4.554,9.19,2.125,-4.4,1.936,-0.958
2194.0,4.554,9.19,2.125,-4.979,2.353,-0.548
2198.0,4.554,9.19,2.125,-4.979,2.353,-0.548
2202.0,3.319,6.927,2.471,-5.013,2.734,-0.115
2206.0,3.319,6.927,2.471,-5.013,2.734,-0.115
2209.0,3.319,6.927,2.471,-5.013,2.734,-0.115
2213.0,3.114,4.332,3.36,-5.013,3.115,0.232
2217.0,3.114,4.332,3.36,-5.013,3.115,0.232
2221.0,3.127,1.824,4.517,-5.013,3.495,0.47
2224.0,3.127,1.824,4.517,-5.013,3.495,0.47
2228.0,3.127,1.824,4.517,-5.013,3.495,0.47
2232.0,2.891,-0.541,5.849,-5.013,3.863,0.664
2236.0,2.891,-0.541,5.849,-5.013,3.863,0.664
2239.0,2.142,-2.845,7.011,-5.013,3.863,0.664
2243.0,2.142,-2.845,7.011,-5.013,4.216,0.873
2247.0,2.142,-2.845,7.011,-5.013,4.216,0.873
2251.0,0.681,-4.13,8.285,-5.013,4.539,1.153
2255.0,0.681,-4.13,8.285,-5.013,4.539,1.153
2259.0,0.681,-4.13,8.285,-5.013,4.539,1.153
2262.0,-0.91,-4.789,9.778,-5.013,4.794,1.585
2266.0,-0.91,-4.789,9.778,-5.013,4.794,1.585
2270.0,-2.009,-5.565,10.524,-5.013,4.943,2.147
2274.0,-2.009,-5.565,10.524,-5.013,4.943,2.147
2278.0,-2.009,-5.565,10.524,-5.013,4.943,2.147
2282.0,-2.543,-5.964,10.124,-5.013,5.009,2.703
2286.0,-2.543,-5.964,10.124,-5.013,5.009,2.703
2290.0,-3.321,-6.208,9.415,-5.013,5.015,3.147
2294.0,-3.321,-6.208,9.415,-5.013,5.015,3.147
2298.0,-3.321,-6.208,9.415,-5.013,5.015,3.147
2302.0,-4.427,-6.339,8.891,-4.983,5.015,3.413
2306.0,-4.427,-6.339,8.891,-4.983,5.015,3.413
2310.0,-5.492,-5.764,8.168,-4.646,5.015,3.504
2314.0,-5.492,-5.764,8.168,-4.646,5.015,3.504
2318.0,-5.492,-5.764,8.168,-4.646,5.015,3.504
2321.0,-7.231,-5.831,8.749,-4.179,5.015,3.519
2325.0,-7.231,-5.831,8.749,-4.179,5.015,3.519
2329.0,-9.434,-5.322,9.194,-3.785,5.015,3.486
2333.0,-9.434,-5.322,9.194,-3.785,5.015,3.486
2337.0,-9.434,-5.322,9.194,-3.785,5.015,3.486
2341.0,-11.28,-3.785,8.17,-3.452,5.015,3.515
2345.0,-11.28,-3.785,8.17,-3.452,5.015,3.515
2349.0,-12.958,-3.127,7.385,-3.211,5.015,3.679
2353.0,-12.958,-3.127,7.385,-3.211,5.015,3.679
2357.0,-12.958,-3.127,7.385,-3.211,5.015,3.679
2361.0,-14.472,-3.214,6.908,-3.055,5.015,3.896
2365.0,-14.472,-3.214,6.908,-3.055,5.015,3.896
2369.0,-15.551,-3.244,5.943,-2.949,5.015,4.102
2373.0,-15.551,-3.244,5.943,-2.949,5.015,4.102
2377.0,-15.551,-3.244,5.943,-2.949,5.015,4.102
2381.0,-16.432,-3.705,4.947,-2.891,5.015,4.28
2385.0,-16.432,-3.705,4.947,-2.891,5.015,4.28
2389.0,-17.57,-4.421,4.61,-2.88,5.015,4.356
2393.0,-17.57,-4.421,4.61,-2.88,5.015,4.356
2397.0,-17.57,-4.421,4.61,-2.88,5.015,4.356
2401.0,-18.857,-4.557,4.229,-2.905,5.015,4.298
2405.0,-18.857,-4.557,4.229,-2.905,5.015,4.298
2409.0,-19.588,-4.126,3.722,-2.98,5.015,4.182
2413.0,-19.588,-4.126,3.722,-2.98,5.015,4.182
2417.0,-19.588,-4.126,3.407,-2.98,5.015,4.182
2421.0,-19.6,-3.61,3.407,-3.116,5.015,4.073
2425.0,-19.6,-3.61,3.407,-3.116,5.015,4.073
2429.0,-19.6,-3.097,3.322,-3.293,5.015,3.994
2433.0,-19.6,-3.097,3.322,-3.293,5.015,3.994
2437.0,-19.6,-2.806,3.595,-3.293,5.015,3.994
2441.0,-19.6,-2.806,3.595,-3.473,5.015,3.967
2445.0,-19.6,-2.806,3.595,-3.473,5.015,3.967
2449.0,-19.6,-2.889,4.075,-3.615,5.015,3.984
2453.0,-19.6,-2.889,4.075,-3.615,5.015,3.984
2457.0,-19.6,-3.279,4.366,-3.615,5.015,3.984
2461.0,-19.6,-3.279,4.366,-3.696,5.015,3.999
2465.0,-19.6,-3.279,4.366,-3.696,5.015,3.999
2469.0,-19.6,-3.601,4.555,-3.704,5.014,3.95
2473.0,-19.6,-3.601,4.555,-3.704,5.014,3.95
2477.0,-19.6,-3.788,4.344,-3.704,5.014,3.773
2481.0,-19.6,-3.788,4.344,-3.628,4.778,3.773
2485.0,-19.6,-3.788,4.344,-3.628,4.778,3.773
2489.0,-19.6,-4.009,3.544,-3.467,4.081,3.44
2493.0,-19.6,-4.009,3.544,-3.467,4.081,3.44
2497.0,-19.6,-4.175,1.749,-3.232,3.443,2.918
2501.0,-19.6,-4.175,1.749,-3.232,3.443,2.918
2505.0,-19.6,-4.175,1.749,-3.232,3.443,2.918
2509.0,-18.115,-3.3,0.781,-3.007,3.047,2.173
2513.0,-18.115,-3.3,0.781,-3.007,3.047,2.173
2517.0,-15.613,-2.414,0.766,-2.827,2.872,1.331
2521.0,-15.613,-2.414,0.766,-2.827,2.872,1.331
2525.0,-15.613,-2.414,0.766,-2.827,2.872,1.331
2529.0,-14.627,-1.449,1.709,-2.683,2.785,0.576
2533.0,-14.627,-1.449,1.709,-2.683,2.785,0.576
2537.0,-14.498,-0.93,2.637,-2.542,2.663,0.054
2541.0,-14.498,-0.93,2.637,-2.542,2.663,0.054
2545.0,-14.498,-0.93,2.637,-2.542,2.663,0.054
2549.0,-14.502,-0.979,2.998,-2.358,2.479,-0.258
2553.0,-14.502,-0.979,2.998,-2.358,2.479,-0.258
2557.0,-14.378,-1.336,2.891,-2.111,2.279,-0.478
2561.0,-14.378,-1.336,2.891,-2.111,2.279,-0.478
2565.0,-14.378,-1.336,2.687,-2.111,2.279,-0.478
2569.0,-14.071,-1.71,2.687,-1.819,2.105,-0.683
2573.0,-14.071,-1.71,2.687,-1.819,2.105,-0.683
2577.0,-13.69,-1.999,2.631,-1.518,1.975,-0.888
2581.0,-13.69,-1.999,2.631,-1.518,1.975,-0.888
2585.0,-13.342,-2.291,2.801,-1.518,1.975,-1.066
2589.0,-13.342,-2.291,2.801,-1.236,1.881,-1.066
2593.0,-13.342,-2.291,2.801,-1.236,1.881,-1.066
2598.0,-12.967,-2.652,3.031,-0.982,1.807,-1.184
2602.0,-12.967,-2.652,3.031,-0.982,1.807,-1.184
2606.0,-12.631,-3.05,3.287,-0.766,1.736,-1.237
2610.0,-12.631,-3.05,3.287,-0.766,1.736,-1.237
2614.0,-12.631,-3.05,3.287,-0.766,1.736,-1.237
2618.0,-12.387,-3.366,3.583,-0.591,1.65,-1.252
2622.0,-12.387,-3.366,3.583,-0.591,1.65,-1.252
2626.0,-12.165,-3.52,3.897,-0.444,1.542,-1.224
2630.0,-12.165,-3.52,3.897,-0.444,1.542,-1.224
2634.0,-11.856,-3.594,4.134,-0.444,1.542,-1.224
2638.0,-11.856,-3.594,4.134,-0.317,1.412,-1.164
2642.0,-11.856,-3.594,4.134,-0.317,1.412,-1.164
2646.0,-11.386,-3.568,4.197,-0.208,1.266,-1.096
2651.0,-11.386,-3.568,4.197,-0.208,1.266,-1.096
2655.0,-10.733,-3.334,4.265,-0.117,1.109,-1.036
2659.0,-10.733,-3.334,4.265,-0.117,1.109,-1.036
2663.0,-10.733,-3.334,4.265,-0.117,1.109,-1.036
2667.0,-10.043,-2.911,4.414,-0.048,0.948,-0.98
2671.0,-10.043,-2.911,4.414,-0.048,0.948,-0.98
2675.0,-9.406,-2.535,4.357,0.004,0.785,-0.915
2679.0,-9.406,-2.535,4.357,0.004,0.785,-0.915
2683.0,-9.406,-2.535,4.357,0.004,0.785,-0.915
2687.0,-8.937,-2.203,4.142,0.042,0.639,-0.837
2691.0,-8.937,-2.203,4.142,0.042,0.639,-0.837
2695.0,-8.597,-1.841,3.91,0.074,0.515,-0.748
2698.0,-8.597,-1.841,3.91,0.074,0.515,-0.748
2702.0,-8.597,-1.841,3.91,0.074,0.515,-0.748
2706.0,-8.36,-1.529,3.748,0.107,0.406,-0.645
2710.0,-8.36,-1.529,3.748,0.107,0.406,-0.645
2714.0,-8.228,-1.28,3.616,0.149,0.312,-0.537
2718.0,-8.228,-1.28,3.616,0.149,0.312,-0.537
2722.0,-8.228,-1.28,3.616,0.149,0.312,-0.537
2726.0,-8.2,-1.08,3.589,0.2,0.23,-0.421
2730.0,-8.2,-1.08,3.589,0.2,0.23,-0.421
2734.0,-8.279,-0.954,3.56,0.251,0.143,-0.295
2738.0,-8.279,-0.954,3.56,0.251,0.143,-0.295
2741.0,-8.279,-0.954,3.56,0.251,0.143,-0.295
2745.0,-8.465,-0.852,3.501,0.301,0.047,-0.166
2749.0,-8.465,-0.852,3.501,0.301,0.047,-0.166
2753.0,-8.681,-0.779,3.397,0.301,-0.065,-0.043
2757.0,-8.681,-0.779,3.397,0.343,-0.065,-0.043
2761.0,-8.681,-0.779,3.397,0.343,-0.065,-0.043
2765.0,-8.908,-0.726,3.264,0.372,-0.188,0.065
2769.0,-8.908,-0.726,3.264,0.372,-0.188,0.065
2773.0,-9.138,-0.619,3.093,0.372,-0.315,0.152
2777.0,-9.138,-0.619,3.093,0.384,-0.315,0.152
2781.0,-9.138,-0.619,3.093,0.384,-0.315,0.152
2785.0,-9.28,-0.529,2.871,0.368,-0.442,0.223
2789.0,-9.28,-0.529,2.871,0.368,-0.442,0.223
2792.0,-9.388,-0.48,2.643,0.368,-0.442,0.276
2796.0,-9.388,-0.48,2.643,0.322,-0.564,0.276
2800.0,-9.388,-0.48,2.643,0.322,-0.564,0.276
2804.0,-9.507,-0.443,2.434,0.249,-0.67,0.313
2808.0,-9.507,-0.443,2.434,0.249,-0.67,0.313
2812.0,-9.625,-0.409,2.236,0.249,-0.67,0.313
2816.0,-9.625,-0.409,2.236,0.156,-0.761,0.33
2820.0,-9.625,-0.409,2.236,0.156,-0.761,0.33
2824.0,-9.758,-0.355,2.084,0.046,-0.841,0.331
2828.0,-9.758,-0.355,2.084,0.046,-0.841,0.331
2832.0,-9.758,-0.316,1.936,0.046,-0.841,0.331
2835.0,-9.94,-0.316,1.936,-0.079,-0.912,0.322
2839.0,-9.94,-0.316,1.936,-0.079,-0.912,0.322
2843.0,-10.146,-0.309,1.75,-0.218,-0.976,0.298
2848.0,-10.146,-0.309,1.75,-0.218,-0.976,0.298
2852.0,-10.317,-0.304,1.57,-0.218,-0.976,0.298
2856.0,-10.317,-0.304,1.57,-0.369,-1.032,0.259
2860.0,-10.317,-0.304,1.57,-0.369,-1.032,0.259
2864.0,-10.414,-0.326,1.423,-0.525,-1.08,0.201
2868.0,-10.414,-0.326,1.423,-0.525,-1.08,0.201
2872.0,-10.442,-0.352,1.279,-0.685,-1.124,0.126
2876.0,-10.442,-0.352,1.279,-0.685,-1.124,0.126
2880.0,-10.442,-0.352,1.279,-0.685,-1.124,0.126
2884.0,-10.449,-0.385,1.132,-0.838,-1.162,0.034
2888.0,-10.449,-0.385,1.132,-0.838,-1.162,0.034
2892.0,-10.497,-0.46,1.071,-0.979,-1.19,-0.066
2897.0,-10.497,-0.46,1.071,-0.979,-1.19,-0.066
2901.0,-10.497,-0.562,1.038,-0.979,-1.19,-0.066
2905.0,-10.72,-0.562,1.038,-1.1,-1.214,-0.167
2909.0,-10.72,-0.562,1.038,-1.1,-1.214,-0.167
2913.0,-11.098,-0.674,0.891,-1.198,-1.241,-0.265
2917.0,-11.098,-0.674,0.891,-1.198,-1.241,-0.265
2922.0,-11.478,-0.77,0.726,-1.277,-1.267,-0.357
2926.0,-11.478,-0.77,0.726,-1.277,-1.267,-0.357
2930.0,-11.478,-0.77,0.726,-1.277,-1.267,-0.357
2934.0,-11.742,-0.867,0.56,-1.342,-1.294,-0.444
2938.0,-11.742,-0.867,0.56,-1.342,-1.294,-0.444
2942.0,-11.828,-0.994,0.413,-1.396,-1.324,-0.527
2947.0,-11.828,-0.994,0.413,-1.396,-1.324,-0.527
2951.0,-11.651,-1.129,0.294,-1.434,-1.355,-0.608
2955.0,-11.651,-1.129,0.294,-1.434,-1.355,-0.608
2959.0,-11.651,-1.129,0.294,-1.434,-1.355,-0.608
2963.0,-11.313,-1.29,0.167,-1.454,-1.372,-0.687
2967.0,-11.313,-1.29,0.167,-1.454,-1.372,-0.687
2972.0,-10.961,-1.452,0.013,-1.454,-1.364,-0.763
2976.0,-10.961,-1.452,0.013,-1.454,-1.364,-0.763
2980.0,-10.617,-1.619,-0.059,-1.454,-1.364,-0.763
2984.0,-10.617,-1.619,-0.059,-1.435,-1.33,-0.824
2988.0,-10.617,-1.619,-0.059,-1.435,-1.33,-0.824
2993.0,-10.478,-1.79,-0.054,-1.396,-1.284,-0.866
2997.0,-10.478,-1.79,-0.054,-1.396,-1.284,-0.866
