deltaTime,Acc_X,Acc_Y,Acc_Z,Gyro_X,Gyro_Y,Gyro_Z
0.0,-8.512,-4.311,3.897,0.122,-0.128,-0.121
3.0,-8.384,-4.417,3.604,0.244,-0.146,-0.089
6.0,-8.384,-4.417,3.604,0.244,-0.146,-0.089
9.0,-8.384,-4.417,3.604,0.244,-0.146,-0.089
12.0,-8.384,-4.784,3.392,0.244,-0.146,-0.089
15.0,-8.317,-4.784,3.392,0.369,-0.164,-0.045
18.0,-8.317,-4.784,3.392,0.369,-0.164,-0.045
21.0,-8.317,-4.784,3.392,0.369,-0.164,-0.045
24.0,-8.282,-5.269,3.188,0.534,-0.179,0.004
27.0,-8.282,-5.269,3.188,0.534,-0.179,0.004
30.0,-8.282,-5.269,3.188,0.534,-0.179,0.004
33.0,-8.255,-5.079,3.085,0.714,-0.146,0.019
36.0,-8.255,-5.079,3.085,0.714,-0.146,0.019
40.0,-8.255,-5.079,3.085,0.714,-0.146,0.019
44.0,-8.329,-4.603,2.919,0.83,-0.11,-0.021
48.0,-8.329,-4.603,2.919,0.83,-0.11,-0.021
52.0,-8.447,-4.009,2.816,0.83,-0.11,-0.021
55.0,-8.447,-4.009,2.816,0.859,-0.102,-0.079
59.0,-8.447,-4.009,2.816,0.859,-0.102,-0.079
63.0,-8.557,-3.74,2.873,0.811,-0.104,-0.117
67.0,-8.557,-3.74,2.873,0.811,-0.104,-0.117
71.0,-8.557,-3.74,2.873,0.811,-0.104,-0.117
75.0,-8.976,-3.745,3.011,0.746,-0.073,-0.105
78.0,-8.976,-3.745,3.011,0.746,-0.073,-0.105
82.0,-9.121,-3.708,3.151,0.69,-0.066,-0.061
86.0,-9.121,-3.708,3.151,0.69,-0.066,-0.061
90.0,-9.121,-3.708,3.151,0.69,-0.066,-0.061
94.0,-9.009,-3.651,3.208,0.62,-0.085,-0.024
97.0,-9.009,-3.651,3.208,0.62,-0.085,-0.024
101.0,-8.92,-3.392,3.305,0.62,-0.094,0.001
105.0,-8.92,-3.392,3.305,0.515,-0.094,0.001
109.0,-8.92,-3.392,3.305,0.515,-0.094,0.001
113.0,-8.671,-2.917,3.514,0.339,-0.088,0.017
117.0,-8.671,-2.917,3.514,0.339,-0.088,0.017
120.0,-8.671,-2.576,3.788,0.339,-0.088,0.017
124.0,-8.804,-2.576,3.788,0.058,-0.063,0.031
128.0,-8.804,-2.576,3.788,0.058,-0.063,0.031
132.0,-8.636,-2.561,4.006,-0.285,-0.081,0.019
136.0,-8.636,-2.561,4.006,-0.285,-0.081,0.019
140.0,-8.636,-2.561,4.006,-0.285,-0.081,0.019
144.0,-8.501,-2.843,4.159,-0.603,-0.109,-0.007
148.0,-8.501,-2.843,4.159,-0.603,-0.109,-0.007
151.0,-8.293,-3.517,4.188,-0.822,-0.13,-0.018
155.0,-8.293,-3.517,4.188,-0.822,-0.13,-0.018
159.0,-8.293,-3.517,4.188,-0.822,-0.13,-0.018
163.0,-8.048,-4.082,4.196,-0.878,-0.141,-0.017
167.0,-8.048,-4.082,4.196,-0.878,-0.141,-0.017
171.0,-8.026,-4.358,4.208,-0.794,-0.14,-0.018
175.0,-8.026,-4.358,4.208,-0.794,-0.14,-0.018
179.0,-8.026,-4.358,4.284,-0.794,-0.14,-0.018
183.0,-7.999,-4.387,4.284,-0.624,-0.137,-0.015
187.0,-7.999,-4.387,4.284,-0.624,-0.137,-0.015
191.0,-7.946,-4.144,4.338,-0.43,-0.132,-0.007
195.0,-7.946,-4.144,4.338,-0.43,-0.132,-0.007
199.0,-7.946,-3.841,4.43,-0.43,-0.132,-0.007
203.0,-8.066,-3.841,4.43,-0.278,-0.127,0.009
207.0,-8.066,-3.841,4.43,-0.278,-0.127,0.009
211.0,-8.24,-3.633,4.62,-0.194,-0.132,0.024
215.0,-8.24,-3.633,4.62,-0.194,-0.132,0.024
219.0,-8.24,-3.633,4.984,-0.194,-0.132,0.024
223.0,-8.685,-3.755,4.984,-0.157,-0.142,0.039
227.0,-8.685,-3.755,4.984,-0.157,-0.142,0.039
231.0,-8.751,-3.881,5.388,-0.122,-0.161,0.057
235.0,-8.751,-3.881,5.388,-0.122,-0.161,0.057
239.0,-8.751,-3.881,5.388,-0.122,-0.161,0.057
242.0,-8.766,-3.561,5.621,-0.091,-0.178,0.086
246.0,-8.766,-3.561,5.621,-0.091,-0.178,0.086
250.0,-8.719,-3.52,5.938,-0.123,-0.203,0.112
254.0,-8.719,-3.52,5.938,-0.123,-0.203,0.112
258.0,-8.719,-3.52,5.938,-0.123,-0.203,0.112
262.0,-8.749,-3.706,6.194,-0.168,-0.212,0.159
266.0,-8.749,-3.706,6.194,-0.168,-0.212,0.159
270.0,-9.376,-4.053,6.732,-0.206,-0.199,0.22
274.0,-9.376,-4.053,6.732,-0.206,-0.199,0.22
278.0,-9.376,-4.053,6.732,-0.206,-0.199,0.22
282.0,-9.709,-4.122,6.91,-0.093,-0.33,0.256
285.0,-9.709,-4.122,6.91,-0.093,-0.33,0.256
289.0,-9.884,-4.075,7.039,0.021,-0.466,0.27
293.0,-9.884,-4.075,7.039,0.021,-0.466,0.27
297.0,-9.884,-4.075,7.039,0.021,-0.466,0.27
301.0,-10.052,-3.964,6.843,0.144,-0.601,0.263
305.0,-10.052,-3.964,6.843,0.144,-0.601,0.263
309.0,-10.416,-3.78,6.534,0.144,-0.767,0.243
313.0,-10.416,-3.78,6.534,0.273,-0.767,0.243
316.0,-10.416,-3.78,6.534,0.273,-0.767,0.243
320.0,-10.29,-3.569,6.396,0.402,-0.947,0.21
324.0,-10.29,-3.569,6.396,0.402,-0.947,0.21
328.0,-10.191,-3.374,6.44,0.402,-0.947,0.182
332.0,-10.191,-3.374,6.44,0.536,-1.085,0.182
336.0,-10.191,-3.374,6.44,0.536,-1.085,0.182
340.0,-10.321,-3.188,6.61,0.665,-1.197,0.182
344.0,-10.321,-3.188,6.61,0.665,-1.197,0.182
348.0,-10.586,-3.091,6.949,0.665,-1.197,0.182
352.0,-10.586,-3.091,6.949,0.773,-1.308,0.213
355.0,-10.586,-3.091,6.949,0.773,-1.308,0.213
359.0,-10.769,-2.999,7.382,0.853,-1.427,0.258
363.0,-10.769,-2.999,7.382,0.853,-1.427,0.258
367.0,-10.769,-2.894,7.906,0.853,-1.427,0.258
371.0,-10.827,-2.894,7.906,0.908,-1.555,0.303
375.0,-10.827,-2.894,7.906,0.908,-1.555,0.303
379.0,-10.801,-2.825,8.483,0.945,-1.684,0.336
383.0,-10.801,-2.825,8.483,0.945,-1.684,0.336
387.0,-10.801,-2.825,9.067,0.945,-1.684,0.336
391.0,-10.839,-2.755,9.067,0.977,-1.811,0.354
395.0,-10.839,-2.755,9.067,0.977,-1.811,0.354
398.0,-11.007,-2.661,9.619,1.016,-1.945,0.368
402.0,-11.007,-2.661,9.619,1.016,-1.945,0.368
406.0,-11.007,-2.661,9.619,1.016,-1.945,0.368
410.0,-11.191,-2.471,10.153,1.071,-2.09,0.383
414.0,-11.191,-2.471,10.153,1.071,-2.09,0.383
418.0,-11.346,-2.255,10.701,1.15,-2.243,0.405
422.0,-11.346,-2.255,10.701,1.15,-2.243,0.405
426.0,-11.346,-2.255,11.035,1.15,-2.243,0.405
430.0,-11.493,-2.275,11.035,1.256,-2.409,0.443
434.0,-11.493,-2.275,11.035,1.256,-2.409,0.443
438.0,-11.435,-2.504,11.239,1.373,-2.581,0.492
442.0,-11.435,-2.504,11.239,1.373,-2.581,0.492
446.0,-11.435,-2.888,11.504,1.373,-2.581,0.492
450.0,-11.209,-2.888,11.504,1.487,-2.744,0.525
454.0,-11.209,-2.888,11.504,1.487,-2.744,0.525
458.0,-10.894,-3.202,11.644,1.598,-2.887,0.536
462.0,-10.894,-3.202,11.644,1.598,-2.887,0.536
466.0,-10.595,-3.511,11.92,1.598,-2.887,0.536
470.0,-10.595,-3.511,11.92,1.709,-3.006,0.544
474.0,-10.595,-3.511,11.92,1.709,-3.006,0.544
478.0,-10.333,-3.876,12.278,1.83,-3.128,0.553
482.0,-10.333,-3.876,12.278,1.83,-3.128,0.553
486.0,-10.072,-4.107,12.635,1.83,-3.128,0.559
490.0,-10.072,-4.107,12.635,1.958,-3.266,0.559
494.0,-10.072,-4.107,12.635,1.958,-3.266,0.559
498.0,-9.867,-4.192,13.044,2.088,-3.411,0.566
502.0,-9.867,-4.192,13.044,2.088,-3.411,0.566
506.0,-9.72,-4.1,13.328,2.088,-3.411,0.58
510.0,-9.72,-4.1,13.328,2.213,-3.558,0.58
514.0,-9.72,-4.1,13.328,2.213,-3.558,0.58
518.0,-9.604,-3.927,13.56,2.323,-3.71,0.595
521.0,-9.604,-3.927,13.56,2.323,-3.71,0.595
525.0,-9.578,-3.767,13.801,2.323,-3.71,0.595
529.0,-9.578,-3.767,13.801,2.408,-3.877,0.606
533.0,-9.578,-3.767,13.801,2.408,-3.877,0.606
537.0,-9.548,-3.526,14.029,2.449,-4.056,0.607
541.0,-9.548,-3.526,14.029,2.449,-4.056,0.607
545.0,-9.548,-3.503,14.217,2.449,-4.056,0.607
549.0,-9.504,-3.503,14.217,2.444,-4.246,0.609
553.0,-9.504,-3.503,14.217,2.444,-4.246,0.609
557.0,-9.316,-3.584,14.182,2.403,-4.443,0.604
561.0,-9.316,-3.584,14.182,2.403,-4.443,0.604
564.0,-9.316,-3.584,14.021,2.403,-4.443,0.604
568.0,-8.852,-3.644,14.021,2.334,-4.626,0.584
572.0,-8.852,-3.644,14.021,2.334,-4.626,0.584
576.0,-8.476,-3.559,14.09,2.246,-4.781,0.533
580.0,-8.476,-3.559,14.09,2.246,-4.781,0.533
584.0,-8.476,-3.559,14.09,2.246,-4.781,0.533
588.0,-8.241,-3.496,14.259,2.156,-4.924,0.46
592.0,-8.241,-3.496,14.259,2.156,-4.924,0.46
596.0,-8.125,-3.698,14.487,2.067,-4.99,0.371
600.0,-8.125,-3.698,14.487,2.067,-4.99,0.371
603.0,-8.125,-3.698,14.487,2.067,-4.99,0.371
607.0,-8.007,-3.998,14.456,1.986,-4.992,0.277
611.0,-8.007,-3.998,14.456,1.986,-4.992,0.277
615.0,-7.596,-4.417,14.103,1.921,-4.992,0.185
619.0,-7.596,-4.417,14.103,1.921,-4.992,0.185
623.0,-7.596,-4.417,14.103,1.921,-4.992,0.185
627.0,-6.983,-4.749,13.565,1.888,-4.992,0.088
631.0,-6.983,-4.749,13.565,1.888,-4.992,0.088
635.0,-6.354,-5.077,13.059,1.909,-4.992,-0.028
639.0,-6.354,-5.077,13.059,1.909,-4.992,-0.028
643.0,-6.354,-5.077,13.059,1.909,-4.992,-0.028
647.0,-5.829,-5.163,12.438,2.007,-4.992,-0.171
651.0,-5.829,-5.163,12.438,2.007,-4.992,-0.171
655.0,-5.236,-5.286,11.758,2.17,-4.992,-0.316
659.0,-5.236,-5.286,11.758,2.17,-4.992,-0.316
663.0,-5.236,-5.286,11.758,2.17,-4.992,-0.316
667.0,-4.768,-5.746,11.122,2.334,-4.992,-0.443
671.0,-4.768,-5.746,11.122,2.334,-4.992,-0.443
675.0,-4.269,-6.089,10.299,2.516,-4.992,-0.565
679.0,-4.269,-6.089,10.299,2.516,-4.992,-0.565
683.0,-4.269,-6.089,10.299,2.516,-4.992,-0.565
687.0,-3.766,-6.199,9.255,2.688,-4.992,-0.674
691.0,-3.766,-6.199,9.255,2.688,-4.992,-0.674
694.0,-3.119,-6.076,8.285,2.851,-4.992,-0.788
698.0,-3.119,-6.076,8.285,2.851,-4.992,-0.788
702.0,-3.119,-6.076,8.285,2.851,-4.992,-0.788
706.0,-2.532,-5.922,7.525,3.004,-4.992,-0.914
710.0,-2.532,-5.922,7.525,3.004,-4.992,-0.914
714.0,-2.237,-5.681,6.753,3.122,-4.992,-1.059
718.0,-2.237,-5.681,6.753,3.122,-4.992,-1.059
722.0,-2.237,-5.681,6.753,3.122,-4.992,-1.059
726.0,-1.857,-5.351,5.831,3.21,-4.992,-1.223
730.0,-1.857,-5.351,5.831,3.21,-4.992,-1.223
734.0,-1.539,-5.291,5.17,3.28,-4.992,-1.403
737.0,-1.539,-5.291,5.17,3.28,-4.992,-1.403
741.0,-1.539,-5.291,5.17,3.28,-4.992,-1.403
745.0,-1.174,-4.993,4.507,3.378,-4.992,-1.587
749.0,-1.174,-4.993,4.507,3.378,-4.992,-1.587
753.0,-0.802,-4.6,3.877,3.474,-4.985,-1.749
757.0,-0.802,-4.6,3.877,3.474,-4.985,-1.749
761.0,-0.802,-4.6,3.877,3.474,-4.985,-1.749
765.0,-0.561,-4.175,3.159,3.55,-4.894,-1.886
769.0,-0.561,-4.175,3.159,3.55,-4.894,-1.886
773.0,-0.167,-3.67,2.473,3.624,-4.746,-1.999
776.0,-0.167,-3.67,2.473,3.624,-4.746,-1.999
780.0,-0.167,-3.67,2.473,3.624,-4.746,-1.999
784.0,0.318,-3.108,1.915,3.685,-4.579,-2.114
788.0,0.318,-3.108,1.915,3.685,-4.579,-2.114
792.0,0.774,-2.416,1.388,3.685,-4.579,-2.241
796.0,0.774,-2.416,1.388,3.739,-4.4,-2.241
800.0,0.774,-2.416,1.388,3.739,-4.4,-2.241
803.0,1.146,-1.686,0.747,3.789,-4.23,-2.35
807.0,1.146,-1.686,0.747,3.789,-4.23,-2.35
811.0,1.146,-1.686,0.747,3.789,-4.23,-2.35
815.0,1.519,-0.945,0.136,3.835,-4.073,-2.412
819.0,1.519,-0.945,0.136,3.835,-4.073,-2.412
822.0,1.875,-0.16,-0.523,3.894,-3.913,-2.433
826.0,1.875,-0.16,-0.523,3.894,-3.913,-2.433
830.0,1.875,-0.16,-0.523,3.894,-3.913,-2.433
834.0,2.265,0.665,-1.208,3.973,-3.745,-2.432
838.0,2.265,0.665,-1.208,3.973,-3.745,-2.432
842.0,2.861,1.845,-1.939,4.058,-3.563,-2.419
846.0,2.861,1.845,-1.939,4.058,-3.563,-2.419
849.0,2.861,1.845,-1.939,4.058,-3.563,-2.419
853.0,3.575,3.14,-2.737,4.136,-3.365,-2.385
857.0,3.575,3.14,-2.737,4.136,-3.365,-2.385
861.0,4.54,4.665,-3.706,4.136,-3.365,-2.385
865.0,4.54,4.665,-3.706,4.188,-3.15,-2.33
869.0,4.54,4.665,-3.706,4.188,-3.15,-2.33
872.0,5.587,7.056,-5.128,4.212,-2.893,-2.255
876.0,5.587,7.056,-5.128,4.212,-2.893,-2.255
880.0,5.587,7.056,-5.128,4.212,-2.893,-2.255
884.0,6.93,9.658,-6.82,4.221,-2.567,-2.094
888.0,6.93,9.658,-6.82,4.221,-2.567,-2.094
892.0,8.47,12.035,-8.203,4.212,-2.131,-1.861
895.0,8.47,12.035,-8.203,4.212,-2.131,-1.861
899.0,8.47,12.035,-8.203,4.212,-2.131,-1.861
903.0,9.781,14.306,-9.986,4.233,-1.652,-1.574
907.0,9.781,14.306,-9.986,4.233,-1.652,-1.574
911.0,11.235,16.066,-11.347,4.279,-1.176,-1.189
915.0,11.235,16.066,-11.347,4.279,-1.176,-1.189
919.0,11.235,16.066,-11.347,4.279,-1.176,-1.189
923.0,12.429,17.386,-12.577,4.303,-0.601,-0.732
927.0,12.429,17.386,-12.577,4.303,-0.601,-0.732
931.0,13.212,18.348,-13.291,4.293,0.051,-0.198
935.0,13.212,18.348,-13.291,4.293,0.051,-0.198
939.0,13.212,18.348,-13.257,4.293,0.051,-0.198
943.0,13.646,18.809,-13.257,4.235,0.751,0.407
947.0,13.646,18.809,-13.257,4.235,0.751,0.407
951.0,14.083,19.408,-13.761,4.142,1.455,1.023
955.0,14.083,19.408,-13.761,4.142,1.455,1.023
959.0,14.083,19.408,-13.761,4.142,1.455,1.023
963.0,14.066,19.519,-13.7,3.987,2.198,1.648
967.0,14.066,19.519,-13.7,3.987,2.198,1.648
971.0,14.008,19.592,-14.051,3.785,2.94,2.286
975.0,14.008,19.592,-14.051,3.785,2.94,2.286
979.0,14.008,19.592,-14.051,3.785,2.94,2.286
982.0,13.395,19.596,-13.682,3.459,3.706,2.934
986.0,13.395,19.596,-13.682,3.459,3.706,2.934
990.0,11.96,19.131,-12.553,2.937,4.431,3.56
994.0,11.96,19.131,-12.553,2.937,4.431,3.56
998.0,11.96,19.131,-12.553,2.937,4.431,3.56
1002.0,9.343,17.296,-10.659,2.253,4.938,4.112
1006.0,9.343,17.296,-10.659,2.253,4.938,4.112
1010.0,5.852,14.981,-8.605,1.506,5.015,4.577
1014.0,5.852,14.981,-8.605,1.506,5.015,4.577
1017.0,5.852,14.981,-8.605,1.506,5.015,4.577
1021.0,1.991,12.532,-6.657,0.77,5.015,4.931
1025.0,1.991,12.532,-6.657,0.77,5.015,4.931
1029.0,-2.007,10.034,-4.947,0.77,5.015,5.013
1033.0,-2.007,10.034,-4.947,0.03,5.015,5.013
1037.0,-2.007,10.034,-4.947,0.03,5.015,5.013
1041.0,-6.86,7.5,-2.6,-0.764,5.015,5.013
1045.0,-6.86,7.5,-2.6,-0.764,5.015,5.013
1048.0,-13.533,4.124,0.33,-0.764,5.015,5.013
1052.0,-13.533,4.124,0.33,-1.675,5.015,5.013
1056.0,-13.533,4.124,0.33,-1.675,5.015,5.013
1060.0,-19.463,-0.243,2.724,-2.7,4.998,4.91
1064.0,-19.463,-0.243,2.724,-2.7,4.998,4.91
1068.0,-19.6,-3.964,4.242,-2.7,4.998,4.91
1072.0,-19.6,-3.964,4.242,-3.643,4.476,4.23
1076.0,-19.6,-3.964,4.242,-3.643,4.476,4.23
1080.0,-19.6,-6.111,6.91,-4.328,3.142,3.289
1084.0,-19.6,-6.111,6.91,-4.328,3.142,3.289
1088.0,-19.059,-8.498,6.703,-4.328,3.142,2.203
1092.0,-19.059,-8.498,6.703,-4.675,1.538,2.203
1096.0,-19.059,-8.498,6.703,-4.675,1.538,2.203
1100.0,-15.504,-11.136,5.64,-4.57,0.088,0.895
1104.0,-15.504,-11.136,5.64,-4.57,0.088,0.895
1108.0,-11.917,-12.758,5.538,-4.052,-1.056,-0.474
1113.0,-11.917,-12.758,5.538,-4.052,-1.056,-0.474
1117.0,-11.917,-12.758,5.538,-4.052,-1.056,-0.474
1121.0,-8.731,-12.589,5.047,-3.271,-1.852,-1.7
1125.0,-8.731,-12.589,5.047,-3.271,-1.852,-1.7
1129.0,-6.408,-11.001,4.373,-2.365,-2.335,-2.648
1134.0,-6.408,-11.001,4.373,-2.365,-2.335,-2.648
1138.0,-5.17,-9.203,4.22,-2.365,-2.616,-3.276
1142.0,-5.17,-9.203,4.22,-1.432,-2.616,-3.276
1146.0,-5.17,-9.203,4.22,-1.432,-2.616,-3.276
1150.0,-4.504,-7.309,3.859,-0.563,-2.832,-3.659
1154.0,-4.504,-7.309,3.859,-0.563,-2.832,-3.659
1158.0,-4.121,-5.38,3.078,0.174,-3.03,-3.898
1162.0,-4.121,-5.38,3.078,0.174,-3.03,-3.898
1166.0,-4.121,-5.38,3.078,0.174,-3.03,-3.898
1170.0,-3.784,-3.517,2.057,0.725,-3.214,-4.061
1174.0,-3.784,-3.517,2.057,0.725,-3.214,-4.061
1178.0,-3.273,-1.756,0.908,1.065,-3.374,-4.193
1182.0,-3.273,-1.756,0.908,1.065,-3.374,-4.193
1186.0,-3.273,-1.756,0.908,1.065,-3.374,-4.193
1190.0,-2.349,-0.075,0.013,1.227,-3.483,-4.299
1194.0,-2.349,-0.075,0.013,1.227,-3.483,-4.299
1198.0,-0.922,1.514,-0.765,1.298,-3.516,-4.384
1202.0,-0.922,1.514,-0.765,1.298,-3.516,-4.384
1206.0,-0.922,1.514,-1.576,1.298,-3.516,-4.384
1210.0,1.005,3.397,-1.576,1.372,-3.465,-4.473
1214.0,1.005,3.397,-1.576,1.372,-3.465,-4.473
1218.0,3.191,5.28,-2.302,1.499,-3.36,-4.549
1222.0,3.191,5.28,-2.302,1.499,-3.36,-4.549
1226.0,3.191,5.28,-2.674,1.499,-3.36,-4.549
1230.0,5.502,6.619,-2.674,1.628,-3.236,-4.586
1233.0,5.502,6.619,-2.674,1.628,-3.236,-4.586
1237.0,7.223,8.012,-2.952,1.685,-3.106,-4.612
1241.0,7.223,8.012,-2.952,1.685,-3.106,-4.612
1245.0,7.223,8.012,-2.952,1.685,-3.106,-4.612
1249.0,8.16,9.395,-3.313,1.675,-2.981,-4.577
1253.0,8.16,9.395,-3.313,1.675,-2.981,-4.577
1257.0,8.567,10.576,-4.174,1.642,-2.883,-4.487
1261.0,8.567,10.576,-4.174,1.642,-2.883,-4.487
1265.0,8.567,10.576,-4.174,1.642,-2.883,-4.487
1269.0,8.919,12.173,-5.841,1.625,-2.763,-4.365
1273.0,8.919,12.173,-5.841,1.625,-2.763,-4.365
1277.0,9.244,13.43,-6.948,1.633,-2.611,-4.183
1281.0,9.244,13.43,-6.948,1.633,-2.611,-4.183
1285.0,9.244,13.43,-6.948,1.633,-2.611,-4.183
1289.0,10.019,15.252,-8.118,1.629,-2.458,-3.967
1293.0,10.019,15.252,-8.118,1.629,-2.458,-3.967
1297.0,11.253,18.156,-9.838,1.574,-2.292,-3.734
1301.0,11.253,18.156,-9.838,1.574,-2.292,-3.734
1305.0,12.462,19.589,-12.025,1.574,-2.292,-3.734
1309.0,12.462,19.589,-12.025,1.396,-2.061,-3.42
1313.0,12.462,19.589,-12.025,1.396,-2.061,-3.42
1318.0,14.006,19.596,-14.769,1.055,-1.719,-2.972
1322.0,14.006,19.596,-14.769,1.055,-1.719,-2.972
1326.0,15.832,19.596,-17.666,0.59,-1.214,-2.406
1330.0,15.832,19.596,-17.666,0.59,-1.214,-2.406
1334.0,15.832,19.596,-18.814,0.59,-1.214,-2.406
1338.0,16.471,19.596,-18.814,0.124,-0.543,-1.763
1343.0,16.471,19.596,-18.814,0.124,-0.543,-1.763
1347.0,15.833,19.596,-18.398,-0.159,0.174,-1.082
1351.0,15.833,19.596,-18.398,-0.159,0.174,-1.082
1355.0,14.733,19.596,-16.906,-0.136,0.863,-0.353
1359.0,14.733,19.596,-16.906,-0.136,0.863,-0.353
1363.0,14.733,19.596,-16.906,-0.136,0.863,-0.353
1368.0,13.439,19.596,-14.24,0.158,1.487,0.455
1372.0,13.439,19.596,-14.24,0.158,1.487,0.455
1376.0,12.619,19.596,-12.919,0.582,1.994,1.316
1380.0,12.619,19.596,-12.919,0.582,1.994,1.316
1384.0,12.619,19.596,-13.896,0.582,1.994,1.316
1388.0,12.905,19.596,-13.896,0.986,2.479,2.21
1392.0,12.905,19.596,-13.896,0.986,2.479,2.21
1396.0,13.677,19.596,-14.588,1.228,3.055,3.06
1400.0,13.677,19.596,-14.588,1.228,3.055,3.06
1404.0,13.677,19.596,-14.778,1.228,3.055,3.06
1408.0,14.167,19.596,-14.778,1.244,3.671,3.763
1412.0,14.167,19.596,-14.778,1.244,3.671,3.763
1416.0,13.975,19.596,-13.822,1.047,4.276,4.345
1420.0,13.975,19.596,-13.822,1.047,4.276,4.345
1424.0,13.204,19.596,-12.997,1.047,4.276,4.345
1428.0,13.204,19.596,-12.997,0.715,4.812,4.81
1432.0,13.204,19.596,-12.997,0.715,4.812,4.81
1436.0,11.905,19.415,-12.171,0.3,5.013,5.007
1440.0,11.905,19.415,-12.171,0.3,5.013,5.007
1443.0,10.002,17.477,-10.481,0.3,5.013,5.013
1447.0,10.002,17.477,-10.481,-0.13,5.015,5.013
1452.0,10.002,17.477,-10.481,-0.13,5.015,5.013
1456.0,7.081,14.651,-8.094,-0.534,5.015,5.013
1460.0,7.081,14.651,-8.094,-0.534,5.015,5.013
1463.0,2.962,11.448,-5.508,-0.534,5.015,5.013
1467.0,2.962,11.448,-5.508,-0.922,5.015,5.013
1471.0,2.962,11.448,-5.508,-0.922,5.015,5.013
1475.0,-1.798,8.857,-3.626,-1.313,5.015,5.013
1479.0,-1.798,8.857,-3.626,-1.313,5.015,5.013
1483.0,-6.726,7.266,-2.666,-1.313,5.015,5.013
1487.0,-6.726,7.266,-2.666,-1.745,5.015,5.013
1491.0,-6.726,7.266,-2.666,-1.745,5.015,5.013
1495.0,-12.778,6.986,-2.451,-2.264,5.015,5.013
1499.0,-12.778,6.986,-2.451,-2.264,5.015,5.013
1503.0,-19.13,7.469,-2.795,-2.264,5.015,5.013
1507.0,-19.13,7.469,-2.795,-2.84,5.015,5.013
1511.0,-19.13,7.469,-2.795,-2.84,5.015,5.013
1515.0,-19.6,4.026,-0.915,-3.297,5.015,5.013
1519.0,-19.6,4.026,-0.915,-3.297,5.015,5.013
1523.0,-19.6,-2.015,5.953,-3.297,4.957,5.013
1527.0,-19.6,-2.015,5.953,-3.297,4.957,5.013
1531.0,-19.6,-2.015,5.953,-3.297,4.957,5.013
1535.0,-19.6,-8.861,9.983,-2.717,3.35,5.013
1539.0,-19.6,-8.861,9.983,-2.717,3.35,5.013
1543.0,-14.565,-15.866,-2.194,-2.278,0.683,4.924
1547.0,-14.565,-15.866,-2.194,-2.278,0.683,4.924
1551.0,-14.565,-15.866,-2.194,-2.278,0.683,4.924
1555.0,2.228,-11.4,-7.138,-2.324,-0.328,2.987
1559.0,2.228,-11.4,-7.138,-2.324,-0.328,2.987
1563.0,7.621,-2.389,-0.175,-2.643,-0.452,0.023
1567.0,7.621,-2.389,-0.175,-2.643,-0.452,0.023
1571.0,7.621,-2.389,4.744,-2.643,-0.452,0.023
1575.0,10.688,-0.706,4.744,-3.113,-0.969,-1.205
1579.0,10.688,-0.706,4.744,-3.113,-0.969,-1.205
1583.0,13.795,-5.501,3.389,-3.34,-1.778,-1.815
1587.0,13.795,-5.501,3.389,-3.34,-1.778,-1.815
1592.0,12.18,-7.249,1.335,-3.34,-1.778,-2.668
1596.0,12.18,-7.249,1.335,-3.215,-2.047,-2.668
1600.0,12.18,-7.249,1.335,-3.215,-2.047,-2.668
1604.0,7.72,-6.511,0.623,-2.887,-1.772,-3.287
1608.0,7.72,-6.511,0.623,-2.887,-1.772,-3.287
1612.0,5.413,-5.296,0.51,-2.497,-1.388,-3.439
1616.0,5.413,-5.296,0.51,-2.497,-1.388,-3.439
1620.0,5.413,-5.296,0.51,-2.497,-1.388,-3.439
1624.0,6.872,-3.875,0.654,-2.028,-0.976,-3.277
1628.0,6.872,-3.875,0.654,-2.028,-0.976,-3.277
1632.0,9.631,-2.573,2.347,-1.424,-0.439,-2.88
1636.0,9.631,-2.573,2.347,-1.424,-0.439,-2.88
1640.0,9.631,-2.573,2.347,-1.424,-0.439,-2.88
1644.0,11.096,-1.815,3.706,-0.727,-0.001,-2.249
1648.0,11.096,-1.815,3.706,-0.727,-0.001,-2.249
1652.0,11.066,-1.163,4.171,0.007,0.294,-1.531
1656.0,11.066,-1.163,4.171,0.007,0.294,-1.531
1660.0,11.066,-1.163,4.171,0.007,0.294,-1.531
1664.0,10.616,-0.347,4.026,0.738,0.493,-0.9
1667.0,10.616,-0.347,4.026,0.738,0.493,-0.9
1671.0,10.542,0.455,3.563,1.403,0.594,-0.393
1675.0,10.542,0.455,3.563,1.403,0.594,-0.393
1679.0,10.542,0.455,3.563,1.403,0.594,-0.393
1683.0,10.914,1.089,3.071,1.936,0.651,-0.026
1687.0,10.914,1.089,3.071,1.936,0.651,-0.026
1690.0,11.393,1.924,2.616,1.936,0.713,0.182
1694.0,11.393,1.924,2.616,2.307,0.713,0.182
1698.0,11.393,1.924,2.616,2.307,0.713,0.182
1702.0,11.383,2.852,2.288,2.511,0.773,0.281
1705.0,11.383,2.852,2.288,2.511,0.773,0.281
1709.0,11.383,2.852,2.288,2.511,0.773,0.281
1713.0,10.768,3.523,2.177,2.55,0.79,0.311
1717.0,10.768,3.523,2.177,2.55,0.79,0.311
1720.0,9.919,3.858,2.33,2.445,0.758,0.285
1724.0,9.919,3.858,2.33,2.445,0.758,0.285
1728.0,9.919,3.858,2.33,2.445,0.758,0.285
1731.0,9.189,4.005,2.697,2.219,0.704,0.217
1735.0,9.189,4.005,2.697,2.219,0.704,0.217
1739.0,9.189,4.005,2.697,2.219,0.704,0.217
1742.0,8.557,4.011,3.178,1.905,0.655,0.122
1746.0,8.557,4.011,3.178,1.905,0.655,0.122
1749.0,7.871,4.026,3.674,1.905,0.655,0.017
1753.0,7.871,4.026,3.674,1.547,0.611,0.017
1757.0,7.871,4.026,3.674,1.547,0.611,0.017
1760.0,7.364,4.037,4.01,1.185,0.553,-0.07
1764.0,7.364,4.037,4.01,1.185,0.553,-0.07
1768.0,7.364,4.037,4.01,1.185,0.553,-0.07
1772.0,7.232,3.958,4.174,0.841,0.485,-0.148
1775.0,7.232,3.958,4.174,0.841,0.485,-0.148
1779.0,7.277,3.937,4.169,0.841,0.485,-0.238
1783.0,7.277,3.937,4.169,0.52,0.413,-0.238
1787.0,7.277,3.937,4.169,0.52,0.413,-0.238
1790.0,7.326,3.887,4.029,0.233,0.335,-0.326
1794.0,7.326,3.887,4.029,0.233,0.335,-0.326
1798.0,7.326,3.887,4.029,0.233,0.335,-0.326
1801.0,7.533,3.872,3.7,-0.019,0.259,-0.402
1805.0,7.533,3.872,3.7,-0.019,0.259,-0.402
1809.0,7.824,3.728,3.387,-0.239,0.205,-0.469
1813.0,7.824,3.728,3.387,-0.239,0.205,-0.469
1817.0,7.824,3.728,3.387,-0.239,0.205,-0.469
1821.0,8.144,3.571,3.17,-0.427,0.178,-0.519
1824.0,8.144,3.571,3.17,-0.427,0.178,-0.519
1828.0,8.285,3.292,3.055,-0.427,0.178,-0.519
1832.0,8.285,3.292,3.055,-0.571,0.171,-0.527
1836.0,8.285,3.292,3.055,-0.571,0.171,-0.527
1840.0,8.503,2.983,2.964,-0.662,0.175,-0.492
1843.0,8.503,2.983,2.964,-0.662,0.175,-0.492
1847.0,8.503,2.983,2.964,-0.662,0.175,-0.492
1851.0,8.771,2.683,3.027,-0.701,0.195,-0.442
1855.0,8.771,2.683,3.027,-0.701,0.195,-0.442
1859.0,8.886,2.436,3.211,-0.693,0.216,-0.394
1863.0,8.886,2.436,3.211,-0.693,0.216,-0.394
1866.0,8.886,2.436,3.211,-0.693,0.216,-0.394
1870.0,8.813,2.264,3.347,-0.654,0.227,-0.35
1874.0,8.813,2.264,3.347,-0.654,0.227,-0.35
1878.0,8.682,2.248,3.394,-0.654,0.226,-0.324
1882.0,8.682,2.248,3.394,-0.597,0.226,-0.324
1886.0,8.682,2.248,3.394,-0.597,0.226,-0.324
1889.0,8.557,2.356,3.397,-0.538,0.226,-0.32
1893.0,8.557,2.356,3.397,-0.538,0.226,-0.32
1897.0,8.557,2.356,3.388,-0.538,0.226,-0.32
1901.0,8.442,2.502,3.388,-0.489,0.238,-0.324
1905.0,8.442,2.502,3.388,-0.489,0.238,-0.324
1908.0,8.353,2.587,3.422,-0.454,0.253,-0.32
1912.0,8.353,2.587,3.422,-0.454,0.253,-0.32
1916.0,8.353,2.587,3.422,-0.454,0.253,-0.32
1920.0,8.133,2.518,3.421,-0.433,0.266,-0.315
1924.0,8.133,2.518,3.421,-0.433,0.266,-0.315
1928.0,7.906,2.418,3.362,-0.414,0.267,-0.323
1931.0,7.906,2.418,3.362,-0.414,0.267,-0.323
1935.0,7.906,2.418,3.362,-0.414,0.267,-0.323
1939.0,7.761,2.285,3.351,-0.389,0.259,-0.358
1943.0,7.761,2.285,3.351,-0.389,0.259,-0.358
1947.0,7.559,2.09,3.313,-0.389,0.259,-0.358
1950.0,7.559,2.09,3.313,-0.362,0.244,-0.409
1954.0,7.559,2.09,3.313,-0.362,0.244,-0.409
1958.0,7.41,1.919,3.276,-0.327,0.218,-0.468
1962.0,7.41,1.919,3.276,-0.327,0.218,-0.468
1966.0,7.41,1.919,3.276,-0.327,0.218,-0.468
1970.0,7.442,1.769,3.306,-0.276,0.189,-0.54
1973.0,7.442,1.769,3.306,-0.276,0.189,-0.54
1977.0,7.459,1.682,3.411,-0.212,0.166,-0.627
1981.0,7.459,1.682,3.411,-0.212,0.166,-0.627
1985.0,7.459,1.682,3.411,-0.212,0.166,-0.627
1989.0,7.342,1.853,3.354,-0.148,0.154,-0.707
1992.0,7.342,1.853,3.354,-0.148,0.154,-0.707
1996.0,7.268,2.051,3.325,-0.148,0.154,-0.735
2000.0,7.268,2.051,3.325,-0.092,0.168,-0.735
2004.0,7.268,2.051,3.325,-0.092,0.168,-0.735
2008.0,7.416,2.129,3.448,-0.044,0.199,-0.717
2012.0,7.416,2.129,3.448,-0.044,0.199,-0.717
2015.0,7.416,2.129,3.607,-0.044,0.199,-0.717
2019.0,7.534,2.185,3.607,-0.008,0.232,-0.695
2023.0,7.534,2.185,3.607,-0.008,0.232,-0.695
2027.0,7.422,2.322,3.788,0.021,0.252,-0.686
2031.0,7.422,2.322,3.788,0.021,0.252,-0.686
2034.0,7.422,2.322,3.788,0.021,0.252,-0.686
2038.0,7.176,2.517,3.95,0.044,0.249,-0.691
2042.0,7.176,2.517,3.95,0.044,0.249,-0.691
2045.0,7.102,2.699,3.894,0.044,0.249,-0.704
2049.0,7.102,2.699,3.894,0.059,0.224,-0.704
2053.0,7.102,2.699,3.894,0.059,0.224,-0.704
2057.0,7.167,2.84,3.829,0.065,0.208,-0.733
2060.0,7.167,2.84,3.829,0.065,0.208,-0.733
2064.0,7.167,2.84,3.829,0.065,0.208,-0.733
2068.0,7.237,2.905,3.885,0.066,0.2,-0.766
2072.0,7.237,2.905,3.885,0.066,0.2,-0.766
2075.0,7.141,2.91,3.927,0.066,0.194,-0.799
2079.0,7.141,2.91,3.927,0.062,0.194,-0.799
2083.0,7.141,2.91,3.927,0.062,0.194,-0.799
2087.0,6.827,2.895,3.978,0.054,0.191,-0.833
2090.0,6.827,2.895,3.978,0.054,0.191,-0.833
2094.0,6.827,2.895,3.978,0.054,0.191,-0.833
2098.0,6.371,2.911,4.033,0.041,0.181,-0.871
2101.0,6.371,2.911,4.033,0.041,0.181,-0.871
2105.0,5.926,2.889,4.089,0.018,0.158,-0.91
2109.0,5.926,2.889,4.089,0.018,0.158,-0.91
2113.0,5.926,2.889,4.089,0.018,0.158,-0.91
2116.0,5.59,2.833,4.119,-0.017,0.114,-0.953
2120.0,5.59,2.833,4.119,-0.017,0.114,-0.953
2124.0,5.59,2.725,4.088,-0.017,0.114,-0.953
2128.0,5.438,2.725,4.088,-0.062,0.051,-1.013
2132.0,5.438,2.725,4.088,-0.062,0.051,-1.013
2136.0,5.373,2.681,4.132,-0.105,-0.023,-1.104
2139.0,5.373,2.681,4.132,-0.105,-0.023,-1.104
2143.0,5.373,2.681,4.132,-0.105,-0.023,-1.104
2147.0,5.398,2.71,4.129,-0.142,-0.116,-1.219
2151.0,5.398,2.71,4.129,-0.142,-0.116,-1.219
2155.0,5.236,2.82,4.074,-0.178,-0.211,-1.331
2159.0,5.236,2.82,4.074,-0.178,-0.211,-1.331
2163.0,5.236,2.82,4.074,-0.178,-0.211,-1.331
2167.0,4.918,2.903,3.898,-0.225,-0.302,-1.414
2171.0,4.918,2.903,3.898,-0.225,-0.302,-1.414
2175.0,4.601,2.982,3.664,-0.283,-0.382,-1.475
2178.0,4.601,2.982,3.664,-0.283,-0.382,-1.475
2182.0,4.601,2.982,3.664,-0.283,-0.382,-1.475
2186.0,4.348,3.049,3.428,-0.354,-0.44,-1.536
2190.0,4.348,3.049,3.428,-0.354,-0.44,-1.536
2194.0,4.252,3.101,3.148,-0.438,-0.483,-1.601
2198.0,4.252,3.101,3.148,-0.438,-0.483,-1.601
2202.0,4.252,3.101,3.148,-0.438,-0.483,-1.601
2206.0,4.394,3.158,2.947,-0.534,-0.494,-1.673
2210.0,4.394,3.158,2.947,-0.534,-0.494,-1.673
2214.0,4.553,3.323,2.955,-0.626,-0.464,-1.753
2218.0,4.553,3.323,2.955,-0.626,-0.464,-1.753
2221.0,4.553,3.323,2.955,-0.626,-0.464,-1.753
2225.0,4.776,3.449,2.992,-0.688,-0.432,-1.809
2229.0,4.776,3.449,2.992,-0.688,-0.432,-1.809
2233.0,5.031,3.459,2.926,-0.688,-0.432,-1.836
2237.0,5.031,3.459,2.926,-0.71,-0.408,-1.836
2241.0,5.031,3.459,2.926,-0.71,-0.408,-1.836
2245.0,5.096,3.425,2.814,-0.703,-0.372,-1.847
2249.0,5.096,3.425,2.814,-0.703,-0.372,-1.847
2253.0,4.828,3.3,2.647,-0.703,-0.372,-1.847
2257.0,4.828,3.3,2.647,-0.678,-0.329,-1.839
2261.0,4.828,3.3,2.647,-0.678,-0.329,-1.839
2264.0,4.566,3.17,2.57,-0.644,-0.299,-1.831
2268.0,4.566,3.17,2.57,-0.644,-0.299,-1.831
2272.0,4.566,3.068,2.697,-0.644,-0.299,-1.831
2276.0,4.423,3.068,2.697,-0.6,-0.265,-1.853
2280.0,4.423,3.068,2.697,-0.6,-0.265,-1.853
2284.0,4.312,2.974,2.8,-0.555,-0.237,-1.892
2288.0,4.312,2.974,2.8,-0.555,-0.237,-1.892
2292.0,4.312,2.974,2.88,-0.555,-0.237,-1.892
2296.0,4.36,3.106,2.88,-0.511,-0.21,-1.923
2300.0,4.36,3.106,2.88,-0.511,-0.21,-1.923
2303.0,4.359,3.47,2.927,-0.458,-0.156,-1.945
2307.0,4.359,3.47,2.927,-0.458,-0.156,-1.945
2311.0,4.359,3.47,2.927,-0.458,-0.156,-1.945
2315.0,4.361,3.811,2.827,-0.397,-0.107,-1.941
2319.0,4.361,3.811,2.827,-0.397,-0.107,-1.941
2323.0,4.372,4.107,2.669,-0.355,-0.068,-1.918
2327.0,4.372,4.107,2.669,-0.355,-0.068,-1.918
2331.0,4.372,4.107,2.669,-0.355,-0.068,-1.918
2335.0,4.306,4.399,2.619,-0.358,-0.021,-1.888
2339.0,4.306,4.399,2.619,-0.358,-0.021,-1.888
2343.0,4.143,4.681,2.774,-0.399,0.043,-1.865
2346.0,4.143,4.681,2.774,-0.399,0.043,-1.865
2350.0,4.143,4.681,2.774,-0.399,0.043,-1.865
2354.0,3.744,4.942,2.95,-0.461,0.098,-1.849
2358.0,3.744,4.942,2.95,-0.461,0.098,-1.849
2362.0,3.45,4.979,2.81,-0.461,0.128,-1.81
2365.0,3.45,4.979,2.81,-0.548,0.128,-1.81
2369.0,3.45,4.979,2.81,-0.548,0.128,-1.81
2373.0,3.413,4.807,2.484,-0.663,0.18,-1.781
2377.0,3.413,4.807,2.484,-0.663,0.18,-1.781
2381.0,3.413,4.66,2.127,-0.663,0.18,-1.781
2385.0,3.419,4.66,2.127,-0.806,0.277,-1.788
2388.0,3.419,4.66,2.127,-0.806,0.277,-1.788
2392.0,3.662,4.405,1.688,-0.968,0.409,-1.812
2396.0,3.662,4.405,1.688,-0.968,0.409,-1.812
2400.0,3.662,4.405,1.688,-0.968,0.409,-1.812
2404.0,4.185,4.09,1.317,-1.141,0.596,-1.876
2407.0,4.185,4.09,1.317,-1.141,0.596,-1.876
2411.0,4.639,3.881,1.274,-1.316,0.843,-2.007
2415.0,4.639,3.881,1.274,-1.316,0.843,-2.007
2419.0,4.639,3.881,1.274,-1.316,0.843,-2.007
2423.0,4.731,3.951,1.671,-1.475,1.106,-2.18
2427.0,4.731,3.951,1.671,-1.475,1.106,-2.18
2430.0,4.365,4.175,2.095,-1.475,1.106,-2.18
2434.0,4.365,4.175,2.095,-1.603,1.341,-2.342
2438.0,4.365,4.175,2.095,-1.603,1.341,-2.342
2442.0,3.735,4.314,2.26,-1.724,1.542,-2.422
2446.0,3.735,4.314,2.26,-1.724,1.542,-2.422
2449.0,3.735,4.314,2.26,-1.724,1.542,-2.422
2453.0,3.032,4.447,2.419,-1.863,1.73,-2.404
2457.0,3.032,4.447,2.419,-1.863,1.73,-2.404
2461.0,2.263,4.541,2.567,-2.016,1.9,-2.301
2465.0,2.263,4.541,2.567,-2.016,1.9,-2.301
2469.0,2.263,4.541,2.567,-2.016,1.9,-2.301
2472.0,2.011,4.262,2.268,-2.197,2.052,-2.11
2476.0,2.011,4.262,2.268,-2.197,2.052,-2.11
2480.0,2.572,3.442,1.955,-2.197,2.292,-1.964
2484.0,2.572,3.442,1.955,-2.406,2.292,-1.964
2488.0,2.572,3.442,1.955,-2.406,2.292,-1.964
2491.0,2.863,2.718,2.054,-2.597,2.647,-2.021
2495.0,2.863,2.718,2.054,-2.597,2.647,-2.021
2499.0,2.863,2.41,2.235,-2.597,2.647,-2.021
2503.0,2.861,2.41,2.235,-2.762,3.02,-2.211
2507.0,2.861,2.41,2.235,-2.762,3.02,-2.211
2511.0,2.289,2.967,2.998,-2.918,3.399,-2.415
2514.0,2.289,2.967,2.998,-2.918,3.399,-2.415
2518.0,2.289,2.967,2.998,-2.918,3.399,-2.415
2522.0,1.313,3.57,3.666,-3.067,3.726,-2.497
2526.0,1.313,3.57,3.666,-3.067,3.726,-2.497
2530.0,0.281,4.079,4.4,-3.222,3.975,-2.411
2534.0,0.281,4.079,4.4,-3.222,3.975,-2.411
2537.0,0.281,4.079,4.4,-3.222,3.975,-2.411
2541.0,-1.027,4.732,5.643,-3.365,4.14,-2.201
2545.0,-1.027,4.732,5.643,-3.365,4.14,-2.201
2549.0,-2.079,4.836,6.321,-3.365,4.14,-1.865
2553.0,-2.079,4.836,6.321,-3.483,4.181,-1.865
2557.0,-2.079,4.836,6.321,-3.483,4.181,-1.865
2561.0,-2.395,4.427,6.797,-3.59,4.184,-1.501
2565.0,-2.395,4.427,6.797,-3.59,4.184,-1.501
2568.0,-2.595,3.529,6.969,-3.59,4.184,-1.501
2572.0,-2.595,3.529,6.969,-3.658,4.239,-1.282
2576.0,-2.595,3.529,6.969,-3.658,4.239,-1.282
2580.0,-2.767,2.318,6.673,-3.69,4.327,-1.226
2584.0,-2.767,2.318,6.673,-3.69,4.327,-1.226
2588.0,-2.767,1.543,6.442,-3.69,4.327,-1.226
2592.0,-2.823,1.543,6.442,-3.706,4.464,-1.283
2596.0,-2.823,1.543,6.442,-3.706,4.464,-1.283
2600.0,-3.088,1.289,6.552,-3.727,4.642,-1.346
2604.0,-3.088,1.289,6.552,-3.727,4.642,-1.346
2608.0,-3.088,1.289,8.046,-3.727,4.642,-1.346
2611.0,-4.259,2.014,8.046,-3.755,4.795,-1.298
2615.0,-4.259,2.014,8.046,-3.755,4.795,-1.298
2619.0,-6.007,2.623,9.906,-3.747,4.802,-1.05
2623.0,-6.007,2.623,9.906,-3.747,4.802,-1.05
2627.0,-6.007,2.623,9.906,-3.747,4.802,-1.05
2631.0,-7.266,2.334,10.551,-3.705,4.654,-0.643
2635.0,-7.266,2.334,10.551,-3.705,4.654,-0.643
2639.0,-7.756,1.438,10.351,-3.66,4.478,-0.21
2643.0,-7.756,1.438,10.351,-3.66,4.478,-0.21
2647.0,-7.756,1.438,10.351,-3.66,4.478,-0.21
2651.0,-7.755,0.483,9.949,-3.619,4.37,0.132
2655.0,-7.755,0.483,9.949,-3.619,4.37,0.132
2659.0,-7.666,-0.086,9.735,-3.574,4.352,0.344
2662.0,-7.666,-0.086,9.735,-3.574,4.352,0.344
2666.0,-7.666,-0.086,9.735,-3.574,4.352,0.344
2670.0,-8.128,-0.556,10.244,-3.532,4.371,0.464
2674.0,-8.128,-0.556,10.244,-3.532,4.371,0.464
2678.0,-9.291,-0.746,10.613,-3.489,4.38,0.519
2682.0,-9.291,-0.746,10.613,-3.489,4.38,0.519
2686.0,-9.291,-0.746,10.613,-3.489,4.38,0.519
2690.0,-10.595,-0.841,10.507,-3.437,4.388,0.573
2694.0,-10.595,-0.841,10.507,-3.437,4.388,0.573
2698.0,-11.652,-1.073,10.369,-3.383,4.4,0.655
2703.0,-11.652,-1.073,10.369,-3.383,4.4,0.655
2707.0,-12.433,-1.135,10.147,-3.383,4.4,0.655
2711.0,-12.433,-1.135,10.147,-3.343,4.417,0.747
2715.0,-12.433,-1.135,10.147,-3.343,4.417,0.747
2719.0,-13.073,-0.949,9.965,-3.319,4.454,0.858
2723.0,-13.073,-0.949,9.965,-3.319,4.454,0.858
2727.0,-13.545,-0.516,9.703,-3.319,4.513,0.996
2731.0,-13.545,-0.516,9.703,-3.297,4.513,0.996
2735.0,-13.545,-0.516,9.703,-3.297,4.513,0.996
2739.0,-14.065,0.042,9.328,-3.263,4.595,1.164
2743.0,-14.065,0.042,9.328,-3.263,4.595,1.164
2747.0,-14.801,0.315,9.125,-3.263,4.691,1.362
2751.0,-14.801,0.315,9.125,-3.208,4.691,1.362
2754.0,-14.801,0.315,9.125,-3.208,4.691,1.362
2758.0,-15.634,0.162,8.835,-3.139,4.751,1.563
2762.0,-15.634,0.162,8.835,-3.139,4.751,1.563
2766.0,-16.536,-0.308,8.434,-3.139,4.751,1.746
2770.0,-16.536,-0.308,8.434,-3.062,4.765,1.746
2774.0,-16.536,-0.308,8.434,-3.062,4.765,1.746
2778.0,-17.495,-0.93,8.126,-2.99,4.735,1.901
2782.0,-17.495,-0.93,8.126,-2.99,4.735,1.901
2786.0,-18.221,-1.369,7.815,-2.99,4.657,2.026
2790.0,-18.221,-1.369,7.815,-2.923,4.657,2.026
2794.0,-18.221,-1.369,7.815,-2.923,4.657,2.026
2798.0,-18.795,-1.568,7.597,-2.874,4.546,2.135
2802.0,-18.795,-1.568,7.597,-2.874,4.546,2.135
2806.0,-19.349,-1.823,7.298,-2.852,4.408,2.236
2810.0,-19.349,-1.823,7.298,-2.852,4.408,2.236
2814.0,-19.349,-1.823,7.298,-2.852,4.408,2.236
2818.0,-19.594,-1.884,7.336,-2.833,4.264,2.3
2822.0,-19.594,-1.884,7.336,-2.833,4.264,2.3
2826.0,-19.6,-1.853,7.607,-2.781,4.092,2.31
2830.0,-19.6,-1.853,7.607,-2.781,4.092,2.31
2834.0,-19.6,-1.853,7.607,-2.781,4.092,2.31
2838.0,-19.6,-1.892,7.746,-2.672,3.861,2.265
2842.0,-19.6,-1.892,7.746,-2.672,3.861,2.265
2846.0,-19.6,-1.812,7.614,-2.507,3.565,2.159
2850.0,-19.6,-1.812,7.614,-2.507,3.565,2.159
2854.0,-19.6,-1.812,7.614,-2.507,3.565,2.159
2858.0,-19.6,-1.508,7.133,-2.308,3.22,2.015
2862.0,-19.6,-1.508,7.133,-2.308,3.22,2.015
2866.0,-19.6,-1.087,6.338,-2.116,2.857,1.853
2870.0,-19.6,-1.087,6.338,-2.116,2.857,1.853
2874.0,-19.6,-1.087,6.338,-2.116,2.857,1.853
2878.0,-19.565,-0.591,5.461,-1.962,2.517,1.672
2882.0,-19.565,-0.591,5.461,-1.962,2.517,1.672
2886.0,-18.494,-0.208,4.792,-1.852,2.225,1.468
2890.0,-18.494,-0.208,4.792,-1.852,2.225,1.468
2894.0,-18.494,-0.208,4.113,-1.852,2.225,1.468
2898.0,-16.847,0.1,4.113,-1.782,1.979,1.225
2902.0,-16.847,0.1,4.113,-1.782,1.979,1.225
2906.0,-15.501,0.388,3.778,-1.763,1.764,0.947
2910.0,-15.501,0.388,3.778,-1.763,1.764,0.947
2914.0,-15.501,0.388,3.287,-1.763,1.764,0.947
2917.0,-14.088,0.464,3.287,-1.788,1.572,0.667
2921.0,-14.088,0.464,3.287,-1.788,1.572,0.667
2925.0,-12.896,0.585,3.059,-1.865,1.411,0.383
2929.0,-12.896,0.585,3.059,-1.865,1.411,0.383
2933.0,-12.896,0.585,3.059,-1.865,1.411,0.383
2937.0,-11.809,0.592,2.808,-1.985,1.267,0.122
2941.0,-11.809,0.592,2.808,-1.985,1.267,0.122
2945.0,-10.826,0.562,2.648,-2.137,1.143,-0.114
2949.0,-10.826,0.562,2.648,-2.137,1.143,-0.114
2953.0,-10.826,0.562,2.648,-2.137,1.143,-0.114
2957.0,-10.091,0.443,2.551,-2.309,1.047,-0.32
2961.0,-10.091,0.443,2.551,-2.309,1.047,-0.32
2965.0,-9.609,0.295,2.463,-2.489,0.971,-0.496
2969.0,-9.609,0.295,2.463,-2.489,0.971,-0.496
2973.0,-9.609,0.295,2.463,-2.489,0.971,-0.496
2976.0,-9.379,0.077,2.399,-2.666,0.912,-0.64
2980.0,-9.379,0.077,2.399,-2.666,0.912,-0.64
2984.0,-9.291,-0.163,2.389,-2.831,0.861,-0.747
2988.0,-9.291,-0.163,2.389,-2.831,0.861,-0.747
2992.0,-9.291,-0.163,2.389,-2.831,0.861,-0.747
2996.0,-9.319,-0.428,2.379,-2.975,0.815,-0.818
3000.0,-9.319,-0.428,2.379,-2.975,0.815,-0.818
