deltaTime,Acc_X,Acc_Y,Acc_Z,Gyro_X,Gyro_Y,Gyro_Z
0.0,-8.813,-1.381,3.424,-0.058,0.057,-0.033
3.0,-8.898,-1.358,3.482,-0.005,0.051,-0.064
6.0,-8.898,-1.358,3.482,-0.005,0.051,-0.064
9.0,-8.898,-1.358,3.482,-0.005,0.051,-0.064
12.0,-8.952,-1.475,3.525,0.028,0.056,-0.08
15.0,-8.952,-1.475,3.525,0.028,0.056,-0.08
18.0,-8.952,-1.475,3.525,0.028,0.056,-0.08
21.0,-8.986,-1.535,3.541,0.028,0.056,-0.08
24.0,-8.986,-1.535,3.541,0.071,0.054,-0.091
27.0,-8.986,-1.535,3.541,0.071,0.054,-0.091
30.0,-8.986,-1.535,3.541,0.071,0.054,-0.091
33.0,-8.993,-1.491,3.467,0.113,0.051,-0.109
36.0,-8.993,-1.491,3.467,0.113,0.051,-0.109
40.0,-8.993,-1.491,3.467,0.113,0.051,-0.109
43.0,-8.975,-1.409,3.4,0.137,0.054,-0.139
47.0,-8.975,-1.409,3.4,0.137,0.054,-0.139
51.0,-8.843,-1.293,3.293,0.14,0.056,-0.171
55.0,-8.843,-1.293,3.293,0.14,0.056,-0.171
58.0,-8.843,-1.293,3.293,0.14,0.056,-0.171
62.0,-8.689,-1.096,3.171,0.117,0.076,-0.188
66.0,-8.689,-1.096,3.171,0.117,0.076,-0.188
70.0,-8.689,-1.096,3.146,0.117,0.076,-0.188
73.0,-8.696,-0.857,3.146,0.055,0.115,-0.199
77.0,-8.696,-0.857,3.146,0.055,0.115,-0.199
81.0,-8.81,-0.599,3.197,-0.058,0.159,-0.209
85.0,-8.81,-0.599,3.197,-0.058,0.159,-0.209
88.0,-8.81,-0.599,3.197,-0.058,0.159,-0.209
92.0,-8.95,-0.535,3.341,-0.215,0.194,-0.211
96.0,-8.95,-0.535,3.341,-0.215,0.194,-0.211
100.0,-8.896,-0.597,3.437,-0.215,0.209,-0.204
104.0,-8.896,-0.597,3.437,-0.384,0.209,-0.204
108.0,-8.896,-0.597,3.437,-0.384,0.209,-0.204
112.0,-8.747,-0.588,3.516,-0.545,0.214,-0.2
115.0,-8.747,-0.588,3.516,-0.545,0.214,-0.2
119.0,-8.686,-0.451,3.505,-0.545,0.214,-0.204
123.0,-8.686,-0.451,3.505,-0.711,0.215,-0.204
127.0,-8.686,-0.451,3.505,-0.711,0.215,-0.204
131.0,-8.68,-0.286,3.473,-0.897,0.219,-0.205
135.0,-8.68,-0.286,3.473,-0.897,0.219,-0.205
139.0,-8.791,-0.178,3.47,-0.897,0.219,-0.205
143.0,-8.791,-0.178,3.47,-1.099,0.229,-0.195
147.0,-8.791,-0.178,3.47,-1.099,0.229,-0.195
151.0,-8.981,-0.019,3.482,-1.31,0.24,-0.173
154.0,-8.981,-0.019,3.482,-1.31,0.24,-0.173
158.0,-8.981,-0.019,3.454,-1.31,0.24,-0.173
162.0,-9.176,0.219,3.454,-1.549,0.249,-0.148
166.0,-9.176,0.219,3.454,-1.549,0.249,-0.148
170.0,-9.407,0.281,3.562,-1.832,0.259,-0.129
174.0,-9.407,0.281,3.562,-1.832,0.259,-0.129
178.0,-9.407,0.281,3.562,-1.832,0.259,-0.129
181.0,-9.464,0.272,3.629,-2.141,0.266,-0.111
185.0,-9.464,0.272,3.629,-2.141,0.266,-0.111
189.0,-9.321,-0.431,3.906,-2.425,0.279,-0.088
193.0,-9.321,-0.431,3.906,-2.425,0.279,-0.088
197.0,-9.321,-0.431,3.906,-2.425,0.279,-0.088
201.0,-9.101,-0.999,3.976,-2.576,0.284,-0.055
205.0,-9.101,-0.999,3.976,-2.576,0.284,-0.055
209.0,-9.318,-1.601,4.137,-2.606,0.286,-0.017
212.0,-9.318,-1.601,4.137,-2.606,0.286,-0.017
216.0,-9.318,-1.601,4.137,-2.606,0.286,-0.017
220.0,-9.468,-2.347,4.224,-2.517,0.286,0.038
224.0,-9.468,-2.347,4.224,-2.517,0.286,0.038
228.0,-9.595,-3.097,4.381,-2.517,0.286,0.095
232.0,-9.595,-3.097,4.381,-2.289,0.275,0.095
236.0,-9.595,-3.097,4.381,-2.289,0.275,0.095
239.0,-9.547,-3.767,4.57,-1.91,0.259,0.155
243.0,-9.547,-3.767,4.57,-1.91,0.259,0.155
247.0,-9.547,-3.767,4.57,-1.91,0.259,0.155
251.0,-9.872,-3.54,4.336,-1.427,0.228,0.197
255.0,-9.872,-3.54,4.336,-1.427,0.228,0.197
258.0,-10.08,-2.81,3.977,-0.987,0.136,0.182
262.0,-10.08,-2.81,3.977,-0.987,0.136,0.182
266.0,-10.08,-2.81,3.977,-0.987,0.136,0.182
270.0,-9.917,-2.109,3.652,-0.679,0.03,0.125
274.0,-9.917,-2.109,3.652,-0.679,0.03,0.125
278.0,-9.302,-1.878,3.313,-0.492,-0.029,0.086
282.0,-9.302,-1.878,3.313,-0.492,-0.029,0.086
286.0,-9.302,-1.878,3.313,-0.492,-0.029,0.086
290.0,-8.921,-1.91,3.193,-0.36,-0.023,0.075
293.0,-8.921,-1.91,3.193,-0.36,-0.023,0.075
297.0,-8.956,-2.176,3.429,-0.231,0.016,0.062
301.0,-8.956,-2.176,3.429,-0.231,0.016,0.062
305.0,-8.956,-2.176,3.429,-0.231,0.016,0.062
309.0,-9.029,-2.166,3.738,-0.073,0.042,0.032
313.0,-9.029,-2.166,3.738,-0.073,0.042,0.032
316.0,-9.029,-1.886,4.053,-0.073,0.042,0.032
320.0,-9.392,-1.886,4.053,0.089,0.035,-0.024
324.0,-9.392,-1.886,4.053,0.089,0.035,-0.024
328.0,-9.992,-1.373,4.442,0.229,-0.019,-0.075
332.0,-9.992,-1.373,4.442,0.229,-0.019,-0.075
336.0,-9.992,-1.373,4.442,0.229,-0.019,-0.075
340.0,-10.53,-0.934,4.624,0.319,-0.114,-0.079
344.0,-10.53,-0.934,4.624,0.319,-0.114,-0.079
348.0,-10.726,-0.629,4.725,0.35,-0.198,-0.033
352.0,-10.726,-0.629,4.725,0.35,-0.198,-0.033
356.0,-10.726,-0.629,5.041,0.35,-0.198,-0.033
360.0,-10.525,-0.439,5.041,0.334,-0.248,0.047
364.0,-10.525,-0.439,5.041,0.334,-0.248,0.047
367.0,-10.136,-0.43,5.556,0.288,-0.281,0.139
371.0,-10.136,-0.43,5.556,0.288,-0.281,0.139
375.0,-10.136,-0.43,5.556,0.288,-0.281,0.139
379.0,-9.943,-0.577,6.221,0.234,-0.32,0.219
383.0,-9.943,-0.577,6.221,0.234,-0.32,0.219
387.0,-10.074,-0.89,7.049,0.185,-0.388,0.27
391.0,-10.074,-0.89,7.049,0.185,-0.388,0.27
395.0,-10.074,-0.89,7.049,0.185,-0.388,0.27
398.0,-10.391,-1.202,8.002,0.156,-0.512,0.279
402.0,-10.391,-1.202,8.002,0.156,-0.512,0.279
406.0,-10.787,-1.398,8.925,0.157,-0.701,0.245
410.0,-10.787,-1.398,8.925,0.157,-0.701,0.245
414.0,-10.787,-1.398,8.925,0.157,-0.701,0.245
418.0,-11.435,-1.293,9.796,0.213,-0.94,0.176
422.0,-11.435,-1.293,9.796,0.213,-0.94,0.176
426.0,-12.299,-0.913,10.604,0.339,-1.209,0.12
430.0,-12.299,-0.913,10.604,0.339,-1.209,0.12
434.0,-12.299,-0.913,10.604,0.339,-1.209,0.12
438.0,-13.147,-0.616,11.349,0.507,-1.512,0.12
442.0,-13.147,-0.616,11.349,0.507,-1.512,0.12
446.0,-14.02,-0.632,12.267,0.683,-1.839,0.163
450.0,-14.02,-0.632,12.267,0.683,-1.839,0.163
454.0,-14.02,-0.632,12.267,0.683,-1.839,0.163
458.0,-14.838,-0.842,13.266,0.866,-2.187,0.209
462.0,-14.838,-0.842,13.266,0.866,-2.187,0.209
466.0,-15.482,-0.917,14.185,1.043,-2.566,0.231
470.0,-15.482,-0.917,14.185,1.043,-2.566,0.231
474.0,-15.482,-0.917,14.185,1.043,-2.566,0.231
478.0,-15.84,-0.719,14.972,1.184,-2.969,0.218
482.0,-15.84,-0.719,14.972,1.184,-2.969,0.218
486.0,-16.245,-0.373,15.698,1.26,-3.391,0.186
490.0,-16.245,-0.373,15.698,1.26,-3.391,0.186
494.0,-16.245,-0.373,15.698,1.26,-3.391,0.186
498.0,-16.715,-0.522,16.282,1.252,-3.835,0.161
502.0,-16.715,-0.522,16.282,1.252,-3.835,0.161
506.0,-16.925,-1.037,16.564,1.179,-4.297,0.118
510.0,-16.925,-1.037,16.564,1.179,-4.297,0.118
514.0,-16.925,-1.037,16.649,1.179,-4.297,0.118
518.0,-16.929,-1.623,16.649,1.091,-4.741,0.024
522.0,-16.929,-1.623,16.649,1.091,-4.741,0.024
526.0,-16.968,-2.338,16.755,1.01,-4.979,-0.12
530.0,-16.968,-2.338,16.755,1.01,-4.979,-0.12
534.0,-16.871,-2.823,16.93,1.01,-4.979,-0.12
538.0,-16.871,-2.823,16.93,0.957,-4.992,-0.288
542.0,-16.871,-2.823,16.93,0.957,-4.992,-0.288
546.0,-16.354,-3.392,16.985,0.956,-4.992,-0.43
550.0,-16.354,-3.392,16.985,0.956,-4.992,-0.43
554.0,-15.572,-4.501,16.924,1.022,-4.992,-0.538
558.0,-15.572,-4.501,16.924,1.022,-4.992,-0.538
562.0,-15.572,-4.501,16.924,1.022,-4.992,-0.538
566.0,-15.121,-5.882,16.905,1.185,-4.992,-0.638
571.0,-15.121,-5.882,16.905,1.185,-4.992,-0.638
575.0,-15.051,-7.147,16.798,1.443,-4.992,-0.732
579.0,-15.051,-7.147,16.798,1.443,-4.992,-0.732
583.0,-15.051,-7.147,16.455,1.443,-4.992,-0.732
587.0,-14.862,-8.265,16.455,1.79,-4.992,-0.811
591.0,-14.862,-8.265,16.455,1.79,-4.992,-0.811
595.0,-14.145,-9.307,15.913,2.218,-4.992,-0.899
599.0,-14.145,-9.307,15.913,2.218,-4.992,-0.899
603.0,-13.032,-10.034,14.877,2.218,-4.992,-1.015
607.0,-13.032,-10.034,14.877,2.705,-4.992,-1.015
612.0,-13.032,-10.034,14.877,2.705,-4.992,-1.015
616.0,-11.74,-10.437,13.652,3.22,-4.992,-1.142
620.0,-11.74,-10.437,13.652,3.22,-4.992,-1.142
624.0,-10.468,-10.456,12.367,3.732,-4.992,-1.26
628.0,-10.468,-10.456,12.367,3.732,-4.992,-1.26
632.0,-9.275,-10.166,11.13,3.732,-4.992,-1.26
636.0,-9.275,-10.166,11.13,4.198,-4.992,-1.364
641.0,-9.275,-10.166,11.13,4.198,-4.992,-1.364
645.0,-8.271,-9.981,10.012,4.584,-4.992,-1.452
649.0,-8.271,-9.981,10.012,4.584,-4.992,-1.452
653.0,-7.201,-9.726,8.766,4.584,-4.992,-1.551
656.0,-7.201,-9.726,8.766,4.878,-4.992,-1.551
660.0,-7.201,-9.726,8.766,4.878,-4.992,-1.551
664.0,-5.841,-9.17,7.555,4.991,-4.992,-1.681
668.0,-5.841,-9.17,7.555,4.991,-4.992,-1.681
672.0,-4.938,-8.892,6.844,4.991,-4.992,-1.83
676.0,-4.938,-8.892,6.844,4.995,-4.992,-1.83
680.0,-4.938,-8.892,6.844,4.995,-4.992,-1.83
684.0,-4.516,-8.501,6.172,4.995,-4.992,-1.963
688.0,-4.516,-8.501,6.172,4.995,-4.992,-1.963
692.0,-4.199,-8.006,5.42,4.995,-4.992,-1.963
696.0,-4.199,-8.006,5.42,4.995,-4.992,-2.053
699.0,-4.199,-8.006,5.42,4.995,-4.992,-2.053
703.0,-3.781,-7.609,4.62,4.995,-4.992,-2.125
707.0,-3.781,-7.609,4.62,4.995,-4.992,-2.125
711.0,-3.781,-7.106,3.667,4.995,-4.992,-2.125
715.0,-3.039,-7.106,3.667,4.995,-4.992,-2.202
719.0,-3.039,-7.106,3.667,4.995,-4.992,-2.202
723.0,-2.365,-6.38,2.739,4.995,-4.99,-2.277
727.0,-2.365,-6.38,2.739,4.995,-4.99,-2.277
731.0,-2.365,-6.38,1.97,4.995,-4.99,-2.277
735.0,-1.862,-5.616,1.97,4.994,-4.899,-2.333
739.0,-1.862,-5.616,1.97,4.994,-4.899,-2.333
742.0,-1.403,-4.808,1.369,4.953,-4.689,-2.368
746.0,-1.403,-4.808,1.369,4.953,-4.689,-2.368
750.0,-1.403,-4.808,1.369,4.953,-4.689,-2.368
754.0,-1.164,-3.91,0.889,4.827,-4.468,-2.387
758.0,-1.164,-3.91,0.889,4.827,-4.468,-2.387
762.0,-1.165,-2.926,0.607,4.656,-4.269,-2.377
766.0,-1.165,-2.926,0.607,4.656,-4.269,-2.377
770.0,-1.165,-2.926,0.607,4.656,-4.269,-2.377
774.0,-1.151,-1.736,0.351,4.447,-4.091,-2.318
778.0,-1.151,-1.736,0.351,4.447,-4.091,-2.318
781.0,-1.26,-0.644,0.382,4.211,-3.933,-2.198
785.0,-1.26,-0.644,0.382,4.211,-3.933,-2.198
789.0,-1.26,-0.644,0.382,4.211,-3.933,-2.198
793.0,-1.445,0.435,0.248,3.924,-3.801,-2.026
797.0,-1.445,0.435,0.248,3.924,-3.801,-2.026
801.0,-1.326,1.519,-0.211,3.566,-3.669,-1.839
805.0,-1.326,1.519,-0.211,3.566,-3.669,-1.839
809.0,-1.326,1.519,-0.211,3.566,-3.669,-1.839
813.0,-1.049,2.646,-0.665,3.186,-3.525,-1.695
816.0,-1.049,2.646,-0.665,3.186,-3.525,-1.695
820.0,-0.687,3.896,-1.473,3.186,-3.383,-1.629
824.0,-0.687,3.896,-1.473,2.847,-3.383,-1.629
828.0,-0.687,3.896,-1.473,2.847,-3.383,-1.629
832.0,0.149,4.924,-2.894,2.578,-3.234,-1.612
836.0,0.149,4.924,-2.894,2.578,-3.234,-1.612
840.0,1.621,6.214,-4.606,2.578,-3.234,-1.612
844.0,1.621,6.214,-4.606,2.414,-3.033,-1.608
847.0,1.621,6.214,-4.606,2.414,-3.033,-1.608
851.0,3.175,7.932,-6.517,2.376,-2.737,-1.571
855.0,3.175,7.932,-6.517,2.376,-2.737,-1.571
859.0,3.175,7.932,-6.517,2.376,-2.737,-1.571
863.0,4.677,9.617,-7.817,2.448,-2.336,-1.434
866.0,4.677,9.617,-7.817,2.448,-2.336,-1.434
870.0,5.603,11.199,-8.194,2.608,-1.854,-1.193
874.0,5.603,11.199,-8.194,2.608,-1.854,-1.193
878.0,5.603,11.199,-8.194,2.608,-1.854,-1.193
882.0,5.864,12.881,-8.541,2.855,-1.338,-0.849
886.0,5.864,12.881,-8.541,2.855,-1.338,-0.849
890.0,6.329,14.255,-8.665,3.157,-0.78,-0.403
894.0,6.329,14.255,-8.665,3.157,-0.78,-0.403
898.0,6.329,14.255,-8.665,3.157,-0.78,-0.403
902.0,6.266,14.854,-8.889,3.459,-0.185,0.091
905.0,6.266,14.854,-8.889,3.459,-0.185,0.091
909.0,7.17,15.563,-9.313,3.459,0.324,0.603
913.0,7.17,15.563,-9.313,3.74,0.324,0.603
917.0,7.17,15.563,-9.313,3.74,0.324,0.603
920.0,7.789,16.179,-10.217,3.927,0.917,1.116
924.0,7.789,16.179,-10.217,3.927,0.917,1.116
928.0,7.789,16.179,-10.217,3.927,0.917,1.116
932.0,8.5,17.134,-11.666,4.037,1.573,1.601
936.0,8.5,17.134,-11.666,4.037,1.573,1.601
939.0,9.116,18.487,-12.878,4.058,2.302,2.066
943.0,9.116,18.487,-12.878,4.058,2.302,2.066
947.0,9.116,18.487,-12.878,4.058,2.302,2.066
951.0,9.561,19.553,-13.254,3.923,3.051,2.535
955.0,9.561,19.553,-13.254,3.923,3.051,2.535
959.0,9.575,19.596,-13.141,3.923,3.76,3.028
962.0,9.575,19.596,-13.141,3.584,3.76,3.028
966.0,9.575,19.596,-13.141,3.584,3.76,3.028
970.0,9.372,19.595,-12.703,3.065,4.424,3.547
974.0,9.372,19.595,-12.703,3.065,4.424,3.547
978.0,9.372,19.595,-10.606,3.065,4.424,3.547
981.0,8.158,18.77,-10.606,2.412,4.933,4.033
985.0,8.158,18.77,-10.606,2.412,4.933,4.033
989.0,5.801,16.522,-7.611,1.696,5.015,4.458
993.0,5.801,16.522,-7.611,1.696,5.015,4.458
997.0,5.801,16.522,-7.611,1.696,5.015,4.458
1000.0,2.673,14.055,-4.859,1.004,5.015,4.825
1004.0,2.673,14.055,-4.859,1.004,5.015,4.825
1008.0,-0.567,11.719,-2.788,1.004,5.015,5.004
1012.0,-0.567,11.719,-2.788,0.392,5.015,5.004
1016.0,-0.567,11.719,-2.788,0.392,5.015,5.004
1020.0,-3.671,9.739,-1.504,-0.169,5.015,5.013
1024.0,-3.671,9.739,-1.504,-0.169,5.015,5.013
1027.0,-7.382,7.872,0.3,-0.169,5.015,5.013
1031.0,-7.382,7.872,0.3,-0.781,5.015,5.013
1035.0,-7.382,7.872,0.3,-0.781,5.015,5.013
1039.0,-11.804,6.031,2.286,-1.582,5.015,5.013
1043.0,-11.804,6.031,2.286,-1.582,5.015,5.013
1047.0,-11.804,6.031,3.118,-1.582,5.015,5.013
1051.0,-17.674,3.045,3.118,-2.577,4.946,4.95
1055.0,-17.674,3.045,3.118,-2.577,4.946,4.95
1058.0,-19.6,-1.982,4.841,-3.586,4.24,4.323
1062.0,-19.6,-1.982,4.841,-3.586,4.24,4.323
1066.0,-19.6,-1.982,6.804,-3.586,4.24,4.323
1070.0,-19.6,-7.125,6.804,-4.358,2.91,3.085
1074.0,-19.6,-7.125,6.804,-4.358,2.91,3.085
1078.0,-19.379,-10.65,8.359,-4.765,1.336,1.599
1083.0,-19.379,-10.65,8.359,-4.765,1.336,1.599
1087.0,-14.969,-13.778,8.36,-4.765,1.336,1.599
1091.0,-14.969,-13.778,8.36,-4.718,-0.091,0.032
1095.0,-14.969,-13.778,8.36,-4.718,-0.091,0.032
1099.0,-10.177,-15.797,7.512,-4.14,-1.098,-1.526
1103.0,-10.177,-15.797,7.512,-4.14,-1.098,-1.526
1108.0,-6.744,-16.084,6.539,-3.188,-1.642,-2.792
1112.0,-6.744,-16.084,6.539,-3.188,-1.642,-2.792
1116.0,-6.744,-16.084,6.83,-3.188,-1.642,-2.792
1120.0,-5.113,-15.47,6.83,-2.051,-1.845,-3.664
1124.0,-5.113,-15.47,6.83,-2.051,-1.845,-3.664
1128.0,-4.394,-13.828,7.137,-0.853,-1.972,-4.203
1133.0,-4.394,-13.828,7.137,-0.853,-1.972,-4.203
1137.0,-3.831,-11.226,6.646,0.299,-2.128,-4.462
1141.0,-3.831,-11.226,6.646,0.299,-2.128,-4.462
1145.0,-3.831,-11.226,6.646,0.299,-2.128,-4.462
1149.0,-3.061,-8.367,5.639,1.298,-2.323,-4.53
1153.0,-3.061,-8.367,5.639,1.298,-2.323,-4.53
1157.0,-1.941,-5.529,4.466,2.087,-2.542,-4.515
1161.0,-1.941,-5.529,4.466,2.087,-2.542,-4.515
1165.0,-1.941,-5.529,4.466,2.087,-2.542,-4.515
1169.0,-0.604,-3.041,3.446,2.676,-2.761,-4.484
1173.0,-0.604,-3.041,3.446,2.676,-2.761,-4.484
1177.0,0.832,-0.851,2.648,3.098,-2.98,-4.484
1181.0,0.832,-0.851,2.648,3.098,-2.98,-4.484
1185.0,0.832,-0.851,2.648,3.098,-2.98,-4.484
1189.0,2.422,1.603,1.628,3.383,-3.179,-4.533
1192.0,2.422,1.603,1.628,3.383,-3.179,-4.533
1196.0,4.231,4.635,0.428,3.569,-3.303,-4.582
1200.0,4.231,4.635,0.428,3.569,-3.303,-4.582
1204.0,4.231,4.635,0.428,3.569,-3.303,-4.582
1208.0,5.78,7.691,-0.197,3.684,-3.351,-4.579
1212.0,5.78,7.691,-0.197,3.684,-3.351,-4.579
1216.0,6.743,10.166,-0.377,3.728,-3.408,-4.508
1219.0,6.743,10.166,-0.377,3.728,-3.408,-4.508
1223.0,6.743,10.166,-0.377,3.728,-3.408,-4.508
1227.0,7.295,12.485,-0.876,3.673,-3.498,-4.388
1231.0,7.295,12.485,-0.876,3.673,-3.498,-4.388
1235.0,7.223,14.751,-2.027,3.521,-3.567,-4.199
1239.0,7.223,14.751,-2.027,3.521,-3.567,-4.199
1243.0,7.223,14.751,-2.027,3.521,-3.567,-4.199
1247.0,7.287,16.918,-3.737,3.27,-3.636,-3.928
1251.0,7.287,16.918,-3.737,3.27,-3.636,-3.928
1255.0,7.461,19.098,-6.668,2.917,-3.652,-3.606
1259.0,7.461,19.098,-6.668,2.917,-3.652,-3.606
1263.0,7.461,19.098,-6.668,2.917,-3.652,-3.606
1267.0,8.481,19.595,-10.521,2.445,-3.563,-3.235
1271.0,8.481,19.595,-10.521,2.445,-3.563,-3.235
1276.0,10.774,19.596,-14.219,1.827,-3.299,-2.819
1280.0,10.774,19.596,-14.219,1.827,-3.299,-2.819
1284.0,13.516,19.596,-17.911,1.827,-3.299,-2.819
1288.0,13.516,19.596,-17.911,1.1,-2.833,-2.386
1292.0,13.516,19.596,-17.911,1.1,-2.833,-2.386
1296.0,15.255,19.596,-19.485,0.342,-2.15,-1.941
1301.0,15.255,19.596,-19.485,0.342,-2.15,-1.941
1305.0,15.106,19.596,-18.628,-0.319,-1.292,-1.487
1309.0,15.106,19.596,-18.628,-0.319,-1.292,-1.487
1313.0,15.106,19.596,-16.617,-0.319,-1.292,-1.487
1317.0,13.612,19.596,-16.617,-0.733,-0.396,-1.0
1322.0,13.612,19.596,-16.617,-0.733,-0.396,-1.0
1326.0,11.132,19.596,-13.941,-0.841,0.462,-0.446
1330.0,11.132,19.596,-13.941,-0.841,0.462,-0.446
1334.0,8.298,19.596,-11.682,-0.677,1.192,0.167
1338.0,8.298,19.596,-11.682,-0.677,1.192,0.167
1342.0,8.298,19.596,-11.682,-0.677,1.192,0.167
1346.0,6.26,19.596,-11.032,-0.316,1.777,0.821
1350.0,6.26,19.596,-11.032,-0.316,1.777,0.821
1354.0,6.153,19.596,-11.996,0.137,2.307,1.495
1358.0,6.153,19.596,-11.996,0.137,2.307,1.495
1362.0,6.153,19.596,-11.996,0.137,2.307,1.495
1366.0,7.911,19.596,-14.248,0.595,2.89,2.164
1370.0,7.911,19.596,-14.248,0.595,2.89,2.164
1374.0,9.895,19.596,-16.086,0.965,3.58,2.843
1378.0,9.895,19.596,-16.086,0.965,3.58,2.843
1382.0,9.895,19.596,-16.086,0.965,3.58,2.843
1386.0,10.975,19.596,-16.03,1.16,4.335,3.514
1390.0,10.975,19.596,-16.03,1.16,4.335,3.514
1394.0,10.554,19.596,-14.398,1.154,4.92,4.151
1398.0,10.554,19.596,-14.398,1.154,4.92,4.151
1402.0,10.554,19.596,-14.398,1.154,4.92,4.151
1406.0,8.407,19.592,-11.813,1.003,5.015,4.704
1409.0,8.407,19.592,-11.813,1.003,5.015,4.704
1413.0,5.684,18.631,-9.866,0.804,5.015,4.994
1417.0,5.684,18.631,-9.866,0.804,5.015,4.994
1421.0,5.684,18.631,-9.866,0.804,5.015,4.994
1425.0,2.256,16.144,-6.809,0.561,5.015,5.013
1429.0,2.256,16.144,-6.809,0.561,5.015,5.013
1432.0,-1.593,13.076,-3.628,0.561,5.015,5.013
1436.0,-1.593,13.076,-3.628,0.269,5.015,5.013
1440.0,-1.593,13.076,-3.628,0.269,5.015,5.013
1444.0,-5.162,10.32,-1.235,-0.07,5.015,5.013
1448.0,-5.162,10.32,-1.235,-0.07,5.015,5.013
1452.0,-8.975,8.185,1.015,-0.07,5.015,5.013
1456.0,-8.975,8.185,1.015,-0.519,5.015,5.013
1460.0,-8.975,8.185,1.015,-0.519,5.015,5.013
1464.0,-13.384,6.927,1.86,-1.161,5.015,5.013
1467.0,-13.384,6.927,1.86,-1.161,5.015,5.013
1471.0,-18.473,5.789,0.937,-1.161,5.015,5.013
1475.0,-18.473,5.789,0.937,-1.97,5.015,5.013
1479.0,-18.473,5.789,0.937,-1.97,5.015,5.013
1483.0,-19.6,2.289,0.303,-2.719,5.003,5.013
1487.0,-19.6,2.289,0.303,-2.719,5.003,5.013
1491.0,-19.6,2.289,2.304,-2.719,5.003,5.013
1495.0,-19.6,-3.576,2.304,-3.064,4.493,4.994
1499.0,-19.6,-3.576,2.304,-3.064,4.493,4.994
1503.0,-18.932,-5.791,5.017,-3.121,3.114,4.506
1507.0,-18.932,-5.791,5.017,-3.121,3.114,4.506
1511.0,-18.932,-6.453,4.117,-3.121,3.114,4.506
1515.0,-11.957,-6.453,4.117,-3.229,1.719,3.44
1519.0,-11.957,-6.453,4.117,-3.229,1.719,3.44
1523.0,-5.853,-6.655,2.819,-3.385,0.786,2.226
1527.0,-5.853,-6.655,2.819,-3.385,0.786,2.226
1531.0,-2.529,-6.39,2.87,-3.385,0.786,2.226
1535.0,-2.529,-6.39,2.87,-3.546,0.173,1.056
1538.0,-2.529,-6.39,2.87,-3.546,0.173,1.056
1542.0,-0.642,-5.766,3.522,-3.633,-0.339,0.056
1546.0,-0.642,-5.766,3.522,-3.633,-0.339,0.056
1550.0,0.946,-5.073,3.836,-3.633,-0.339,0.056
1554.0,0.946,-5.073,3.836,-3.577,-0.797,-0.743
1558.0,0.946,-5.073,3.836,-3.577,-0.797,-0.743
1562.0,2.544,-4.372,3.948,-3.388,-1.134,-1.335
1566.0,2.544,-4.372,3.948,-3.388,-1.134,-1.335
1570.0,4.266,-3.673,3.89,-3.388,-1.134,-1.335
1574.0,4.266,-3.673,3.89,-3.114,-1.314,-1.736
1578.0,4.266,-3.673,3.89,-3.114,-1.314,-1.736
1582.0,6.552,-2.974,3.593,-2.781,-1.358,-1.955
1586.0,6.552,-2.974,3.593,-2.781,-1.358,-1.955
1590.0,9.341,-2.121,2.827,-2.781,-1.358,-2.022
1594.0,9.341,-2.121,2.827,-2.405,-1.264,-2.022
1598.0,9.341,-2.121,2.827,-2.405,-1.264,-2.022
1602.0,11.906,-0.879,2.63,-1.961,-0.947,-1.976
1606.0,11.906,-0.879,2.63,-1.961,-0.947,-1.976
1610.0,12.949,0.223,3.312,-1.441,-0.497,-1.805
1614.0,12.949,0.223,3.312,-1.441,-0.497,-1.805
1618.0,12.949,0.223,3.312,-1.441,-0.497,-1.805
1622.0,12.674,1.334,3.989,-0.875,-0.108,-1.511
1626.0,12.674,1.334,3.989,-0.875,-0.108,-1.511
1630.0,11.98,2.201,4.202,-0.271,0.158,-1.15
1634.0,11.98,2.201,4.202,-0.271,0.158,-1.15
1638.0,11.98,2.201,4.202,-0.271,0.158,-1.15
1642.0,11.448,2.786,4.334,0.354,0.311,-0.803
1646.0,11.448,2.786,4.334,0.354,0.311,-0.803
1650.0,11.335,3.357,4.326,0.354,0.39,-0.509
1653.0,11.335,3.357,4.326,0.95,0.39,-0.509
1657.0,11.335,3.357,4.326,0.95,0.39,-0.509
1661.0,11.241,3.784,4.127,1.467,0.45,-0.269
1665.0,11.241,3.784,4.127,1.467,0.45,-0.269
1669.0,11.241,4.126,3.874,1.467,0.45,-0.269
1673.0,10.915,4.126,3.874,1.878,0.527,-0.104
1676.0,10.915,4.126,3.874,1.878,0.527,-0.104
1680.0,10.33,4.56,3.623,2.175,0.599,-0.024
1684.0,10.33,4.56,3.623,2.175,0.599,-0.024
1688.0,10.33,4.56,3.623,2.175,0.599,-0.024
1692.0,9.597,5.1,3.52,2.349,0.644,0.002
1695.0,9.597,5.1,3.52,2.349,0.644,0.002
1699.0,8.914,5.49,3.537,2.349,0.654,0.014
1703.0,8.914,5.49,3.537,2.402,0.654,0.014
1706.0,8.914,5.49,3.537,2.402,0.654,0.014
1710.0,8.271,5.699,3.657,2.346,0.641,0.015
1713.0,8.271,5.699,3.657,2.346,0.641,0.015
1717.0,8.271,5.699,3.657,2.346,0.641,0.015
1721.0,7.789,5.715,3.746,2.203,0.608,0.001
1724.0,7.789,5.715,3.746,2.203,0.608,0.001
1728.0,7.487,5.675,3.744,2.203,0.608,0.001
1732.0,7.487,5.675,3.744,1.996,0.566,-0.034
1735.0,7.487,5.675,3.744,1.996,0.566,-0.034
1739.0,7.326,5.593,3.811,1.745,0.528,-0.08
1743.0,7.326,5.593,3.811,1.745,0.528,-0.08
1747.0,7.326,5.593,3.811,1.745,0.528,-0.08
1750.0,7.116,5.468,3.89,1.463,0.489,-0.128
1754.0,7.116,5.468,3.89,1.463,0.489,-0.128
1758.0,6.868,5.45,3.821,1.463,0.489,-0.181
1762.0,6.868,5.45,3.821,1.167,0.442,-0.181
1765.0,6.868,5.45,3.821,1.167,0.442,-0.181
1769.0,6.708,5.62,3.792,0.869,0.391,-0.249
1773.0,6.708,5.62,3.792,0.869,0.391,-0.249
1777.0,6.708,5.62,3.792,0.869,0.391,-0.249
1780.0,6.511,5.874,3.866,0.582,0.34,-0.321
1784.0,6.511,5.874,3.866,0.582,0.34,-0.321
1788.0,6.393,6.006,3.739,0.582,0.286,-0.368
1791.0,6.393,6.006,3.739,0.303,0.286,-0.368
1795.0,6.393,6.006,3.739,0.303,0.286,-0.368
1799.0,6.466,5.956,3.65,0.041,0.243,-0.391
1803.0,6.466,5.956,3.65,0.041,0.243,-0.391
1806.0,6.466,5.956,3.65,0.041,0.243,-0.391
1810.0,6.584,5.731,3.805,-0.189,0.206,-0.417
1814.0,6.584,5.731,3.805,-0.189,0.206,-0.417
1818.0,6.568,5.464,4.047,-0.378,0.159,-0.452
1822.0,6.568,5.464,4.047,-0.378,0.159,-0.452
1825.0,6.568,5.464,4.047,-0.378,0.159,-0.452
1829.0,6.545,5.283,4.234,-0.516,0.103,-0.476
1833.0,6.545,5.283,4.234,-0.516,0.103,-0.476
1837.0,6.598,5.126,4.425,-0.516,0.103,-0.472
1841.0,6.598,5.126,4.425,-0.597,0.046,-0.472
1844.0,6.598,5.126,4.425,-0.597,0.046,-0.472
1848.0,6.776,5.032,4.485,-0.634,-0.014,-0.447
1852.0,6.776,5.032,4.485,-0.634,-0.014,-0.447
1856.0,6.776,5.032,4.426,-0.634,-0.014,-0.447
1860.0,7.1,4.94,4.426,-0.639,-0.064,-0.4
1864.0,7.1,4.94,4.426,-0.639,-0.064,-0.4
1868.0,7.449,4.872,4.308,-0.628,-0.097,-0.344
1872.0,7.449,4.872,4.308,-0.628,-0.097,-0.344
1876.0,7.449,4.872,4.308,-0.628,-0.097,-0.344
1880.0,8.003,4.926,4.065,-0.61,-0.116,-0.294
1883.0,8.003,4.926,4.065,-0.61,-0.116,-0.294
1887.0,8.611,5.174,3.904,-0.585,-0.109,-0.263
1891.0,8.611,5.174,3.904,-0.585,-0.109,-0.263
1895.0,8.611,5.174,3.904,-0.585,-0.109,-0.263
1899.0,8.917,5.398,3.832,-0.568,-0.081,-0.234
1903.0,8.917,5.398,3.832,-0.568,-0.081,-0.234
1907.0,8.837,5.492,3.822,-0.566,-0.042,-0.193
1911.0,8.837,5.492,3.822,-0.566,-0.042,-0.193
1915.0,8.837,5.492,3.822,-0.566,-0.042,-0.193
1919.0,8.484,5.444,3.945,-0.572,-0.001,-0.157
1923.0,8.484,5.444,3.945,-0.572,-0.001,-0.157
1926.0,8.052,5.267,4.111,-0.576,0.03,-0.137
1930.0,8.052,5.267,4.111,-0.576,0.03,-0.137
1934.0,8.052,5.267,4.111,-0.576,0.03,-0.137
1938.0,7.625,5.019,4.31,-0.573,0.054,-0.13
1942.0,7.625,5.019,4.31,-0.573,0.054,-0.13
1946.0,7.241,4.732,4.462,-0.573,0.054,-0.131
1949.0,7.241,4.732,4.462,-0.554,0.069,-0.131
1953.0,7.241,4.732,4.462,-0.554,0.069,-0.131
1957.0,6.999,4.487,4.561,-0.507,0.081,-0.141
1961.0,6.999,4.487,4.561,-0.507,0.081,-0.141
1965.0,6.999,4.487,4.717,-0.507,0.081,-0.141
1968.0,6.98,4.25,4.717,-0.427,0.078,-0.163
1972.0,6.98,4.25,4.717,-0.427,0.078,-0.163
1976.0,7.017,4.167,4.839,-0.318,0.058,-0.199
1980.0,7.017,4.167,4.839,-0.318,0.058,-0.199
1984.0,7.017,4.167,4.839,-0.318,0.058,-0.199
1988.0,6.979,4.113,4.798,-0.189,0.027,-0.226
1991.0,6.979,4.113,4.798,-0.189,0.027,-0.226
1995.0,6.989,4.089,4.658,-0.054,-0.005,-0.232
1999.0,6.989,4.089,4.658,-0.054,-0.005,-0.232
2003.0,6.989,4.089,4.658,-0.054,-0.005,-0.232
2007.0,7.108,4.161,4.542,0.083,-0.026,-0.232
2011.0,7.108,4.161,4.542,0.083,-0.026,-0.232
2015.0,7.174,4.281,4.345,0.083,-0.026,-0.221
2018.0,7.174,4.281,4.345,0.208,-0.048,-0.221
2022.0,7.174,4.281,4.345,0.208,-0.048,-0.221
2026.0,7.217,4.318,4.137,0.314,-0.077,-0.193
2030.0,7.217,4.318,4.137,0.314,-0.077,-0.193
2034.0,7.217,4.318,4.06,0.314,-0.077,-0.193
2037.0,7.239,4.368,4.06,0.401,-0.105,-0.173
2041.0,7.239,4.368,4.06,0.401,-0.105,-0.173
2045.0,7.162,4.521,4.028,0.469,-0.133,-0.176
2049.0,7.162,4.521,4.028,0.469,-0.133,-0.176
2053.0,7.162,4.521,4.028,0.469,-0.133,-0.176
2057.0,7.031,4.712,3.957,0.512,-0.167,-0.186
2060.0,7.031,4.712,3.957,0.512,-0.167,-0.186
2064.0,6.978,4.866,3.896,0.529,-0.206,-0.206
2068.0,6.978,4.866,3.896,0.529,-0.206,-0.206
2072.0,6.978,4.866,3.896,0.529,-0.206,-0.206
2076.0,6.973,4.992,3.76,0.523,-0.247,-0.242
2079.0,6.973,4.992,3.76,0.523,-0.247,-0.242
2083.0,6.973,5.137,3.554,0.523,-0.247,-0.242
2087.0,7.085,5.137,3.554,0.497,-0.279,-0.284
2091.0,7.085,5.137,3.554,0.497,-0.279,-0.284
2095.0,7.293,5.258,3.313,0.456,-0.29,-0.314
2099.0,7.293,5.258,3.313,0.456,-0.29,-0.314
2102.0,7.293,5.258,3.313,0.456,-0.29,-0.314
2106.0,7.648,5.322,3.12,0.405,-0.282,-0.324
2110.0,7.648,5.322,3.12,0.405,-0.282,-0.324
2114.0,7.912,5.374,3.078,0.349,-0.256,-0.328
2118.0,7.912,5.374,3.078,0.349,-0.256,-0.328
2121.0,7.912,5.374,3.078,0.349,-0.256,-0.328
2125.0,7.917,5.371,3.006,0.287,-0.221,-0.326
2129.0,7.917,5.371,3.006,0.287,-0.221,-0.326
2133.0,7.746,5.31,2.967,0.287,-0.221,-0.315
2137.0,7.746,5.31,2.967,0.22,-0.19,-0.315
2141.0,7.746,5.31,2.967,0.22,-0.19,-0.315
2144.0,7.482,5.29,3.045,0.152,-0.164,-0.31
2148.0,7.482,5.29,3.045,0.152,-0.164,-0.31
2152.0,7.482,5.29,3.045,0.152,-0.164,-0.31
2156.0,7.217,5.3,3.086,0.092,-0.147,-0.309
2160.0,7.217,5.3,3.086,0.092,-0.147,-0.309
2163.0,7.184,5.241,3.127,0.043,-0.141,-0.292
2167.0,7.184,5.241,3.127,0.043,-0.141,-0.292
2171.0,7.184,5.241,3.127,0.043,-0.141,-0.292
2175.0,7.268,5.13,3.208,0.007,-0.136,-0.282
2179.0,7.268,5.13,3.208,0.007,-0.136,-0.282
2183.0,7.37,5.116,3.2,0.007,-0.127,-0.286
2186.0,7.37,5.116,3.2,-0.016,-0.127,-0.286
2190.0,7.37,5.116,3.2,-0.016,-0.127,-0.286
2194.0,7.444,5.149,3.177,-0.03,-0.115,-0.289
2198.0,7.444,5.149,3.177,-0.03,-0.115,-0.289
2202.0,7.539,5.164,3.146,-0.03,-0.115,-0.292
2206.0,7.539,5.164,3.146,-0.039,-0.096,-0.292
2210.0,7.539,5.164,3.146,-0.039,-0.096,-0.292
2214.0,7.557,5.23,3.142,-0.045,-0.069,-0.294
2218.0,7.557,5.23,3.142,-0.045,-0.069,-0.294
2222.0,7.586,5.231,3.217,-0.045,-0.069,-0.294
2225.0,7.586,5.231,3.217,-0.049,-0.041,-0.28
2229.0,7.586,5.231,3.217,-0.049,-0.041,-0.28
2233.0,7.521,5.253,3.351,-0.045,-0.015,-0.266
2237.0,7.521,5.253,3.351,-0.045,-0.015,-0.266
2241.0,7.521,5.253,3.413,-0.045,-0.015,-0.266
2245.0,7.406,5.256,3.413,-0.027,0.006,-0.251
2249.0,7.406,5.256,3.413,-0.027,0.006,-0.251
2253.0,7.421,5.247,3.486,0.003,0.022,-0.234
2256.0,7.421,5.247,3.486,0.003,0.022,-0.234
2260.0,7.421,5.247,3.486,0.003,0.022,-0.234
2264.0,7.468,5.206,3.596,0.04,0.036,-0.22
2268.0,7.468,5.206,3.596,0.04,0.036,-0.22
2271.0,7.431,5.183,3.647,0.04,0.051,-0.209
2275.0,7.431,5.183,3.647,0.083,0.051,-0.209
2279.0,7.431,5.183,3.647,0.083,0.051,-0.209
2283.0,7.405,5.189,3.65,0.127,0.067,-0.196
2286.0,7.405,5.189,3.65,0.127,0.067,-0.196
2290.0,7.405,5.189,3.65,0.127,0.067,-0.196
2294.0,7.394,5.234,3.749,0.174,0.09,-0.199
2297.0,7.394,5.234,3.749,0.174,0.09,-0.199
2301.0,7.277,5.307,3.933,0.218,0.108,-0.206
2305.0,7.277,5.307,3.933,0.218,0.108,-0.206
2309.0,7.277,5.307,3.933,0.218,0.108,-0.206
2312.0,7.123,5.439,4.029,0.254,0.105,-0.201
2316.0,7.123,5.439,4.029,0.254,0.105,-0.201
2320.0,7.123,5.439,4.029,0.254,0.105,-0.201
2324.0,7.04,5.495,4.115,0.28,0.083,-0.186
2327.0,7.04,5.495,4.115,0.28,0.083,-0.186
2331.0,7.0,5.545,4.15,0.297,0.049,-0.176
2335.0,7.0,5.545,4.15,0.297,0.049,-0.176
2338.0,7.0,5.545,4.15,0.297,0.049,-0.176
2342.0,6.935,5.597,4.134,0.302,0.012,-0.176
2346.0,6.935,5.597,4.134,0.302,0.012,-0.176
2350.0,6.935,5.694,4.033,0.302,0.012,-0.176
2353.0,6.901,5.694,4.033,0.298,-0.026,-0.181
2357.0,6.901,5.694,4.033,0.298,-0.026,-0.181
2361.0,6.937,5.77,3.916,0.282,-0.056,-0.182
2365.0,6.937,5.77,3.916,0.282,-0.056,-0.182
2369.0,6.937,5.77,3.916,0.282,-0.056,-0.182
2373.0,7.076,5.824,3.871,0.261,-0.072,-0.186
2376.0,7.076,5.824,3.871,0.261,-0.072,-0.186
2380.0,7.2,5.9,3.872,0.236,-0.075,-0.198
2384.0,7.2,5.9,3.872,0.236,-0.075,-0.198
2388.0,7.2,5.9,3.872,0.236,-0.075,-0.198
2392.0,7.333,5.979,3.814,0.209,-0.077,-0.204
2395.0,7.333,5.979,3.814,0.209,-0.077,-0.204
2399.0,7.461,6.075,3.781,0.209,-0.077,-0.204
2403.0,7.461,6.075,3.781,0.184,-0.073,-0.211
2407.0,7.461,6.075,3.781,0.184,-0.073,-0.211
2411.0,7.538,6.149,3.776,0.159,-0.065,-0.218
2415.0,7.538,6.149,3.776,0.159,-0.065,-0.218
2418.0,7.538,6.149,3.776,0.159,-0.065,-0.218
2422.0,7.537,6.187,3.754,0.133,-0.059,-0.219
2426.0,7.537,6.187,3.754,0.133,-0.059,-0.219
2430.0,7.44,6.175,3.713,0.108,-0.053,-0.212
2434.0,7.44,6.175,3.713,0.108,-0.053,-0.212
2437.0,7.44,6.175,3.713,0.108,-0.053,-0.212
2441.0,7.296,6.099,3.686,0.086,-0.047,-0.199
2445.0,7.296,6.099,3.686,0.086,-0.047,-0.199
2449.0,7.071,5.982,3.595,0.086,-0.047,-0.179
2453.0,7.071,5.982,3.595,0.064,-0.041,-0.179
2457.0,7.071,5.982,3.595,0.064,-0.041,-0.179
2460.0,6.854,5.816,3.437,0.037,-0.032,-0.149
2464.0,6.854,5.816,3.437,0.037,-0.032,-0.149
2468.0,6.854,5.816,3.319,0.037,-0.032,-0.149
2472.0,6.681,5.593,3.319,0.007,-0.022,-0.126
2476.0,6.681,5.593,3.319,0.007,-0.022,-0.126
2479.0,6.453,5.377,3.18,-0.027,-0.016,-0.12
2483.0,6.453,5.377,3.18,-0.027,-0.016,-0.12
2487.0,6.453,5.377,3.18,-0.027,-0.016,-0.12
2491.0,6.265,5.213,2.977,-0.065,-0.025,-0.122
2495.0,6.265,5.213,2.977,-0.065,-0.025,-0.122
2499.0,6.179,5.034,2.761,-0.11,-0.04,-0.136
2503.0,6.179,5.034,2.761,-0.11,-0.04,-0.136
2507.0,6.179,5.034,2.761,-0.11,-0.04,-0.136
2511.0,6.097,4.884,2.49,-0.161,-0.053,-0.168
2515.0,6.097,4.884,2.49,-0.161,-0.053,-0.168
2519.0,6.127,4.822,2.184,-0.213,-0.057,-0.209
2522.0,6.127,4.822,2.184,-0.213,-0.057,-0.209
2526.0,6.127,4.822,2.184,-0.213,-0.057,-0.209
2530.0,6.312,4.722,1.933,-0.26,-0.049,-0.254
2534.0,6.312,4.722,1.933,-0.26,-0.049,-0.254
2538.0,6.409,4.591,1.686,-0.309,-0.037,-0.31
2542.0,6.409,4.591,1.686,-0.309,-0.037,-0.31
2546.0,6.409,4.591,1.686,-0.309,-0.037,-0.31
2550.0,6.449,4.436,1.384,-0.364,-0.027,-0.374
2554.0,6.449,4.436,1.384,-0.364,-0.027,-0.374
2558.0,6.37,4.289,1.074,-0.364,-0.003,-0.454
2561.0,6.37,4.289,1.074,-0.431,-0.003,-0.454
2565.0,6.37,4.289,1.074,-0.431,-0.003,-0.454
2569.0,6.231,4.232,0.827,-0.512,0.037,-0.536
2573.0,6.231,4.232,0.827,-0.512,0.037,-0.536
2577.0,6.19,4.208,0.824,-0.512,0.037,-0.536
2581.0,6.19,4.208,0.824,-0.59,0.097,-0.619
2585.0,6.19,4.208,0.824,-0.59,0.097,-0.619
2588.0,6.236,4.152,0.943,-0.643,0.165,-0.709
2592.0,6.236,4.152,0.943,-0.643,0.165,-0.709
2596.0,6.236,4.152,0.943,-0.643,0.165,-0.709
2600.0,6.284,4.023,1.021,-0.668,0.225,-0.794
2604.0,6.284,4.023,1.021,-0.668,0.225,-0.794
2608.0,6.237,3.921,1.002,-0.659,0.277,-0.867
2611.0,6.237,3.921,1.002,-0.659,0.277,-0.867
2615.0,6.237,3.921,1.002,-0.659,0.277,-0.867
2619.0,6.155,3.735,0.898,-0.617,0.322,-0.921
2623.0,6.155,3.735,0.898,-0.617,0.322,-0.921
2627.0,6.113,3.639,0.661,-0.617,0.322,-0.96
2630.0,6.113,3.639,0.661,-0.555,0.374,-0.96
2634.0,6.113,3.639,0.661,-0.555,0.374,-0.96
2638.0,6.138,3.644,0.347,-0.484,0.443,-0.979
2642.0,6.138,3.644,0.347,-0.484,0.443,-0.979
2646.0,6.138,3.644,0.303,-0.484,0.443,-0.979
2650.0,6.335,3.675,0.303,-0.404,0.526,-0.983
2653.0,6.335,3.675,0.303,-0.404,0.526,-0.983
2657.0,6.604,3.813,0.412,-0.318,0.616,-0.999
2661.0,6.604,3.813,0.412,-0.318,0.616,-0.999
2665.0,6.604,3.813,0.412,-0.318,0.616,-0.999
2669.0,6.765,4.014,0.598,-0.224,0.702,-1.017
2672.0,6.765,4.014,0.598,-0.224,0.702,-1.017
2676.0,6.75,4.153,0.818,-0.122,0.789,-1.017
2680.0,6.75,4.153,0.818,-0.122,0.789,-1.017
2684.0,6.75,4.153,0.818,-0.122,0.789,-1.017
2688.0,6.557,4.222,1.052,-0.018,0.876,-0.997
2692.0,6.557,4.222,1.052,-0.018,0.876,-0.997
2695.0,6.38,4.223,1.095,-0.018,0.876,-0.997
2699.0,6.38,4.223,1.095,0.084,0.948,-0.973
2703.0,6.38,4.223,1.095,0.084,0.948,-0.973
2707.0,6.218,4.244,0.994,0.178,1.025,-0.964
2710.0,6.218,4.244,0.994,0.178,1.025,-0.964
2714.0,6.218,4.244,0.994,0.178,1.025,-0.964
2718.0,6.156,4.315,0.697,0.252,1.112,-0.956
2722.0,6.156,4.315,0.697,0.252,1.112,-0.956
2725.0,6.267,4.278,0.286,0.252,1.112,-0.94
2729.0,6.267,4.278,0.286,0.294,1.218,-0.94
2733.0,6.267,4.278,0.286,0.294,1.218,-0.94
2736.0,6.341,4.265,0.023,0.304,1.359,-0.942
2740.0,6.341,4.265,0.023,0.304,1.359,-0.942
2744.0,6.341,4.265,0.023,0.304,1.359,-0.942
2748.0,6.157,4.275,-0.062,0.288,1.519,-0.965
2752.0,6.157,4.275,-0.062,0.288,1.519,-0.965
2755.0,5.862,4.206,-0.085,0.238,1.668,-0.992
2759.0,5.862,4.206,-0.085,0.238,1.668,-0.992
2763.0,5.862,4.206,-0.085,0.238,1.668,-0.992
2767.0,5.387,4.123,-0.157,0.157,1.813,-1.031
2771.0,5.387,4.123,-0.157,0.157,1.813,-1.031
2774.0,4.823,4.011,-0.206,0.157,1.813,-1.031
2778.0,4.823,4.011,-0.206,0.042,1.956,-1.067
2782.0,4.823,4.011,-0.206,0.042,1.956,-1.067
2786.0,4.225,3.834,-0.24,-0.102,2.102,-1.105
2790.0,4.225,3.834,-0.24,-0.102,2.102,-1.105
2794.0,4.225,3.834,-0.218,-0.102,2.102,-1.105
2798.0,3.604,3.635,-0.218,-0.27,2.251,-1.142
2802.0,3.604,3.635,-0.218,-0.27,2.251,-1.142
2805.0,2.943,3.37,-0.099,-0.451,2.402,-1.181
2809.0,2.943,3.37,-0.099,-0.451,2.402,-1.181
2813.0,2.943,3.37,-0.099,-0.451,2.402,-1.181
2817.0,2.147,3.1,0.089,-0.634,2.554,-1.231
2821.0,2.147,3.1,0.089,-0.634,2.554,-1.231
2825.0,1.338,2.874,0.318,-0.818,2.696,-1.275
2829.0,1.338,2.874,0.318,-0.818,2.696,-1.275
2832.0,1.338,2.874,0.318,-0.818,2.696,-1.275
2836.0,0.621,2.632,0.586,-0.996,2.837,-1.321
2840.0,0.621,2.632,0.586,-0.996,2.837,-1.321
2844.0,-0.09,2.414,0.714,-0.996,2.975,-1.375
2848.0,-0.09,2.414,0.714,-1.16,2.975,-1.375
2852.0,-0.09,2.414,0.714,-1.16,2.975,-1.375
2856.0,-0.648,2.195,0.772,-1.315,3.109,-1.422
2859.0,-0.648,2.195,0.772,-1.315,3.109,-1.422
2863.0,-1.096,1.999,0.811,-1.315,3.109,-1.487
2867.0,-1.096,1.999,0.811,-1.452,3.257,-1.487
2871.0,-1.096,1.999,0.811,-1.452,3.257,-1.487
2875.0,-1.5,1.772,0.767,-1.559,3.419,-1.575
2879.0,-1.5,1.772,0.767,-1.559,3.419,-1.575
2883.0,-1.86,1.586,0.828,-1.559,3.419,-1.575
2887.0,-1.86,1.586,0.828,-1.631,3.584,-1.669
2891.0,-1.86,1.586,0.828,-1.631,3.584,-1.669
2895.0,-2.313,1.481,0.97,-1.665,3.758,-1.758
2899.0,-2.313,1.481,0.97,-1.665,3.758,-1.758
2902.0,-2.313,1.307,1.096,-1.665,3.758,-1.758
2906.0,-2.902,1.307,1.096,-1.672,3.927,-1.813
2910.0,-2.902,1.307,1.096,-1.672,3.927,-1.813
2914.0,-3.654,1.068,1.165,-1.665,4.098,-1.833
2918.0,-3.654,1.068,1.165,-1.665,4.098,-1.833
2922.0,-3.654,1.068,1.309,-1.665,4.098,-1.833
2926.0,-4.564,0.922,1.309,-1.638,4.281,-1.858
2930.0,-4.564,0.922,1.309,-1.638,4.281,-1.858
2934.0,-5.667,0.853,1.705,-1.582,4.471,-1.915
2938.0,-5.667,0.853,1.705,-1.582,4.471,-1.915
2942.0,-5.667,0.853,1.705,-1.582,4.471,-1.915
2945.0,-6.819,0.72,2.253,-1.503,4.635,-1.985
2949.0,-6.819,0.72,2.253,-1.503,4.635,-1.985
2953.0,-7.981,0.523,2.722,-1.402,4.765,-2.057
2957.0,-7.981,0.523,2.722,-1.402,4.765,-2.057
2961.0,-7.981,0.523,2.722,-1.402,4.765,-2.057
2965.0,-9.087,0.23,2.887,-1.29,4.86,-2.113
2969.0,-9.087,0.23,2.887,-1.29,4.86,-2.113
2973.0,-10.143,0.033,3.266,-1.164,4.936,-2.158
2977.0,-10.143,0.033,3.266,-1.164,4.936,-2.158
2981.0,-10.143,0.033,3.266,-1.164,4.936,-2.158
2985.0,-11.262,0.03,3.851,-0.998,4.978,-2.217
2989.0,-11.262,0.03,3.851,-0.998,4.978,-2.217
2993.0,-12.459,-0.011,4.48,-0.778,4.97,-2.286
2997.0,-12.459,-0.011,4.48,-0.778,4.97,-2.286
