deltaTime,Acc_X,Acc_Y,Acc_Z,Gyro_X,Gyro_Y,Gyro_Z
0.0,-10.325,0.726,0.455,-1.423,-0.103,0.337
3.0,-10.193,1.015,0.427,-1.423,-0.113,0.334
6.0,-10.193,1.015,0.427,-1.386,-0.113,0.334
9.0,-10.193,1.015,0.427,-1.386,-0.113,0.334
12.0,-10.193,1.015,0.427,-1.386,-0.113,0.334
15.0,-10.259,1.08,0.373,-1.405,-0.124,0.311
18.0,-10.259,1.08,0.373,-1.405,-0.124,0.311
21.0,-10.259,1.08,0.373,-1.405,-0.124,0.311
24.0,-10.381,1.015,0.35,-1.428,-0.141,0.272
27.0,-10.381,1.015,0.35,-1.428,-0.141,0.272
30.0,-10.381,1.015,0.35,-1.428,-0.141,0.272
33.0,-10.777,0.554,0.491,-1.409,-0.155,0.234
37.0,-10.777,0.554,0.491,-1.409,-0.155,0.234
41.0,-10.777,0.554,0.491,-1.409,-0.155,0.234
45.0,-10.94,0.118,0.515,-1.288,-0.17,0.218
48.0,-10.94,0.118,0.515,-1.288,-0.17,0.218
52.0,-10.878,0.307,0.644,-1.288,-0.167,0.214
56.0,-10.878,0.307,0.644,-1.092,-0.167,0.214
60.0,-10.878,0.307,0.644,-1.092,-0.167,0.214
64.0,-11.341,1.033,0.78,-0.941,-0.114,0.201
68.0,-11.341,1.033,0.78,-0.941,-0.114,0.201
71.0,-11.341,1.033,1.062,-0.941,-0.114,0.201
75.0,-11.776,1.809,1.062,-0.906,-0.119,0.19
79.0,-11.776,1.809,1.062,-0.906,-0.119,0.19
83.0,-11.793,2.301,1.195,-0.984,-0.193,0.202
87.0,-11.793,2.301,1.195,-0.984,-0.193,0.202
90.0,-11.793,2.301,1.195,-0.984,-0.193,0.202
94.0,-10.996,2.317,1.318,-1.135,-0.291,0.227
98.0,-10.996,2.317,1.318,-1.135,-0.291,0.227
102.0,-10.076,2.628,0.912,-1.311,-0.333,0.225
106.0,-10.076,2.628,0.912,-1.311,-0.333,0.225
110.0,-10.076,2.628,0.912,-1.311,-0.333,0.225
114.0,-9.761,2.045,0.757,-1.554,-0.385,0.181
117.0,-9.761,2.045,0.757,-1.554,-0.385,0.181
121.0,-9.278,1.655,0.778,-1.554,-0.385,0.126
125.0,-9.278,1.655,0.778,-1.717,-0.43,0.126
129.0,-9.278,1.655,0.778,-1.717,-0.43,0.126
133.0,-8.436,1.378,0.841,-1.798,-0.462,0.062
137.0,-8.436,1.378,0.841,-1.798,-0.462,0.062
140.0,-8.436,1.378,0.973,-1.798,-0.462,0.062
144.0,-7.467,1.098,0.973,-1.838,-0.484,-0.003
148.0,-7.467,1.098,0.973,-1.838,-0.484,-0.003
152.0,-6.846,0.764,1.184,-1.851,-0.476,-0.052
156.0,-6.846,0.764,1.184,-1.851,-0.476,-0.052
160.0,-6.846,0.764,1.184,-1.851,-0.476,-0.052
164.0,-6.655,0.375,1.58,-1.831,-0.464,-0.09
168.0,-6.655,0.375,1.58,-1.831,-0.464,-0.09
172.0,-6.956,-0.192,2.024,-1.769,-0.46,-0.109
176.0,-6.956,-0.192,2.024,-1.769,-0.46,-0.109
180.0,-6.956,-0.192,2.024,-1.769,-0.46,-0.109
184.0,-7.32,-0.47,2.288,-1.669,-0.474,-0.12
188.0,-7.32,-0.47,2.288,-1.669,-0.474,-0.12
192.0,-7.825,-0.729,2.354,-1.553,-0.512,-0.13
196.0,-7.825,-0.729,2.354,-1.553,-0.512,-0.13
200.0,-7.825,-0.729,2.354,-1.553,-0.512,-0.13
203.0,-8.164,-1.205,2.359,-1.416,-0.551,-0.118
207.0,-8.164,-1.205,2.359,-1.416,-0.551,-0.118
211.0,-7.917,-1.376,2.088,-1.232,-0.585,-0.103
215.0,-7.917,-1.376,2.088,-1.232,-0.585,-0.103
219.0,-7.917,-1.17,1.644,-1.232,-0.585,-0.103
223.0,-8.124,-1.17,1.644,-1.071,-0.585,-0.127
227.0,-8.124,-1.17,1.644,-1.071,-0.585,-0.127
231.0,-8.868,-0.951,1.306,-0.964,-0.551,-0.165
235.0,-8.868,-0.951,1.306,-0.964,-0.551,-0.165
239.0,-10.03,-0.684,0.991,-0.964,-0.551,-0.165
244.0,-10.03,-0.684,0.991,-0.88,-0.498,-0.174
248.0,-10.03,-0.684,0.991,-0.88,-0.498,-0.174
252.0,-11.161,-0.434,0.849,-0.85,-0.431,-0.162
256.0,-11.161,-0.434,0.849,-0.85,-0.431,-0.162
260.0,-12.045,-0.211,0.763,-0.85,-0.378,-0.142
264.0,-12.045,-0.211,0.763,-0.85,-0.378,-0.142
268.0,-12.045,-0.211,0.763,-0.85,-0.378,-0.142
272.0,-12.775,0.062,0.859,-0.835,-0.339,-0.124
276.0,-12.775,0.062,0.859,-0.835,-0.339,-0.124
280.0,-13.018,0.531,1.083,-0.759,-0.324,-0.105
284.0,-13.018,0.531,1.083,-0.759,-0.324,-0.105
288.0,-13.018,0.531,1.083,-0.759,-0.324,-0.105
292.0,-12.663,1.253,1.158,-0.619,-0.346,-0.096
296.0,-12.663,1.253,1.158,-0.619,-0.346,-0.096
300.0,-12.169,2.389,1.047,-0.469,-0.399,-0.117
304.0,-12.169,2.389,1.047,-0.469,-0.399,-0.117
308.0,-12.169,2.389,1.047,-0.469,-0.399,-0.117
312.0,-11.868,3.336,0.899,-0.388,-0.446,-0.155
316.0,-11.868,3.336,0.899,-0.388,-0.446,-0.155
320.0,-11.79,3.642,0.939,-0.411,-0.475,-0.173
324.0,-11.79,3.642,0.939,-0.411,-0.475,-0.173
328.0,-11.79,3.642,0.85,-0.411,-0.475,-0.173
332.0,-11.383,3.266,0.85,-0.495,-0.514,-0.173
336.0,-11.383,3.266,0.85,-0.495,-0.514,-0.173
340.0,-10.828,2.917,0.858,-0.631,-0.546,-0.181
344.0,-10.828,2.917,0.858,-0.631,-0.546,-0.181
348.0,-11.009,2.679,1.032,-0.631,-0.546,-0.181
352.0,-11.009,2.679,1.032,-0.843,-0.568,-0.199
356.0,-11.009,2.679,1.032,-0.843,-0.568,-0.199
360.0,-10.906,2.226,1.333,-1.127,-0.601,-0.224
364.0,-10.906,2.226,1.333,-1.127,-0.601,-0.224
368.0,-10.577,1.84,1.55,-1.127,-0.601,-0.224
372.0,-10.577,1.84,1.55,-1.431,-0.634,-0.247
376.0,-10.577,1.84,1.55,-1.431,-0.634,-0.247
380.0,-10.348,1.254,1.763,-1.708,-0.66,-0.26
384.0,-10.348,1.254,1.763,-1.708,-0.66,-0.26
388.0,-10.31,0.76,2.1,-1.708,-0.673,-0.264
392.0,-10.31,0.76,2.1,-1.903,-0.673,-0.264
396.0,-10.31,0.76,2.1,-1.903,-0.673,-0.264
400.0,-9.993,0.942,2.308,-2.045,-0.685,-0.269
404.0,-9.993,0.942,2.308,-2.045,-0.685,-0.269
408.0,-9.968,0.77,2.562,-2.045,-0.694,-0.25
412.0,-9.968,0.77,2.562,-2.184,-0.694,-0.25
415.0,-9.968,0.77,2.562,-2.184,-0.694,-0.25
419.0,-10.0,0.753,2.594,-2.287,-0.704,-0.203
423.0,-10.0,0.753,2.594,-2.287,-0.704,-0.203
427.0,-11.104,-0.249,3.05,-2.287,-0.694,-0.156
431.0,-11.104,-0.249,3.05,-2.343,-0.694,-0.156
436.0,-11.104,-0.249,3.05,-2.343,-0.694,-0.156
440.0,-10.734,-0.172,2.899,-2.225,-0.874,-0.099
444.0,-10.734,-0.172,2.899,-2.225,-0.874,-0.099
448.0,-10.708,-0.251,2.435,-2.143,-0.973,-0.012
452.0,-10.708,-0.251,2.435,-2.143,-0.973,-0.012
456.0,-10.708,-0.251,2.435,-2.143,-0.973,-0.012
460.0,-10.079,-0.558,1.86,-2.036,-1.058,0.077
464.0,-10.079,-0.558,1.86,-2.036,-1.058,0.077
468.0,-9.544,-0.819,1.314,-1.894,-1.083,0.158
472.0,-9.544,-0.819,1.314,-1.894,-1.083,0.158
476.0,-9.544,-0.819,1.314,-1.894,-1.083,0.158
480.0,-9.351,-0.861,0.961,-1.734,-1.057,0.23
484.0,-9.351,-0.861,0.961,-1.734,-1.057,0.23
488.0,-9.348,-0.829,0.723,-1.572,-1.011,0.298
491.0,-9.348,-0.829,0.723,-1.572,-1.011,0.298
495.0,-9.348,-0.829,0.723,-1.572,-1.011,0.298
499.0,-9.537,-0.7,0.632,-1.431,-0.965,0.362
503.0,-9.537,-0.7,0.632,-1.431,-0.965,0.362
507.0,-9.923,-0.473,0.688,-1.326,-0.918,0.415
511.0,-9.923,-0.473,0.688,-1.326,-0.918,0.415
515.0,-9.923,-0.473,0.688,-1.326,-0.918,0.415
519.0,-10.295,-0.204,0.903,-1.262,-0.884,0.46
523.0,-10.295,-0.204,0.903,-1.262,-0.884,0.46
527.0,-10.42,-0.056,1.04,-1.234,-0.876,0.496
531.0,-10.42,-0.056,1.04,-1.234,-0.876,0.496
535.0,-10.42,-0.056,1.04,-1.234,-0.876,0.496
539.0,-10.534,0.045,1.186,-1.237,-0.878,0.505
543.0,-10.534,0.045,1.186,-1.237,-0.878,0.505
547.0,-10.75,0.181,1.436,-1.261,-0.883,0.488
550.0,-10.75,0.181,1.436,-1.261,-0.883,0.488
554.0,-10.75,0.181,1.436,-1.261,-0.883,0.488
558.0,-10.991,0.337,1.783,-1.293,-0.902,0.458
562.0,-10.991,0.337,1.783,-1.293,-0.902,0.458
566.0,-11.272,0.453,2.133,-1.328,-0.949,0.429
570.0,-11.272,0.453,2.133,-1.328,-0.949,0.429
574.0,-11.272,0.453,2.133,-1.328,-0.949,0.429
578.0,-11.769,0.62,2.381,-1.358,-1.023,0.404
582.0,-11.769,0.62,2.381,-1.358,-1.023,0.404
586.0,-12.406,0.796,2.506,-1.387,-1.106,0.395
590.0,-12.406,0.796,2.506,-1.387,-1.106,0.395
593.0,-12.406,0.796,2.506,-1.387,-1.106,0.395
597.0,-12.803,0.949,2.637,-1.422,-1.185,0.407
601.0,-12.803,0.949,2.637,-1.422,-1.185,0.407
605.0,-12.881,1.074,2.743,-1.422,-1.274,0.43
609.0,-12.881,1.074,2.743,-1.464,-1.274,0.43
613.0,-12.881,1.074,2.743,-1.464,-1.274,0.43
617.0,-12.887,1.132,2.852,-1.52,-1.374,0.452
621.0,-12.887,1.132,2.852,-1.52,-1.374,0.452
625.0,-12.881,1.189,3.199,-1.52,-1.374,0.455
629.0,-12.881,1.189,3.199,-1.587,-1.48,0.455
632.0,-12.881,1.189,3.199,-1.587,-1.48,0.455
636.0,-12.851,1.235,3.81,-1.653,-1.61,0.437
640.0,-12.851,1.235,3.81,-1.653,-1.61,0.437
644.0,-12.57,1.283,4.518,-1.653,-1.61,0.437
648.0,-12.57,1.283,4.518,-1.696,-1.792,0.394
652.0,-12.57,1.283,4.518,-1.696,-1.792,0.394
656.0,-12.214,1.235,5.324,-1.69,-2.031,0.32
660.0,-12.214,1.235,5.324,-1.69,-2.031,0.32
664.0,-12.214,1.346,5.879,-1.69,-2.031,0.32
668.0,-12.084,1.346,5.879,-1.619,-2.316,0.226
672.0,-12.084,1.346,5.879,-1.619,-2.316,0.226
675.0,-12.088,1.712,6.076,-1.502,-2.606,0.162
679.0,-12.088,1.712,6.076,-1.502,-2.606,0.162
683.0,-12.088,1.712,6.181,-1.502,-2.606,0.162
687.0,-11.806,2.164,6.181,-1.378,-2.863,0.173
691.0,-11.806,2.164,6.181,-1.378,-2.863,0.173
695.0,-11.304,2.306,6.397,-1.287,-3.089,0.253
699.0,-11.304,2.306,6.397,-1.287,-3.089,0.253
703.0,-11.304,2.306,6.397,-1.287,-3.089,0.253
707.0,-10.84,2.231,6.755,-1.236,-3.288,0.345
711.0,-10.84,2.231,6.755,-1.236,-3.288,0.345
715.0,-10.654,2.154,7.356,-1.213,-3.468,0.413
718.0,-10.654,2.154,7.356,-1.213,-3.468,0.413
722.0,-10.654,2.154,7.356,-1.213,-3.468,0.413
726.0,-10.644,2.069,7.852,-1.216,-3.639,0.463
730.0,-10.644,2.069,7.852,-1.216,-3.639,0.463
734.0,-10.634,1.964,8.3,-1.24,-3.814,0.502
738.0,-10.634,1.964,8.3,-1.24,-3.814,0.502
742.0,-10.634,1.964,8.3,-1.24,-3.814,0.502
746.0,-10.285,1.845,8.621,-1.28,-3.99,0.541
750.0,-10.285,1.845,8.621,-1.28,-3.99,0.541
754.0,-9.875,1.764,8.931,-1.321,-4.127,0.57
757.0,-9.875,1.764,8.931,-1.321,-4.127,0.57
761.0,-9.875,1.764,8.931,-1.321,-4.127,0.57
765.0,-9.463,1.69,9.22,-1.333,-4.248,0.587
769.0,-9.463,1.69,9.22,-1.333,-4.248,0.587
773.0,-9.096,1.521,9.611,-1.333,-4.248,0.6
776.0,-9.096,1.521,9.611,-1.306,-4.369,0.6
780.0,-9.096,1.521,9.611,-1.306,-4.369,0.6
784.0,-8.734,1.16,9.86,-1.233,-4.498,0.6
788.0,-8.734,1.16,9.86,-1.233,-4.498,0.6
792.0,-8.734,1.16,9.871,-1.233,-4.498,0.6
796.0,-8.298,0.727,9.871,-1.114,-4.628,0.571
799.0,-8.298,0.727,9.871,-1.114,-4.628,0.571
803.0,-7.844,0.435,9.793,-0.965,-4.746,0.504
807.0,-7.844,0.435,9.793,-0.965,-4.746,0.504
811.0,-7.844,0.435,9.793,-0.965,-4.746,0.504
815.0,-7.35,0.181,9.907,-0.814,-4.835,0.413
819.0,-7.35,0.181,9.907,-0.814,-4.835,0.413
822.0,-7.692,-0.424,10.353,-0.671,-4.898,0.313
826.0,-7.692,-0.424,10.353,-0.671,-4.898,0.313
830.0,-7.692,-0.424,10.353,-0.671,-4.898,0.313
834.0,-7.589,-0.712,10.705,-0.453,-4.983,0.216
838.0,-7.589,-0.712,10.705,-0.453,-4.983,0.216
842.0,-7.408,-0.983,10.854,-0.211,-4.992,0.119
846.0,-7.408,-0.983,10.854,-0.211,-4.992,0.119
850.0,-7.408,-0.983,10.854,-0.211,-4.992,0.119
854.0,-7.007,-1.229,10.818,0.056,-4.992,0.01
858.0,-7.007,-1.229,10.818,0.056,-4.992,0.01
862.0,-6.399,-1.556,10.8,0.352,-4.992,-0.115
866.0,-6.399,-1.556,10.8,0.352,-4.992,-0.115
870.0,-6.399,-1.556,10.8,0.352,-4.992,-0.115
874.0,-5.736,-1.765,10.923,0.68,-4.992,-0.257
878.0,-5.736,-1.765,10.923,0.68,-4.992,-0.257
882.0,-5.145,-1.765,11.328,1.03,-4.992,-0.395
886.0,-5.145,-1.765,11.328,1.03,-4.992,-0.395
890.0,-5.145,-1.765,11.328,1.03,-4.992,-0.395
894.0,-4.576,-1.608,11.846,1.388,-4.992,-0.521
898.0,-4.576,-1.608,11.846,1.388,-4.992,-0.521
902.0,-4.317,-1.814,12.374,1.731,-4.992,-0.626
906.0,-4.317,-1.814,12.374,1.731,-4.992,-0.626
910.0,-4.317,-1.814,12.374,1.731,-4.992,-0.626
914.0,-4.242,-2.213,12.423,2.048,-4.992,-0.71
918.0,-4.242,-2.213,12.423,2.048,-4.992,-0.71
922.0,-3.886,-2.492,12.218,2.35,-4.992,-0.781
926.0,-3.886,-2.492,12.218,2.35,-4.992,-0.781
930.0,-3.886,-2.492,11.752,2.35,-4.992,-0.781
934.0,-3.086,-2.367,11.752,2.65,-4.992,-0.855
938.0,-3.086,-2.367,11.752,2.65,-4.992,-0.855
942.0,-1.924,-1.836,11.381,2.923,-4.992,-0.934
946.0,-1.924,-1.836,11.381,2.923,-4.992,-0.934
950.0,-1.924,-0.911,11.408,2.923,-4.992,-0.934
954.0,-0.826,-0.911,11.408,3.165,-4.992,-1.044
958.0,-0.826,-0.911,11.408,3.165,-4.992,-1.044
962.0,-0.197,-0.138,11.623,3.376,-4.948,-1.169
966.0,-0.197,-0.138,11.623,3.376,-4.948,-1.169
970.0,0.298,0.317,11.812,3.376,-4.948,-1.169
974.0,0.298,0.317,11.812,3.527,-4.761,-1.278
978.0,0.298,0.317,11.812,3.527,-4.761,-1.278
981.0,0.156,0.27,12.15,3.614,-4.525,-1.355
985.0,0.156,0.27,12.15,3.614,-4.525,-1.355
989.0,0.156,0.27,12.15,3.614,-4.525,-1.355
993.0,-0.167,0.324,12.662,3.665,-4.374,-1.39
997.0,-0.167,0.324,12.662,3.665,-4.374,-1.39
1001.0,-0.678,0.374,12.616,3.656,-4.245,-1.401
1005.0,-0.678,0.374,12.616,3.656,-4.245,-1.401
1009.0,-0.678,0.374,12.616,3.656,-4.245,-1.401
1013.0,-0.431,0.41,12.272,3.596,-4.139,-1.405
1017.0,-0.431,0.41,12.272,3.596,-4.139,-1.405
1021.0,0.45,0.885,11.692,3.476,-4.018,-1.446
1024.0,0.45,0.885,11.692,3.476,-4.018,-1.446
1028.0,0.45,0.885,11.692,3.476,-4.018,-1.446
1032.0,1.303,1.517,10.944,3.312,-3.863,-1.52
1036.0,1.303,1.517,10.944,3.312,-3.863,-1.52
1040.0,2.203,1.934,10.466,3.117,-3.683,-1.629
1044.0,2.203,1.934,10.466,3.117,-3.683,-1.629
1048.0,2.203,1.934,10.466,3.117,-3.683,-1.629
1052.0,2.901,2.497,10.128,2.913,-3.498,-1.769
1056.0,2.901,2.497,10.128,2.913,-3.498,-1.769
1060.0,3.369,2.643,9.984,2.72,-3.318,-1.924
1063.0,3.369,2.643,9.984,2.72,-3.318,-1.924
1067.0,3.369,2.643,9.984,2.72,-3.318,-1.924
1071.0,3.301,2.452,10.389,2.559,-3.165,-2.062
1075.0,3.301,2.452,10.389,2.559,-3.165,-2.062
1079.0,3.183,1.988,10.461,2.559,-3.046,-2.151
1083.0,3.183,1.988,10.461,2.435,-3.046,-2.151
1087.0,3.183,1.988,10.461,2.435,-3.046,-2.151
1091.0,3.151,1.58,10.219,2.338,-2.952,-2.188
1095.0,3.151,1.58,10.219,2.338,-2.952,-2.188
1098.0,3.72,1.417,9.529,2.338,-2.952,-2.174
1102.0,3.72,1.417,9.529,2.25,-2.862,-2.174
1106.0,3.72,1.417,9.529,2.25,-2.862,-2.174
1110.0,4.739,1.64,8.968,2.18,-2.721,-2.171
1114.0,4.739,1.64,8.968,2.18,-2.721,-2.171
1118.0,4.739,1.64,8.958,2.18,-2.721,-2.171
1121.0,5.42,2.267,8.958,2.172,-2.518,-2.202
1125.0,5.42,2.267,8.958,2.172,-2.518,-2.202
1129.0,5.49,2.946,9.447,2.245,-2.282,-2.224
1133.0,5.49,2.946,9.447,2.245,-2.282,-2.224
1137.0,5.49,2.946,9.447,2.245,-2.282,-2.224
1140.0,5.238,3.669,9.88,2.376,-2.054,-2.181
1144.0,5.238,3.669,9.88,2.376,-2.054,-2.181
1148.0,4.793,4.425,10.294,2.549,-1.845,-2.057
1152.0,4.793,4.425,10.294,2.549,-1.845,-2.057
1156.0,4.793,4.425,10.294,2.549,-1.845,-2.057
1160.0,4.628,5.356,9.988,2.752,-1.702,-1.891
1164.0,4.628,5.356,9.988,2.752,-1.702,-1.891
1167.0,4.981,6.609,9.394,2.752,-1.702,-1.709
1171.0,4.981,6.609,9.394,2.915,-1.573,-1.709
1175.0,4.981,6.609,9.394,2.915,-1.573,-1.709
1179.0,5.349,8.267,8.79,3.036,-1.407,-1.537
1183.0,5.349,8.267,8.79,3.036,-1.407,-1.537
1187.0,5.349,8.267,7.736,3.036,-1.407,-1.537
1190.0,5.636,10.101,7.736,3.14,-1.231,-1.332
1194.0,5.636,10.101,7.736,3.14,-1.231,-1.332
1198.0,6.349,11.949,6.437,3.234,-1.029,-1.045
1202.0,6.349,11.949,6.437,3.234,-1.029,-1.045
1206.0,6.349,11.949,6.437,3.234,-1.029,-1.045
1210.0,7.435,13.484,5.271,3.328,-0.793,-0.73
1214.0,7.435,13.484,5.271,3.328,-0.793,-0.73
1218.0,8.316,14.655,4.603,3.412,-0.533,-0.444
1222.0,8.316,14.655,4.603,3.412,-0.533,-0.444
1226.0,8.316,14.655,4.603,3.412,-0.533,-0.444
1229.0,8.699,15.41,4.231,3.475,-0.264,-0.173
1233.0,8.699,15.41,4.231,3.475,-0.264,-0.173
1237.0,8.959,16.155,3.346,3.516,-0.006,0.118
1241.0,8.959,16.155,3.346,3.516,-0.006,0.118
1245.0,8.959,16.155,3.346,3.516,-0.006,0.118
1249.0,9.522,16.591,1.768,3.533,0.263,0.435
1252.0,9.522,16.591,1.768,3.533,0.263,0.435
1256.0,10.458,16.971,-0.348,3.533,0.263,0.435
1260.0,10.458,16.971,-0.348,3.542,0.621,0.751
1264.0,10.458,16.971,-0.348,3.542,0.621,0.751
1268.0,11.754,17.876,-3.13,3.546,1.079,1.072
1272.0,11.754,17.876,-3.13,3.546,1.079,1.072
1276.0,11.754,18.73,-6.27,3.546,1.079,1.072
1280.0,13.136,18.73,-6.27,3.552,1.667,1.484
1284.0,13.136,18.73,-6.27,3.552,1.667,1.484
1287.0,14.743,19.279,-9.367,3.553,2.417,2.011
1291.0,14.743,19.279,-9.367,3.553,2.417,2.011
1295.0,14.743,19.279,-11.032,3.553,2.417,2.011
1299.0,15.902,19.592,-11.032,3.532,3.308,2.6
1303.0,15.902,19.592,-11.032,3.532,3.308,2.6
1307.0,15.576,19.596,-10.391,3.428,4.242,3.242
1311.0,15.576,19.596,-10.391,3.428,4.242,3.242
1315.0,13.739,19.593,-8.899,3.428,4.242,3.242
1319.0,13.739,19.593,-8.899,3.233,4.918,3.951
1323.0,13.739,19.593,-8.899,3.233,4.918,3.951
1327.0,9.603,18.908,-6.139,2.962,5.015,4.663
1331.0,9.603,18.908,-6.139,2.962,5.015,4.663
1335.0,9.603,18.908,-6.139,2.962,5.015,4.663
1338.0,4.067,16.895,-3.472,2.622,5.015,5.001
1342.0,4.067,16.895,-3.472,2.622,5.015,5.001
1346.0,-1.241,14.319,-1.61,2.209,5.015,5.013
1350.0,-1.241,14.319,-1.61,2.209,5.015,5.013
1354.0,-1.241,14.319,-1.61,2.209,5.015,5.013
1358.0,-6.177,12.021,-0.668,1.656,5.015,5.013
1362.0,-6.177,12.021,-0.668,1.656,5.015,5.013
1366.0,-11.963,10.114,0.01,0.84,5.015,5.013
1369.0,-11.963,10.114,0.01,0.84,5.015,5.013
1373.0,-11.963,10.114,0.01,0.84,5.015,5.013
1377.0,-18.812,8.784,-1.323,-0.337,5.015,5.013
1381.0,-18.812,8.784,-1.323,-0.337,5.015,5.013
1385.0,-19.6,4.309,-2.203,-1.791,5.015,5.013
1389.0,-19.6,4.309,-2.203,-1.791,5.015,5.013
1393.0,-19.6,4.309,-2.203,-1.791,5.015,5.013
1397.0,-19.6,-3.627,2.194,-3.038,4.958,5.013
1401.0,-19.6,-3.627,2.194,-3.038,4.958,5.013
1405.0,-19.6,-8.768,6.276,-3.823,3.842,4.946
1409.0,-19.6,-8.768,6.276,-3.823,3.842,4.946
1413.0,-19.6,-8.768,6.276,-3.823,3.842,4.946
1417.0,-19.6,-12.092,4.766,-4.407,1.956,4.134
1421.0,-19.6,-12.092,4.766,-4.407,1.956,4.134
1425.0,-19.062,-14.433,3.173,-4.802,0.507,2.681
1429.0,-19.062,-14.433,3.173,-4.802,0.507,2.681
1434.0,-19.062,-15.772,3.488,-4.802,0.507,2.681
1438.0,-15.246,-15.772,3.488,-4.882,-0.562,1.076
1442.0,-15.246,-15.772,3.488,-4.882,-0.562,1.076
1446.0,-12.208,-16.229,4.117,-4.524,-1.42,-0.392
1450.0,-12.208,-16.229,4.117,-4.524,-1.42,-0.392
1454.0,-9.065,-16.161,3.165,-3.713,-2.068,-1.534
1459.0,-9.065,-16.161,3.165,-3.713,-2.068,-1.534
1463.0,-9.065,-16.161,3.165,-3.713,-2.068,-1.534
1467.0,-6.173,-16.149,2.413,-2.653,-2.366,-2.321
1471.0,-6.173,-16.149,2.413,-2.653,-2.366,-2.321
1475.0,-4.574,-15.961,2.012,-1.566,-2.431,-2.82
1479.0,-4.574,-15.961,2.012,-1.566,-2.431,-2.82
1484.0,-3.907,-14.88,1.612,-1.566,-2.461,-3.157
1488.0,-3.907,-14.88,1.612,-0.564,-2.461,-3.157
1492.0,-3.907,-14.88,1.612,-0.564,-2.461,-3.157
1496.0,-3.678,-12.829,1.331,0.284,-2.537,-3.403
1500.0,-3.678,-12.829,1.331,0.284,-2.537,-3.403
1504.0,-3.634,-10.765,1.135,0.906,-2.655,-3.571
1508.0,-3.634,-10.765,1.135,0.906,-2.655,-3.571
1512.0,-3.634,-10.765,1.286,0.906,-2.655,-3.571
1517.0,-3.374,-8.709,1.286,1.306,-2.77,-3.689
1520.0,-3.374,-8.709,1.286,1.306,-2.77,-3.689
1524.0,-2.359,-6.449,1.272,1.526,-2.841,-3.761
1528.0,-2.359,-6.449,1.272,1.526,-2.841,-3.761
1532.0,-0.578,-4.37,1.559,1.526,-2.841,-3.761
1536.0,-0.578,-4.37,1.559,1.608,-2.84,-3.805
1540.0,-0.578,-4.37,1.559,1.608,-2.84,-3.805
1544.0,1.339,-2.856,2.491,1.613,-2.809,-3.847
1548.0,1.339,-2.856,2.491,1.613,-2.809,-3.847
1552.0,3.07,-1.785,3.574,1.613,-2.809,-3.847
1556.0,3.07,-1.785,3.574,1.593,-2.831,-3.917
1560.0,3.07,-1.785,3.574,1.593,-2.831,-3.917
1564.0,4.332,-0.502,4.034,1.583,-2.899,-4.014
1568.0,4.332,-0.502,4.034,1.583,-2.899,-4.014
1572.0,4.332,0.655,4.013,1.583,-2.899,-4.014
1576.0,5.124,0.655,4.013,1.577,-2.978,-4.062
1579.0,5.124,0.655,4.013,1.577,-2.978,-4.062
1583.0,5.935,1.738,3.464,1.557,-3.035,-4.044
1587.0,5.935,1.738,3.464,1.557,-3.035,-4.044
1591.0,5.935,1.738,3.464,1.557,-3.035,-4.044
1595.0,7.031,2.825,3.123,1.543,-3.054,-4.01
1599.0,7.031,2.825,3.123,1.543,-3.054,-4.01
1602.0,8.347,4.631,2.544,1.543,-3.063,-4.003
1606.0,8.347,4.631,2.544,1.543,-3.063,-4.003
1610.0,8.347,4.631,2.544,1.543,-3.063,-4.003
1614.0,9.5,7.015,1.962,1.551,-3.056,-3.966
1618.0,9.5,7.015,1.962,1.551,-3.056,-3.966
1621.0,10.229,9.14,1.529,1.551,-3.056,-3.844
1625.0,10.229,9.14,1.529,1.543,-3.024,-3.844
1629.0,10.229,9.14,1.529,1.543,-3.024,-3.844
1633.0,11.088,10.911,1.383,1.477,-2.979,-3.655
1637.0,11.088,10.911,1.383,1.477,-2.979,-3.655
1641.0,12.248,13.038,0.995,1.477,-2.979,-3.655
1645.0,12.248,13.038,0.995,1.384,-2.94,-3.472
1649.0,12.248,13.038,0.995,1.384,-2.94,-3.472
1653.0,13.287,14.932,0.561,1.306,-2.945,-3.279
1657.0,13.287,14.932,0.561,1.306,-2.945,-3.279
1661.0,15.142,16.824,-0.62,1.306,-2.985,-3.056
1665.0,15.142,16.824,-0.62,1.238,-2.985,-3.056
1669.0,15.142,16.824,-0.62,1.238,-2.985,-3.056
1673.0,17.2,18.42,-2.319,1.199,-2.951,-2.765
1677.0,17.2,18.42,-2.319,1.199,-2.951,-2.765
1682.0,19.115,19.478,-3.973,1.216,-2.821,-2.413
1686.0,19.115,19.478,-3.973,1.216,-2.821,-2.413
1690.0,19.115,19.478,-3.973,1.216,-2.821,-2.413
1694.0,19.595,19.596,-6.02,1.343,-2.538,-2.023
1698.0,19.595,19.596,-6.02,1.343,-2.538,-2.023
1702.0,19.421,19.596,-7.307,1.592,-2.104,-1.564
1706.0,19.421,19.596,-7.307,1.592,-2.104,-1.564
1710.0,17.955,19.596,-7.677,1.592,-2.104,-1.564
1714.0,17.955,19.596,-7.677,1.909,-1.606,-1.051
1718.0,17.955,19.596,-7.677,1.909,-1.606,-1.051
1722.0,16.931,19.596,-8.744,2.214,-1.114,-0.518
1726.0,16.931,19.596,-8.744,2.214,-1.114,-0.518
1730.0,16.73,19.596,-9.206,2.432,-0.581,-0.002
1735.0,16.73,19.596,-9.206,2.432,-0.581,-0.002
1739.0,16.73,19.596,-9.206,2.432,-0.581,-0.002
1743.0,16.958,19.596,-8.781,2.531,-0.063,0.423
1747.0,16.958,19.596,-8.781,2.531,-0.063,0.423
1751.0,17.141,19.596,-7.998,2.51,0.394,0.767
1755.0,17.141,19.596,-7.998,2.51,0.394,0.767
1759.0,17.141,19.596,-7.998,2.51,0.394,0.767
1762.0,17.308,19.596,-8.171,2.389,0.82,1.052
1766.0,17.308,19.596,-8.171,2.389,0.82,1.052
1770.0,17.667,19.596,-9.526,2.178,1.276,1.299
1774.0,17.667,19.596,-9.526,2.178,1.276,1.299
1778.0,17.667,19.596,-9.526,2.178,1.276,1.299
1782.0,18.672,19.596,-12.471,1.864,1.854,1.537
1786.0,18.672,19.596,-12.471,1.864,1.854,1.537
1790.0,19.558,19.596,-15.299,1.451,2.652,1.795
1794.0,19.558,19.596,-15.299,1.451,2.652,1.795
1798.0,19.558,19.596,-15.299,1.451,2.652,1.795
1802.0,19.584,19.596,-16.306,1.019,3.635,2.1
1806.0,19.584,19.596,-16.306,1.019,3.635,2.1
1810.0,18.134,19.596,-14.2,0.665,4.615,2.467
1814.0,18.134,19.596,-14.2,0.665,4.615,2.467
1818.0,18.134,19.596,-14.2,0.665,4.615,2.467
1822.0,14.462,19.596,-10.698,0.409,5.008,2.89
1826.0,14.462,19.596,-10.698,0.409,5.008,2.89
1830.0,9.629,19.596,-7.246,0.284,5.015,3.411
1834.0,9.629,19.596,-7.246,0.284,5.015,3.411
1838.0,9.629,19.596,-7.246,0.284,5.015,3.411
1841.0,4.621,19.21,-4.618,0.254,5.015,4.033
1845.0,4.621,19.21,-4.618,0.254,5.015,4.033
1849.0,0.534,17.647,-3.331,0.235,5.015,4.65
1853.0,0.534,17.647,-3.331,0.235,5.015,4.65
1857.0,0.534,17.647,-3.331,0.235,5.015,4.65
1860.0,-2.998,15.824,-2.118,0.136,5.015,4.99
1864.0,-2.998,15.824,-2.118,0.136,5.015,4.99
1868.0,-7.257,13.861,-0.406,0.136,5.015,5.013
1872.0,-7.257,13.861,-0.406,-0.152,5.015,5.013
1876.0,-7.257,13.861,-0.406,-0.152,5.015,5.013
1880.0,-12.848,11.96,1.892,-0.739,5.015,5.013
1884.0,-12.848,11.96,1.892,-0.739,5.015,5.013
1888.0,-18.763,10.682,2.803,-0.739,5.015,5.013
1892.0,-18.763,10.682,2.803,-1.659,5.015,5.013
1896.0,-18.763,10.682,2.803,-1.659,5.015,5.013
1900.0,-19.6,6.785,3.361,-2.839,4.979,5.013
1904.0,-19.6,6.785,3.361,-2.839,4.979,5.013
1908.0,-19.6,-0.287,4.679,-2.839,4.057,4.978
1912.0,-19.6,-0.287,4.679,-3.988,4.057,4.978
1916.0,-19.6,-0.287,4.679,-3.988,4.057,4.978
1920.0,-19.491,-5.527,5.742,-4.764,2.148,4.282
1924.0,-19.491,-5.527,5.742,-4.764,2.148,4.282
1928.0,-12.873,-7.347,3.86,-5.009,0.597,2.965
1932.0,-12.873,-7.347,3.86,-5.009,0.597,2.965
1936.0,-12.873,-7.347,3.86,-5.009,0.597,2.965
1940.0,-6.149,-8.279,2.263,-5.013,-0.161,1.656
1944.0,-6.149,-8.279,2.263,-5.013,-0.161,1.656
1948.0,-2.844,-9.24,3.044,-5.013,-0.545,0.447
1952.0,-2.844,-9.24,3.044,-5.013,-0.545,0.447
1956.0,-2.844,-9.24,3.044,-5.013,-0.545,0.447
1960.0,-0.78,-9.903,4.407,-4.989,-0.867,-0.634
1964.0,-0.78,-9.903,4.407,-4.989,-0.867,-0.634
1968.0,1.169,-9.953,4.689,-4.467,-1.133,-1.449
1972.0,1.169,-9.953,4.689,-4.467,-1.133,-1.449
1976.0,1.169,-9.953,4.689,-4.467,-1.133,-1.449
1980.0,3.731,-9.49,3.41,-3.325,-1.196,-1.839
1984.0,3.731,-9.49,3.41,-3.325,-1.196,-1.839
1988.0,6.401,-8.77,2.16,-2.012,-0.995,-1.839
1992.0,6.401,-8.77,2.16,-2.012,-0.995,-1.839
1996.0,6.401,-8.77,1.598,-2.012,-0.995,-1.839
2000.0,8.473,-7.709,1.598,-0.677,-0.688,-1.642
2004.0,8.473,-7.709,1.598,-0.677,-0.688,-1.642
2008.0,9.674,-5.706,1.539,0.563,-0.406,-1.401
2012.0,9.674,-5.706,1.539,0.563,-0.406,-1.401
2016.0,9.674,-5.706,1.522,0.563,-0.406,-1.401
2020.0,9.423,-2.864,1.522,1.578,-0.18,-1.127
2024.0,9.423,-2.864,1.522,1.578,-0.18,-1.127
2027.0,8.654,-0.111,1.301,2.29,-0.019,-0.762
2031.0,8.654,-0.111,1.301,2.29,-0.019,-0.762
2035.0,8.654,-0.111,1.301,2.29,-0.019,-0.762
2039.0,8.056,1.671,1.213,2.703,0.129,-0.322
2043.0,8.056,1.671,1.213,2.703,0.129,-0.322
2047.0,7.628,2.45,1.271,2.876,0.257,0.083
2050.0,7.628,2.45,1.271,2.876,0.257,0.083
2054.0,7.628,2.45,1.271,2.876,0.257,0.083
2058.0,7.14,3.103,1.228,2.847,0.366,0.369
2061.0,7.14,3.103,1.228,2.847,0.366,0.369
2065.0,7.14,3.103,1.228,2.847,0.366,0.369
2068.0,6.532,3.644,1.126,2.631,0.472,0.522
2072.0,6.532,3.644,1.126,2.631,0.472,0.522
2076.0,5.812,4.135,1.085,2.631,0.567,0.544
2079.0,5.812,4.135,1.085,2.251,0.567,0.544
2083.0,5.812,4.135,1.085,2.251,0.567,0.544
2087.0,4.927,4.616,1.236,1.751,0.641,0.461
2090.0,4.927,4.616,1.236,1.751,0.641,0.461
2094.0,4.927,4.616,1.236,1.751,0.641,0.461
2098.0,4.158,4.856,1.454,1.192,0.681,0.323
2101.0,4.158,4.856,1.454,1.192,0.681,0.323
2105.0,3.617,4.751,1.805,1.192,0.681,0.323
2109.0,3.617,4.751,1.805,0.632,0.69,0.168
2112.0,3.617,4.751,1.805,0.632,0.69,0.168
2116.0,3.276,4.376,2.233,0.124,0.668,0.01
2120.0,3.276,4.376,2.233,0.124,0.668,0.01
2123.0,3.276,4.376,2.233,0.124,0.668,0.01
2127.0,3.058,3.819,2.554,-0.297,0.614,-0.15
2131.0,3.058,3.819,2.554,-0.297,0.614,-0.15
2134.0,3.075,3.236,2.702,-0.297,0.614,-0.15
2138.0,3.075,3.236,2.702,-0.621,0.524,-0.305
2142.0,3.075,3.236,2.702,-0.621,0.524,-0.305
2146.0,3.316,2.825,2.628,-0.849,0.418,-0.453
2150.0,3.316,2.825,2.628,-0.849,0.418,-0.453
2154.0,3.316,2.825,2.628,-0.849,0.418,-0.453
2157.0,3.67,2.585,2.402,-0.993,0.321,-0.578
2161.0,3.67,2.585,2.402,-0.993,0.321,-0.578
2165.0,4.083,2.472,2.069,-1.076,0.253,-0.676
2169.0,4.083,2.472,2.069,-1.076,0.253,-0.676
2173.0,4.083,2.472,2.069,-1.076,0.253,-0.676
2176.0,4.36,2.544,1.886,-1.12,0.223,-0.76
2180.0,4.36,2.544,1.886,-1.12,0.223,-0.76
2184.0,4.435,2.526,1.748,-1.12,0.223,-0.837
2188.0,4.435,2.526,1.748,-1.144,0.226,-0.837
2192.0,4.435,2.526,1.748,-1.144,0.226,-0.837
2196.0,4.256,2.479,1.67,-1.168,0.26,-0.921
2199.0,4.256,2.479,1.67,-1.168,0.26,-0.921
2203.0,4.256,2.479,1.645,-1.168,0.26,-0.921
2207.0,3.863,2.428,1.645,-1.197,0.315,-1.014
2211.0,3.863,2.428,1.645,-1.197,0.315,-1.014
2215.0,3.367,2.307,1.577,-1.226,0.383,-1.114
2218.0,3.367,2.307,1.577,-1.226,0.383,-1.114
2222.0,3.367,2.307,1.577,-1.226,0.383,-1.114
2226.0,2.92,2.067,1.468,-1.247,0.457,-1.214
2230.0,2.92,2.067,1.468,-1.247,0.457,-1.214
2234.0,2.517,1.713,1.327,-1.251,0.542,-1.308
2238.0,2.517,1.713,1.327,-1.251,0.542,-1.308
2241.0,2.517,1.713,1.327,-1.251,0.542,-1.308
2245.0,2.128,1.292,1.181,-1.233,0.639,-1.385
2249.0,2.128,1.292,1.181,-1.233,0.639,-1.385
2253.0,1.687,0.966,1.169,-1.233,0.639,-1.385
2257.0,1.687,0.966,1.169,-1.194,0.74,-1.452
2261.0,1.687,0.966,1.169,-1.194,0.74,-1.452
2264.0,1.161,0.747,1.199,-1.137,0.826,-1.5
2268.0,1.161,0.747,1.199,-1.137,0.826,-1.5
2272.0,1.161,0.747,1.199,-1.137,0.826,-1.5
2276.0,0.65,0.534,1.147,-1.077,0.89,-1.516
2280.0,0.65,0.534,1.147,-1.077,0.89,-1.516
2283.0,0.327,0.312,0.966,-1.028,0.95,-1.508
2287.0,0.327,0.312,0.966,-1.028,0.95,-1.508
2291.0,0.327,0.312,0.966,-1.028,0.95,-1.508
2295.0,0.273,0.082,0.82,-0.994,1.032,-1.504
2299.0,0.273,0.082,0.82,-0.994,1.032,-1.504
2303.0,0.441,-0.076,0.813,-0.994,1.032,-1.515
2306.0,0.441,-0.076,0.813,-0.968,1.141,-1.515
2310.0,0.441,-0.076,0.813,-0.968,1.141,-1.515
2314.0,0.721,-0.204,0.9,-0.947,1.266,-1.525
2318.0,0.721,-0.204,0.9,-0.947,1.266,-1.525
2322.0,0.963,-0.279,1.064,-0.947,1.266,-1.525
2326.0,0.963,-0.279,1.064,-0.93,1.403,-1.529
2330.0,0.963,-0.279,1.064,-0.93,1.403,-1.529
2334.0,1.089,-0.19,1.317,-0.915,1.542,-1.527
2338.0,1.089,-0.19,1.317,-0.915,1.542,-1.527
2342.0,1.089,-0.037,1.523,-0.915,1.542,-1.527
2345.0,1.171,-0.037,1.523,-0.899,1.681,-1.513
2349.0,1.171,-0.037,1.523,-0.899,1.681,-1.513
2353.0,1.219,0.166,1.698,-0.886,1.827,-1.476
2357.0,1.219,0.166,1.698,-0.886,1.827,-1.476
2361.0,1.219,0.166,1.698,-0.886,1.827,-1.476
2365.0,1.4,0.358,1.827,-0.879,1.987,-1.417
2369.0,1.4,0.358,1.827,-0.879,1.987,-1.417
2372.0,1.753,0.549,2.168,-0.876,2.178,-1.359
2376.0,1.753,0.549,2.168,-0.876,2.178,-1.359
2380.0,1.753,0.549,2.168,-0.876,2.178,-1.359
2384.0,2.177,0.842,2.845,-0.866,2.381,-1.319
2388.0,2.177,0.842,2.845,-0.866,2.381,-1.319
2391.0,2.577,1.21,3.602,-0.866,2.56,-1.281
2395.0,2.577,1.21,3.602,-0.838,2.56,-1.281
2399.0,2.577,1.21,3.602,-0.838,2.56,-1.281
2403.0,2.978,1.714,4.387,-0.789,2.714,-1.22
2407.0,2.978,1.714,4.387,-0.789,2.714,-1.22
2411.0,2.978,1.714,5.137,-0.789,2.714,-1.22
2414.0,3.266,2.297,5.137,-0.714,2.847,-1.117
2418.0,3.266,2.297,5.137,-0.714,2.847,-1.117
2422.0,3.477,2.789,5.569,-0.621,2.943,-0.955
2426.0,3.477,2.789,5.569,-0.621,2.943,-0.955
2430.0,3.477,2.789,5.569,-0.621,2.943,-0.955
2434.0,3.717,3.197,5.662,-0.528,3.014,-0.751
2437.0,3.717,3.197,5.662,-0.528,3.014,-0.751
2441.0,4.088,3.397,5.407,-0.459,3.09,-0.534
2445.0,4.088,3.397,5.407,-0.459,3.09,-0.534
2449.0,4.088,3.397,5.407,-0.459,3.09,-0.534
2453.0,4.604,3.391,4.701,-0.45,3.216,-0.33
2456.0,4.604,3.391,4.701,-0.45,3.216,-0.33
2460.0,4.99,3.436,4.06,-0.45,3.216,-0.33
2464.0,4.99,3.436,4.06,-0.545,3.444,-0.144
2468.0,4.99,3.436,4.06,-0.545,3.444,-0.144
2472.0,5.099,3.604,3.743,-0.766,3.803,0.053
2475.0,5.099,3.604,3.743,-0.766,3.803,0.053
2479.0,5.099,3.604,3.743,-0.766,3.803,0.053
2483.0,5.048,3.501,3.598,-1.122,4.306,0.306
2487.0,5.048,3.501,3.598,-1.122,4.306,0.306
2490.0,4.235,2.907,4.442,-1.122,4.862,0.598
2494.0,4.235,2.907,4.442,-1.604,4.862,0.598
2498.0,4.235,2.907,4.442,-1.604,4.862,0.598
2502.0,1.945,1.78,6.555,-2.132,5.015,0.844
2505.0,1.945,1.78,6.555,-2.132,5.015,0.844
2509.0,1.945,1.78,6.555,-2.132,5.015,0.844
2513.0,-1.524,-0.007,8.76,-2.6,5.015,0.994
2517.0,-1.524,-0.007,8.76,-2.6,5.015,0.994
2521.0,-5.172,-1.549,10.499,-2.96,5.015,1.045
2525.0,-5.172,-1.549,10.499,-2.96,5.015,1.045
2529.0,-5.172,-1.549,10.499,-2.96,5.015,1.045
2533.0,-8.379,-2.292,11.35,-3.179,5.015,1.051
2537.0,-8.379,-2.292,11.35,-3.179,5.015,1.051
2541.0,-10.943,-2.268,10.876,-3.27,5.015,1.088
2545.0,-10.943,-2.268,10.876,-3.27,5.015,1.088
2549.0,-10.943,-2.268,10.048,-3.27,5.015,1.088
2553.0,-12.224,-2.027,10.048,-3.29,5.015,1.188
2557.0,-12.224,-2.027,10.048,-3.29,5.015,1.188
2561.0,-12.688,-1.887,9.482,-3.281,5.015,1.307
2565.0,-12.688,-1.887,9.482,-3.281,5.015,1.307
2569.0,-13.212,-1.786,9.215,-3.281,5.015,1.307
2573.0,-13.212,-1.786,9.215,-3.222,5.015,1.385
2577.0,-13.212,-1.786,9.215,-3.222,5.015,1.385
2581.0,-14.405,-2.277,8.923,-3.076,5.015,1.409
2585.0,-14.405,-2.277,8.923,-3.076,5.015,1.409
2589.0,-16.493,-2.694,8.192,-3.076,5.015,1.396
2593.0,-16.493,-2.694,8.192,-2.887,5.015,1.396
2597.0,-16.493,-2.694,8.192,-2.887,5.015,1.396
2601.0,-19.087,-2.996,7.123,-2.72,5.015,1.411
2605.0,-19.087,-2.996,7.123,-2.72,5.015,1.411
2609.0,-19.6,-3.332,6.087,-2.589,5.015,1.498
2613.0,-19.6,-3.332,6.087,-2.589,5.015,1.498
2617.0,-19.6,-3.332,6.087,-2.589,5.015,1.498
2621.0,-19.6,-3.68,5.572,-2.52,5.015,1.641
2625.0,-19.6,-3.68,5.572,-2.52,5.015,1.641
2629.0,-19.6,-4.142,5.687,-2.5,5.015,1.796
2633.0,-19.6,-4.142,5.687,-2.5,5.015,1.796
2637.0,-19.6,-4.142,5.687,-2.5,5.015,1.796
2641.0,-19.6,-4.749,6.538,-2.471,5.015,1.929
2645.0,-19.6,-4.749,6.538,-2.471,5.015,1.929
2649.0,-19.6,-5.324,8.107,-2.371,5.015,2.027
2653.0,-19.6,-5.324,8.107,-2.371,5.015,2.027
2657.0,-19.6,-5.324,8.107,-2.371,5.015,2.027
2661.0,-19.6,-5.777,10.042,-2.148,5.015,2.096
2665.0,-19.6,-5.777,10.042,-2.148,5.015,2.096
2669.0,-19.6,-5.721,11.705,-1.751,5.015,2.113
2673.0,-19.6,-5.721,11.705,-1.751,5.015,2.113
2677.0,-19.6,-5.721,11.049,-1.751,5.015,2.113
2681.0,-19.6,-5.2,11.049,-1.183,5.015,2.032
2685.0,-19.6,-5.2,11.049,-1.183,5.015,2.032
2689.0,-19.6,-3.96,8.451,-0.589,4.87,1.791
2693.0,-19.6,-3.96,8.451,-0.589,4.87,1.791
2697.0,-19.6,-2.378,5.823,-0.589,4.87,1.391
2701.0,-19.6,-2.378,5.823,-0.118,4.359,1.391
2705.0,-19.6,-2.378,5.823,-0.118,4.359,1.391
2709.0,-18.525,-0.681,4.181,0.208,4.076,0.876
2713.0,-18.525,-0.681,4.181,0.208,4.076,0.876
2717.0,-16.554,0.463,2.77,0.208,4.076,0.326
2721.0,-16.554,0.463,2.77,0.403,4.002,0.326
2725.0,-16.554,0.463,2.77,0.403,4.002,0.326
2729.0,-15.807,1.218,1.859,0.439,3.972,-0.143
2732.0,-15.807,1.218,1.859,0.439,3.972,-0.143
2736.0,-15.807,1.218,1.877,0.439,3.972,-0.143
2740.0,-15.564,1.725,1.877,0.339,3.931,-0.515
2744.0,-15.564,1.725,1.877,0.339,3.931,-0.515
2748.0,-15.47,1.728,2.439,0.163,3.866,-0.823
2752.0,-15.47,1.728,2.439,0.163,3.866,-0.823
2756.0,-15.47,1.728,3.094,0.163,3.866,-0.823
2760.0,-15.39,1.441,3.094,-0.054,3.779,-1.095
2764.0,-15.39,1.441,3.094,-0.054,3.779,-1.095
2768.0,-15.254,1.001,3.688,-0.294,3.685,-1.34
2772.0,-15.254,1.001,3.688,-0.294,3.685,-1.34
2776.0,-15.254,1.001,4.207,-0.294,3.685,-1.34
2780.0,-15.187,0.588,4.207,-0.543,3.582,-1.547
2784.0,-15.187,0.588,4.207,-0.543,3.582,-1.547
2788.0,-15.111,0.152,4.651,-0.786,3.463,-1.69
2792.0,-15.111,0.152,4.651,-0.786,3.463,-1.69
2796.0,-15.019,-0.203,5.135,-0.786,3.463,-1.69
2800.0,-15.019,-0.203,5.135,-1.006,3.324,-1.762
2804.0,-15.019,-0.203,5.135,-1.006,3.324,-1.762
2808.0,-15.083,-0.301,5.867,-1.184,3.15,-1.756
2812.0,-15.083,-0.301,5.867,-1.184,3.15,-1.756
2816.0,-14.938,-0.437,6.29,-1.31,2.909,-1.647
2820.0,-14.938,-0.437,6.29,-1.31,2.909,-1.647
2824.0,-14.938,-0.437,6.29,-1.31,2.909,-1.647
2828.0,-14.266,-0.423,6.408,-1.403,2.641,-1.463
2832.0,-14.266,-0.423,6.408,-1.403,2.641,-1.463
2837.0,-13.112,-0.377,6.379,-1.482,2.407,-1.226
2841.0,-13.112,-0.377,6.379,-1.482,2.407,-1.226
2845.0,-13.112,-0.377,6.379,-1.482,2.407,-1.226
2849.0,-11.806,-0.516,6.212,-1.554,2.242,-0.965
2853.0,-11.806,-0.516,6.212,-1.554,2.242,-0.965
2857.0,-10.656,-0.809,6.063,-1.609,2.143,-0.719
2861.0,-10.656,-0.809,6.063,-1.609,2.143,-0.719
2865.0,-9.75,-1.089,5.937,-1.609,2.143,-0.519
2869.0,-9.75,-1.089,5.937,-1.619,2.065,-0.519
2873.0,-9.75,-1.089,5.937,-1.619,2.065,-0.519
2877.0,-9.033,-1.3,5.91,-1.57,1.971,-0.368
2881.0,-9.033,-1.3,5.91,-1.57,1.971,-0.368
2885.0,-8.512,-1.487,5.931,-1.57,1.852,-0.266
2889.0,-8.512,-1.487,5.931,-1.46,1.852,-0.266
2893.0,-8.512,-1.487,5.931,-1.46,1.852,-0.266
2897.0,-8.167,-1.64,5.913,-1.285,1.707,-0.205
2901.0,-8.167,-1.64,5.913,-1.285,1.707,-0.205
2905.0,-7.953,-1.72,5.822,-1.051,1.534,-0.168
2909.0,-7.953,-1.72,5.822,-1.051,1.534,-0.168
2913.0,-7.953,-1.72,5.822,-1.051,1.534,-0.168
2917.0,-7.828,-1.68,5.646,-0.775,1.35,-0.129
2921.0,-7.828,-1.68,5.646,-0.775,1.35,-0.129
2925.0,-7.81,-1.644,5.706,-0.483,1.166,-0.073
2929.0,-7.81,-1.644,5.706,-0.483,1.166,-0.073
2933.0,-7.81,-1.644,5.706,-0.483,1.166,-0.073
2937.0,-7.945,-1.647,5.501,-0.17,0.977,0.01
2941.0,-7.945,-1.647,5.501,-0.17,0.977,0.01
2945.0,-8.155,-1.519,5.358,0.148,0.782,0.103
2949.0,-8.155,-1.519,5.358,0.148,0.782,0.103
2952.0,-8.155,-1.519,5.358,0.148,0.782,0.103
2956.0,-8.435,-1.366,5.011,0.438,0.565,0.182
2960.0,-8.435,-1.366,5.011,0.438,0.565,0.182
2964.0,-8.551,-1.237,4.648,0.438,0.565,0.248
2968.0,-8.551,-1.237,4.648,0.693,0.346,0.248
2972.0,-8.551,-1.237,4.648,0.693,0.346,0.248
2975.0,-8.572,-1.046,4.309,0.912,0.137,0.317
2979.0,-8.572,-1.046,4.309,0.912,0.137,0.317
2983.0,-8.572,-1.046,4.028,0.912,0.137,0.317
2987.0,-8.556,-0.898,4.028,1.08,-0.067,0.393
2991.0,-8.556,-0.898,4.028,1.08,-0.067,0.393
2995.0,-8.574,-0.803,3.787,1.192,-0.262,0.478
2999.0,-8.574,-0.803,3.787,1.192,-0.262,0.478
