deltaTime,Acc_X,Acc_Y,Acc_Z,Gyro_X,Gyro_Y,Gyro_Z
0.0,-8.791,-1.066,3.06,1.116,-0.206,0.057
3.0,-8.791,-1.066,3.06,1.116,-0.206,0.057
6.0,-8.791,-1.066,3.06,1.116,-0.206,0.057
9.0,-8.594,-0.873,3.011,0.874,-0.208,0.048
12.0,-8.594,-0.873,3.011,0.874,-0.208,0.048
15.0,-8.594,-0.873,3.011,0.874,-0.208,0.048
18.0,-8.594,-0.873,3.093,0.874,-0.208,0.048
21.0,-8.651,-0.879,3.093,0.592,-0.196,0.026
24.0,-8.651,-0.879,3.093,0.592,-0.196,0.026
27.0,-8.651,-0.879,3.093,0.592,-0.196,0.026
30.0,-8.86,-1.12,3.219,0.322,-0.196,0.009
33.0,-8.86,-1.12,3.219,0.322,-0.196,0.009
36.0,-8.86,-1.12,3.219,0.322,-0.196,0.009
39.0,-9.053,-1.692,3.376,0.105,-0.209,0.009
43.0,-9.053,-1.692,3.376,0.105,-0.209,0.009
47.0,-9.053,-1.692,3.376,0.105,-0.209,0.009
51.0,-9.07,-2.381,3.488,-0.02,-0.221,0.018
54.0,-9.07,-2.381,3.488,-0.02,-0.221,0.018
58.0,-8.981,-2.992,3.526,-0.04,-0.227,0.024
62.0,-8.981,-2.992,3.526,-0.04,-0.227,0.024
66.0,-8.981,-2.992,3.526,-0.04,-0.227,0.024
70.0,-8.882,-3.441,3.45,0.022,-0.218,0.033
73.0,-8.882,-3.441,3.45,0.022,-0.218,0.033
77.0,-8.774,-3.934,3.38,0.022,-0.218,0.033
81.0,-8.774,-3.934,3.38,0.142,-0.181,0.061
85.0,-8.774,-3.934,3.38,0.142,-0.181,0.061
88.0,-8.846,-4.506,3.407,0.333,-0.124,0.119
92.0,-8.846,-4.506,3.407,0.333,-0.124,0.119
96.0,-8.846,-4.506,3.407,0.333,-0.124,0.119
99.0,-9.168,-5.133,3.658,0.586,-0.082,0.179
103.0,-9.168,-5.133,3.658,0.586,-0.082,0.179
107.0,-9.326,-5.845,4.114,0.586,-0.082,0.208
111.0,-9.326,-5.845,4.114,0.915,-0.084,0.208
115.0,-9.326,-5.845,4.114,0.915,-0.084,0.208
118.0,-8.769,-5.871,4.439,1.326,-0.123,0.194
122.0,-8.769,-5.871,4.439,1.326,-0.123,0.194
126.0,-8.769,-5.871,4.537,1.326,-0.123,0.194
130.0,-8.518,-5.099,4.537,1.71,-0.123,0.121
134.0,-8.518,-5.099,4.537,1.71,-0.123,0.121
138.0,-8.614,-4.239,4.53,2.0,-0.161,0.018
141.0,-8.614,-4.239,4.53,2.0,-0.161,0.018
145.0,-8.614,-4.239,4.53,2.0,-0.161,0.018
149.0,-8.892,-3.531,4.259,2.192,-0.149,-0.059
153.0,-8.892,-3.531,4.259,2.192,-0.149,-0.059
157.0,-8.631,-2.333,3.54,2.329,-0.148,-0.104
161.0,-8.631,-2.333,3.54,2.329,-0.148,-0.104
165.0,-8.631,-2.333,3.54,2.329,-0.148,-0.104
169.0,-8.758,-1.134,2.92,2.293,-0.134,-0.135
172.0,-8.758,-1.134,2.92,2.293,-0.134,-0.135
176.0,-9.449,-1.393,3.261,2.119,-0.081,-0.132
180.0,-9.449,-1.393,3.261,2.119,-0.081,-0.132
184.0,-9.449,-1.393,3.261,2.119,-0.081,-0.132
188.0,-9.916,-1.249,3.395,2.014,0.028,-0.085
192.0,-9.916,-1.249,3.395,2.014,0.028,-0.085
196.0,-8.56,1.924,2.379,2.014,0.028,-0.122
199.0,-8.56,1.924,2.379,1.791,0.032,-0.122
203.0,-8.56,1.924,2.379,1.791,0.032,-0.122
207.0,-8.692,2.302,2.682,1.105,0.01,-0.233
211.0,-8.692,2.302,2.682,1.105,0.01,-0.233
214.0,-8.692,2.302,2.682,1.105,0.01,-0.233
218.0,-9.353,0.882,3.706,0.468,-0.038,-0.255
222.0,-9.353,0.882,3.706,0.468,-0.038,-0.255
226.0,-9.557,-0.69,4.605,0.142,-0.059,-0.206
230.0,-9.557,-0.69,4.605,0.142,-0.059,-0.206
234.0,-9.557,-0.69,4.605,0.142,-0.059,-0.206
238.0,-9.248,-2.327,5.142,0.15,-0.081,-0.137
241.0,-9.248,-2.327,5.142,0.15,-0.081,-0.137
245.0,-8.739,-3.093,5.371,0.15,-0.092,-0.063
249.0,-8.739,-3.093,5.371,0.455,-0.092,-0.063
253.0,-8.739,-3.093,5.371,0.455,-0.092,-0.063
257.0,-8.398,-2.779,5.415,0.871,-0.047,-0.006
261.0,-8.398,-2.779,5.415,0.871,-0.047,-0.006
265.0,-8.455,-1.823,5.333,0.871,-0.047,0.016
269.0,-8.455,-1.823,5.333,1.215,0.007,0.016
272.0,-8.455,-1.823,5.333,1.215,0.007,0.016
276.0,-8.691,-1.068,5.23,1.389,0.041,0.005
280.0,-8.691,-1.068,5.23,1.389,0.041,0.005
284.0,-8.691,-1.068,5.23,1.389,0.041,0.005
287.0,-9.041,-0.447,5.064,1.435,0.061,-0.017
291.0,-9.041,-0.447,5.064,1.435,0.061,-0.017
295.0,-9.135,0.444,4.943,1.372,0.084,-0.046
299.0,-9.135,0.444,4.943,1.372,0.084,-0.046
302.0,-9.135,0.444,4.943,1.372,0.084,-0.046
306.0,-9.202,0.715,5.055,1.193,0.106,-0.068
310.0,-9.202,0.715,5.055,1.193,0.106,-0.068
314.0,-9.202,0.715,5.097,1.193,0.106,-0.068
317.0,-9.278,0.576,5.097,1.03,0.105,-0.047
321.0,-9.278,0.576,5.097,1.03,0.105,-0.047
325.0,-9.173,0.707,4.854,0.891,0.08,-0.028
329.0,-9.173,0.707,4.854,0.891,0.08,-0.028
332.0,-9.173,0.707,4.854,0.891,0.08,-0.028
336.0,-8.911,0.794,4.479,0.721,0.04,-0.014
340.0,-8.911,0.794,4.479,0.721,0.04,-0.014
343.0,-8.911,1.036,4.123,0.721,0.04,-0.014
347.0,-8.605,1.036,4.123,0.499,0.012,-0.005
351.0,-8.605,1.036,4.123,0.499,0.012,-0.005
355.0,-8.233,1.458,3.874,0.197,0.021,-0.008
358.0,-8.233,1.458,3.874,0.197,0.021,-0.008
362.0,-8.233,1.458,3.874,0.197,0.021,-0.008
366.0,-8.002,2.181,3.673,-0.225,0.054,-0.031
370.0,-8.002,2.181,3.673,-0.225,0.054,-0.031
374.0,-8.209,2.321,3.673,-0.225,0.054,-0.061
377.0,-8.209,2.321,3.673,-0.775,0.077,-0.061
381.0,-8.209,2.321,3.673,-0.775,0.077,-0.061
385.0,-8.618,2.221,3.685,-1.358,0.086,-0.077
389.0,-8.618,2.221,3.685,-1.358,0.086,-0.077
393.0,-8.618,2.221,3.948,-1.358,0.086,-0.077
396.0,-9.569,0.515,3.948,-1.872,0.041,-0.062
400.0,-9.569,0.515,3.948,-1.872,0.041,-0.062
404.0,-9.744,-0.764,4.07,-2.126,-0.037,-0.001
408.0,-9.744,-0.764,4.07,-2.126,-0.037,-0.001
412.0,-9.744,-0.764,4.07,-2.126,-0.037,-0.001
416.0,-9.534,-1.464,4.055,-2.202,-0.106,0.046
420.0,-9.534,-1.464,4.055,-2.202,-0.106,0.046
424.0,-9.25,-2.084,4.065,-2.206,-0.157,0.067
428.0,-9.25,-2.084,4.065,-2.206,-0.157,0.067
432.0,-9.25,-2.084,4.065,-2.206,-0.157,0.067
436.0,-9.113,-2.545,4.049,-2.152,-0.2,0.068
439.0,-9.113,-2.545,4.049,-2.152,-0.2,0.068
443.0,-9.076,-2.864,4.03,-2.054,-0.237,0.054
447.0,-9.076,-2.864,4.03,-2.054,-0.237,0.054
451.0,-9.076,-2.864,4.03,-2.054,-0.237,0.054
455.0,-9.045,-3.104,4.08,-1.924,-0.275,0.028
459.0,-9.045,-3.104,4.08,-1.924,-0.275,0.028
463.0,-8.974,-3.311,4.135,-1.765,-0.322,-0.015
467.0,-8.974,-3.311,4.135,-1.765,-0.322,-0.015
471.0,-8.974,-3.311,4.135,-1.765,-0.322,-0.015
475.0,-8.776,-3.397,4.223,-1.581,-0.362,-0.083
479.0,-8.776,-3.397,4.223,-1.581,-0.362,-0.083
483.0,-8.692,-3.43,4.58,-1.378,-0.39,-0.168
487.0,-8.692,-3.43,4.58,-1.378,-0.39,-0.168
491.0,-8.692,-3.43,4.58,-1.378,-0.39,-0.168
495.0,-8.897,-3.513,5.127,-1.163,-0.416,-0.257
499.0,-8.897,-3.513,5.127,-1.163,-0.416,-0.257
503.0,-9.266,-3.428,5.685,-0.931,-0.456,-0.334
507.0,-9.266,-3.428,5.685,-0.931,-0.456,-0.334
511.0,-9.266,-3.428,5.685,-0.931,-0.456,-0.334
515.0,-9.817,-3.212,6.236,-0.696,-0.509,-0.367
519.0,-9.817,-3.212,6.236,-0.696,-0.509,-0.367
523.0,-10.382,-3.077,6.815,-0.49,-0.584,-0.338
527.0,-10.382,-3.077,6.815,-0.49,-0.584,-0.338
531.0,-10.382,-3.102,7.26,-0.49,-0.584,-0.338
535.0,-10.764,-3.102,7.26,-0.331,-0.696,-0.267
539.0,-10.764,-3.102,7.26,-0.331,-0.696,-0.267
543.0,-10.688,-3.257,7.619,-0.228,-0.837,-0.202
547.0,-10.688,-3.257,7.619,-0.228,-0.837,-0.202
551.0,-10.209,-3.501,8.048,-0.228,-0.989,-0.196
555.0,-10.209,-3.501,8.048,-0.166,-0.989,-0.196
560.0,-10.209,-3.501,8.048,-0.166,-0.989,-0.196
564.0,-9.73,-3.642,8.53,-0.119,-1.145,-0.275
568.0,-9.73,-3.642,8.53,-0.119,-1.145,-0.275
572.0,-9.567,-3.619,9.074,-0.057,-1.301,-0.416
576.0,-9.567,-3.619,9.074,-0.057,-1.301,-0.416
580.0,-9.567,-3.619,9.074,-0.057,-1.301,-0.416
584.0,-9.897,-3.312,9.843,0.029,-1.47,-0.564
587.0,-9.897,-3.312,9.843,0.029,-1.47,-0.564
591.0,-10.531,-2.919,10.578,0.13,-1.68,-0.653
595.0,-10.531,-2.919,10.578,0.13,-1.68,-0.653
600.0,-10.531,-2.919,10.578,0.13,-1.68,-0.653
604.0,-10.988,-2.681,11.043,0.229,-1.934,-0.669
608.0,-10.988,-2.681,11.043,0.229,-1.934,-0.669
612.0,-10.963,-2.642,11.398,0.321,-2.198,-0.647
616.0,-10.963,-2.642,11.398,0.321,-2.198,-0.647
620.0,-10.791,-2.649,11.763,0.321,-2.198,-0.647
624.0,-10.791,-2.649,11.763,0.405,-2.45,-0.631
628.0,-10.791,-2.649,11.763,0.405,-2.45,-0.631
632.0,-10.762,-2.701,12.078,0.47,-2.691,-0.632
636.0,-10.762,-2.701,12.078,0.47,-2.691,-0.632
640.0,-10.831,-2.749,12.351,0.507,-2.93,-0.634
644.0,-10.831,-2.749,12.351,0.507,-2.93,-0.634
649.0,-10.831,-2.749,12.351,0.507,-2.93,-0.634
653.0,-10.711,-2.804,12.628,0.519,-3.164,-0.624
657.0,-10.711,-2.804,12.628,0.519,-3.164,-0.624
661.0,-10.449,-2.901,12.858,0.518,-3.384,-0.608
665.0,-10.449,-2.901,12.858,0.518,-3.384,-0.608
669.0,-10.449,-2.901,13.038,0.518,-3.384,-0.608
673.0,-10.182,-3.039,13.038,0.529,-3.585,-0.601
677.0,-10.182,-3.039,13.038,0.529,-3.585,-0.601
681.0,-9.903,-3.123,13.153,0.563,-3.778,-0.612
685.0,-9.903,-3.123,13.153,0.563,-3.778,-0.612
689.0,-9.618,-3.182,13.219,0.563,-3.778,-0.612
693.0,-9.618,-3.182,13.219,0.622,-3.964,-0.639
697.0,-9.618,-3.182,13.219,0.622,-3.964,-0.639
701.0,-9.276,-3.241,13.22,0.699,-4.13,-0.672
705.0,-9.276,-3.241,13.22,0.699,-4.13,-0.672
709.0,-9.177,-3.466,13.313,0.699,-4.13,-0.706
713.0,-9.177,-3.466,13.313,0.778,-4.272,-0.706
717.0,-9.177,-3.466,13.313,0.778,-4.272,-0.706
721.0,-9.344,-3.876,13.304,0.859,-4.416,-0.744
725.0,-9.344,-3.876,13.304,0.859,-4.416,-0.744
729.0,-9.347,-4.12,13.234,0.939,-4.558,-0.797
733.0,-9.347,-4.12,13.234,0.939,-4.558,-0.797
737.0,-9.347,-4.12,13.234,0.939,-4.558,-0.797
741.0,-9.148,-4.33,13.109,0.999,-4.686,-0.857
745.0,-9.148,-4.33,13.109,0.999,-4.686,-0.857
749.0,-8.888,-4.772,13.075,1.017,-4.806,-0.919
753.0,-8.888,-4.772,13.075,1.017,-4.806,-0.919
757.0,-8.888,-4.772,13.075,1.017,-4.806,-0.919
761.0,-8.716,-5.221,12.972,1.001,-4.915,-1.002
765.0,-8.716,-5.221,12.972,1.001,-4.915,-1.002
769.0,-8.463,-5.416,12.85,0.992,-4.981,-1.101
773.0,-8.463,-5.416,12.85,0.992,-4.981,-1.101
777.0,-8.463,-5.416,12.85,0.992,-4.981,-1.101
781.0,-8.094,-5.553,12.751,1.021,-4.992,-1.196
785.0,-8.094,-5.553,12.751,1.021,-4.992,-1.196
789.0,-7.724,-5.818,12.681,1.117,-4.992,-1.279
793.0,-7.724,-5.818,12.681,1.117,-4.992,-1.279
797.0,-7.724,-5.818,12.681,1.117,-4.992,-1.279
801.0,-7.286,-6.01,12.516,1.288,-4.992,-1.344
805.0,-7.286,-6.01,12.516,1.288,-4.992,-1.344
809.0,-7.113,-6.145,12.351,1.489,-4.992,-1.389
813.0,-7.113,-6.145,12.351,1.489,-4.992,-1.389
817.0,-7.113,-6.145,12.351,1.489,-4.992,-1.389
821.0,-6.577,-6.121,12.084,1.75,-4.992,-1.426
825.0,-6.577,-6.121,12.084,1.75,-4.992,-1.426
829.0,-6.022,-6.023,11.513,2.007,-4.992,-1.475
833.0,-6.022,-6.023,11.513,2.007,-4.992,-1.475
837.0,-6.022,-6.023,10.875,2.007,-4.992,-1.475
841.0,-5.398,-5.761,10.875,2.252,-4.992,-1.519
845.0,-5.398,-5.761,10.875,2.252,-4.992,-1.519
849.0,-4.719,-5.513,10.224,2.471,-4.992,-1.547
853.0,-4.719,-5.513,10.224,2.471,-4.992,-1.547
857.0,-4.003,-5.301,9.65,2.471,-4.992,-1.547
861.0,-4.003,-5.301,9.65,2.642,-4.992,-1.573
865.0,-4.003,-5.301,9.65,2.642,-4.992,-1.573
869.0,-3.45,-5.009,9.299,2.762,-4.992,-1.608
872.0,-3.45,-5.009,9.299,2.762,-4.992,-1.608
876.0,-3.45,-4.592,9.109,2.762,-4.992,-1.608
880.0,-3.217,-4.592,9.109,2.849,-4.992,-1.646
884.0,-3.217,-4.592,9.109,2.849,-4.992,-1.646
888.0,-3.157,-4.228,8.897,2.921,-4.992,-1.67
892.0,-3.157,-4.228,8.897,2.921,-4.992,-1.67
896.0,-3.157,-4.228,8.41,2.921,-4.992,-1.67
900.0,-2.91,-3.842,8.41,2.99,-4.992,-1.67
904.0,-2.91,-3.842,8.41,2.99,-4.992,-1.67
908.0,-2.37,-3.393,7.828,3.033,-4.992,-1.653
912.0,-2.37,-3.393,7.828,3.033,-4.992,-1.653
915.0,-2.37,-3.393,7.828,3.033,-4.992,-1.653
919.0,-1.91,-2.922,7.396,3.033,-4.992,-1.625
923.0,-1.91,-2.922,7.396,3.033,-4.992,-1.625
927.0,-1.573,-2.731,7.289,2.982,-4.992,-1.598
931.0,-1.573,-2.731,7.289,2.982,-4.992,-1.598
935.0,-1.573,-2.731,7.289,2.982,-4.992,-1.598
939.0,-1.527,-2.741,7.219,2.892,-4.992,-1.603
943.0,-1.527,-2.741,7.219,2.892,-4.992,-1.603
947.0,-1.619,-2.652,7.082,2.768,-4.992,-1.642
951.0,-1.619,-2.652,7.082,2.768,-4.992,-1.642
955.0,-1.619,-2.652,7.082,2.768,-4.992,-1.642
958.0,-1.678,-2.469,6.9,2.606,-4.992,-1.698
962.0,-1.678,-2.469,6.9,2.606,-4.992,-1.698
966.0,-1.598,-2.091,6.519,2.413,-4.992,-1.761
970.0,-1.598,-2.091,6.519,2.413,-4.992,-1.761
974.0,-1.598,-2.091,6.519,2.413,-4.992,-1.761
978.0,-1.405,-1.768,6.039,2.2,-4.992,-1.825
982.0,-1.405,-1.768,6.039,2.2,-4.992,-1.825
986.0,-0.88,-1.423,5.256,1.984,-4.992,-1.895
990.0,-0.88,-1.423,5.256,1.984,-4.992,-1.895
994.0,-0.88,-1.423,5.256,1.984,-4.992,-1.895
997.0,-0.374,-1.102,4.212,1.775,-4.981,-1.983
1001.0,-0.374,-1.102,4.212,1.775,-4.981,-1.983
1005.0,0.763,-0.465,3.165,1.775,-4.98,-2.087
1009.0,0.763,-0.465,3.165,1.637,-4.98,-2.087
1013.0,0.763,-0.465,3.165,1.637,-4.98,-2.087
1017.0,1.526,0.062,2.155,1.535,-4.918,-2.169
1021.0,1.526,0.062,2.155,1.535,-4.918,-2.169
1025.0,2.176,0.31,1.272,1.535,-4.918,-2.169
1029.0,2.176,0.31,1.272,1.488,-4.785,-2.2
1032.0,2.176,0.31,1.272,1.488,-4.785,-2.2
1036.0,2.66,0.395,0.604,1.527,-4.611,-2.177
1040.0,2.66,0.395,0.604,1.527,-4.611,-2.177
1044.0,2.66,0.395,0.604,1.527,-4.611,-2.177
1048.0,2.877,0.418,0.16,1.656,-4.42,-2.125
1051.0,2.877,0.418,0.16,1.656,-4.42,-2.125
1055.0,3.062,0.577,-0.104,1.838,-4.235,-2.076
1059.0,3.062,0.577,-0.104,1.838,-4.235,-2.076
1063.0,3.062,0.577,-0.104,1.838,-4.235,-2.076
1067.0,3.503,1.11,-0.528,2.02,-4.051,-2.047
1071.0,3.503,1.11,-0.528,2.02,-4.051,-2.047
1075.0,3.949,2.005,-0.955,2.177,-3.853,-2.023
1079.0,3.949,2.005,-0.955,2.177,-3.853,-2.023
1083.0,3.949,2.005,-0.955,2.177,-3.853,-2.023
1087.0,4.357,3.081,-1.632,2.304,-3.639,-1.975
1090.0,4.357,3.081,-1.632,2.304,-3.639,-1.975
1094.0,4.748,4.065,-2.602,2.384,-3.396,-1.887
1098.0,4.748,4.065,-2.602,2.384,-3.396,-1.887
1102.0,4.748,4.065,-2.602,2.384,-3.396,-1.887
1106.0,5.247,4.944,-3.491,2.425,-3.113,-1.771
1110.0,5.247,4.944,-3.491,2.425,-3.113,-1.771
1114.0,5.671,5.736,-4.117,2.425,-2.797,-1.641
1118.0,5.671,5.736,-4.117,2.442,-2.797,-1.641
1122.0,5.671,5.736,-4.117,2.442,-2.797,-1.641
1126.0,5.961,6.491,-4.49,2.446,-2.469,-1.501
1130.0,5.961,6.491,-4.49,2.446,-2.469,-1.501
1133.0,6.227,7.29,-4.723,2.446,-2.469,-1.358
1137.0,6.227,7.29,-4.723,2.425,-2.148,-1.358
1141.0,6.227,7.29,-4.723,2.425,-2.148,-1.358
1145.0,6.538,8.061,-4.681,2.376,-1.833,-1.228
1149.0,6.538,8.061,-4.681,2.376,-1.833,-1.228
1153.0,6.91,8.754,-4.603,2.376,-1.833,-1.228
1157.0,6.91,8.754,-4.603,2.304,-1.536,-1.12
1161.0,6.91,8.754,-4.603,2.304,-1.536,-1.12
1165.0,7.211,9.575,-4.564,2.205,-1.26,-1.018
1169.0,7.211,9.575,-4.564,2.205,-1.26,-1.018
1172.0,7.211,9.575,-4.487,2.205,-1.26,-1.018
1176.0,7.472,10.424,-4.487,2.087,-0.994,-0.887
1180.0,7.472,10.424,-4.487,2.087,-0.994,-0.887
1184.0,7.862,11.031,-4.527,1.969,-0.741,-0.715
1188.0,7.862,11.031,-4.527,1.969,-0.741,-0.715
1192.0,8.321,11.402,-4.504,1.969,-0.741,-0.715
1196.0,8.321,11.402,-4.504,1.864,-0.498,-0.531
1200.0,8.321,11.402,-4.504,1.864,-0.498,-0.531
1204.0,8.804,11.917,-4.32,1.781,-0.272,-0.354
1208.0,8.804,11.917,-4.32,1.781,-0.272,-0.354
1212.0,9.358,12.918,-4.716,1.781,-0.272,-0.354
1216.0,9.358,12.918,-4.716,1.728,-0.056,-0.138
1220.0,9.358,12.918,-4.716,1.728,-0.056,-0.138
1224.0,10.516,14.072,-5.405,1.72,0.205,0.146
1228.0,10.516,14.072,-5.405,1.72,0.205,0.146
1232.0,12.168,15.562,-7.452,1.72,0.205,0.472
1236.0,12.168,15.562,-7.452,1.797,0.528,0.472
1240.0,12.168,15.562,-7.452,1.797,0.528,0.472
1244.0,14.267,16.954,-9.792,1.943,0.916,0.866
1248.0,14.267,16.954,-9.792,1.943,0.916,0.866
1252.0,15.947,18.051,-11.993,1.943,0.916,0.866
1256.0,15.947,18.051,-11.993,2.112,1.462,1.339
1260.0,15.947,18.051,-11.993,2.112,1.462,1.339
1264.0,17.404,18.941,-13.587,2.266,2.13,1.867
1268.0,17.404,18.941,-13.587,2.266,2.13,1.867
1272.0,18.187,19.249,-13.795,2.266,2.13,2.442
1276.0,18.187,19.249,-13.795,2.35,2.927,2.442
1280.0,18.187,19.249,-13.795,2.35,2.927,2.442
1284.0,18.063,18.83,-12.365,2.335,3.75,3.031
1288.0,18.063,18.83,-12.365,2.335,3.75,3.031
1292.0,16.29,17.761,-9.859,2.335,4.488,3.614
1295.0,16.29,17.761,-9.859,2.225,4.488,3.614
1299.0,16.29,17.761,-9.859,2.225,4.488,3.614
1303.0,13.092,15.995,-7.402,2.051,4.956,4.169
1307.0,13.092,15.995,-7.402,2.051,4.956,4.169
1311.0,8.962,13.67,-5.151,2.051,4.956,4.653
1315.0,8.962,13.67,-5.151,1.846,5.015,4.653
1319.0,8.962,13.67,-5.151,1.846,5.015,4.653
1323.0,4.912,11.198,-3.342,1.606,5.015,4.965
1326.0,4.912,11.198,-3.342,1.606,5.015,4.965
1330.0,4.912,11.198,-2.024,1.606,5.015,4.965
1334.0,1.018,8.876,-2.024,1.282,5.015,5.013
1338.0,1.018,8.876,-2.024,1.282,5.015,5.013
1341.0,-3.222,7.008,-1.164,0.814,5.015,5.013
1345.0,-3.222,7.008,-1.164,0.814,5.015,5.013
1349.0,-3.222,7.008,-1.164,0.814,5.015,5.013
1353.0,-8.378,5.947,-1.041,0.193,5.015,5.012
1357.0,-8.378,5.947,-1.041,0.193,5.015,5.012
1361.0,-15.504,4.157,0.818,0.193,5.015,4.928
1364.0,-15.504,4.157,0.818,-0.551,5.015,4.928
1368.0,-15.504,4.157,0.818,-0.551,5.015,4.928
1372.0,-19.56,-0.699,3.081,-1.376,5.005,4.634
1376.0,-19.56,-0.699,3.081,-1.376,5.005,4.634
1380.0,-19.6,-5.271,5.067,-1.376,5.005,3.954
1384.0,-19.6,-5.271,5.067,-2.031,4.51,3.954
1388.0,-19.6,-5.271,5.067,-2.031,4.51,3.954
1392.0,-19.6,-6.32,7.691,-2.497,3.22,2.894
1396.0,-19.6,-6.32,7.691,-2.497,3.22,2.894
1400.0,-19.254,-6.159,8.107,-2.497,1.747,1.846
1404.0,-19.254,-6.159,8.107,-3.031,1.747,1.846
1408.0,-19.254,-6.159,8.107,-3.031,1.747,1.846
1412.0,-15.599,-7.509,7.101,-3.552,0.41,0.886
1416.0,-15.599,-7.509,7.101,-3.552,0.41,0.886
1420.0,-11.358,-9.383,6.014,-3.79,-0.696,-0.079
1424.0,-11.358,-9.383,6.014,-3.79,-0.696,-0.079
1428.0,-11.358,-9.383,6.014,-3.79,-0.696,-0.079
1433.0,-7.67,-10.275,4.807,-3.643,-1.533,-0.969
1437.0,-7.67,-10.275,4.807,-3.643,-1.533,-0.969
1441.0,-4.597,-10.129,3.497,-3.174,-2.07,-1.641
1445.0,-4.597,-10.129,3.497,-3.174,-2.07,-1.641
1449.0,-2.369,-9.672,2.979,-3.174,-2.07,-2.086
1453.0,-2.369,-9.672,2.979,-2.559,-2.353,-2.086
1457.0,-2.369,-9.672,2.979,-2.559,-2.353,-2.086
1462.0,-0.925,-9.093,2.792,-1.962,-2.516,-2.418
1466.0,-0.925,-9.093,2.792,-1.962,-2.516,-2.418
1470.0,-0.029,-8.284,2.594,-1.417,-2.634,-2.731
1474.0,-0.029,-8.284,2.594,-1.417,-2.634,-2.731
1478.0,-0.029,-8.284,2.594,-1.417,-2.634,-2.731
1482.0,0.556,-7.32,2.436,-0.918,-2.727,-3.032
1486.0,0.556,-7.32,2.436,-0.918,-2.727,-3.032
1490.0,1.156,-6.175,2.209,-0.477,-2.78,-3.302
1494.0,1.156,-6.175,2.209,-0.477,-2.78,-3.302
1498.0,1.156,-6.175,2.209,-0.477,-2.78,-3.302
1502.0,2.006,-5.133,2.049,-0.094,-2.772,-3.534
1506.0,2.006,-5.133,2.049,-0.094,-2.772,-3.534
1510.0,3.242,-3.993,1.926,0.234,-2.712,-3.751
1514.0,3.242,-3.993,1.926,0.234,-2.712,-3.751
1518.0,3.242,-3.993,1.926,0.234,-2.712,-3.751
1522.0,4.927,-2.821,1.799,0.512,-2.625,-3.98
1526.0,4.927,-2.821,1.799,0.512,-2.625,-3.98
1529.0,7.086,-1.332,1.414,0.758,-2.523,-4.221
1533.0,7.086,-1.332,1.414,0.758,-2.523,-4.221
1537.0,7.086,-1.332,1.414,0.758,-2.523,-4.221
1541.0,9.513,0.263,0.915,0.999,-2.379,-4.429
1545.0,9.513,0.263,0.915,0.999,-2.379,-4.429
1549.0,11.76,1.61,0.451,1.249,-2.209,-4.564
1553.0,11.76,1.61,0.451,1.249,-2.209,-4.564
1557.0,11.76,1.61,0.451,1.249,-2.209,-4.564
1560.0,13.03,2.598,0.281,1.476,-2.047,-4.637
1564.0,13.03,2.598,0.281,1.476,-2.047,-4.637
1568.0,13.173,3.637,0.12,1.627,-1.922,-4.705
1572.0,13.173,3.637,0.12,1.627,-1.922,-4.705
1576.0,13.173,3.637,0.12,1.627,-1.922,-4.705
1580.0,12.674,5.141,0.098,1.697,-1.82,-4.79
1584.0,12.674,5.141,0.098,1.697,-1.82,-4.79
1588.0,11.897,7.02,0.192,1.72,-1.761,-4.857
1592.0,11.897,7.02,0.192,1.72,-1.761,-4.857
1596.0,11.897,7.02,0.192,1.72,-1.761,-4.857
1600.0,11.173,9.203,0.075,1.725,-1.77,-4.872
1603.0,11.173,9.203,0.075,1.725,-1.77,-4.872
1607.0,10.697,11.171,-0.156,1.725,-1.823,-4.806
1611.0,10.697,11.171,-0.156,1.72,-1.823,-4.806
1616.0,10.697,11.171,-0.156,1.72,-1.823,-4.806
1620.0,10.756,13.621,-0.884,1.718,-1.888,-4.667
1624.0,10.756,13.621,-0.884,1.718,-1.888,-4.667
1628.0,11.549,16.576,-2.708,1.727,-1.93,-4.431
1632.0,11.549,16.576,-2.708,1.727,-1.93,-4.431
1636.0,11.549,16.576,-2.708,1.727,-1.93,-4.431
1640.0,12.87,19.199,-5.438,1.712,-1.879,-4.071
1644.0,12.87,19.199,-5.438,1.712,-1.879,-4.071
1648.0,14.636,19.595,-9.128,1.652,-1.673,-3.619
1652.0,14.636,19.595,-9.128,1.652,-1.673,-3.619
1656.0,15.342,19.596,-12.236,1.652,-1.673,-3.619
1660.0,15.342,19.596,-12.236,1.53,-1.269,-3.081
1665.0,15.342,19.596,-12.236,1.53,-1.269,-3.081
1669.0,14.593,19.596,-12.954,1.346,-0.737,-2.445
1673.0,14.593,19.596,-12.954,1.346,-0.737,-2.445
1677.0,13.39,19.596,-12.939,1.134,-0.225,-1.704
1681.0,13.39,19.596,-12.939,1.134,-0.225,-1.704
1685.0,13.39,19.596,-12.939,1.134,-0.225,-1.704
1690.0,12.569,19.596,-12.793,0.952,0.292,-0.848
1694.0,12.569,19.596,-12.793,0.952,0.292,-0.848
1698.0,12.031,19.596,-12.534,0.89,0.865,0.052
1702.0,12.031,19.596,-12.534,0.89,0.865,0.052
1706.0,11.629,19.596,-12.456,0.89,0.865,0.052
1710.0,11.629,19.596,-12.456,0.98,1.482,0.952
1714.0,11.629,19.596,-12.456,0.98,1.482,0.952
1718.0,11.486,19.596,-12.701,1.144,2.112,1.879
1722.0,11.486,19.596,-12.701,1.144,2.112,1.879
1726.0,11.572,19.596,-13.161,1.144,2.112,2.768
1730.0,11.572,19.596,-13.161,1.25,2.762,2.768
1734.0,11.572,19.596,-13.161,1.25,2.762,2.768
1738.0,11.681,19.596,-13.745,1.235,3.44,3.517
1742.0,11.681,19.596,-13.745,1.235,3.44,3.517
1746.0,11.611,19.596,-13.628,1.1,4.15,4.173
1750.0,11.611,19.596,-13.628,1.1,4.15,4.173
1754.0,11.611,19.596,-13.628,1.1,4.15,4.173
1758.0,10.866,19.596,-12.692,0.86,4.803,4.737
1762.0,10.866,19.596,-12.692,0.86,4.803,4.737
1766.0,9.45,19.172,-11.29,0.529,5.014,5.001
1770.0,9.45,19.172,-11.29,0.529,5.014,5.001
1774.0,9.45,19.172,-11.29,0.529,5.014,5.001
1777.0,7.277,16.835,-9.248,0.194,5.015,5.013
1781.0,7.277,16.835,-9.248,0.194,5.015,5.013
1785.0,4.543,14.161,-6.9,0.194,5.015,5.013
1789.0,4.543,14.161,-6.9,-0.111,5.015,5.013
1793.0,4.543,14.161,-6.9,-0.111,5.015,5.013
1797.0,1.545,11.745,-4.991,-0.404,5.015,5.013
1801.0,1.545,11.745,-4.991,-0.404,5.015,5.013
1804.0,-2.054,9.65,-3.235,-0.404,5.015,5.013
1808.0,-2.054,9.65,-3.235,-0.734,5.015,5.013
1812.0,-2.054,9.65,-3.235,-0.734,5.015,5.013
1816.0,-6.307,7.786,-1.829,-1.161,5.015,5.013
1820.0,-6.307,7.786,-1.829,-1.161,5.015,5.013
1824.0,-6.307,6.26,0.38,-1.161,5.015,5.013
1828.0,-12.149,6.26,0.38,-1.766,5.015,5.013
1832.0,-12.149,6.26,0.38,-1.766,5.015,5.013
1836.0,-18.723,5.31,1.977,-2.578,5.015,5.013
1840.0,-18.723,5.31,1.977,-2.578,5.015,5.013
1843.0,-18.723,5.31,2.789,-2.578,5.015,5.013
1847.0,-19.6,0.638,2.789,-3.438,5.015,5.013
1851.0,-19.6,0.638,2.789,-3.438,5.015,5.013
1855.0,-19.6,-6.412,4.999,-3.888,4.734,4.913
1859.0,-19.6,-6.412,4.999,-3.888,4.734,4.913
1863.0,-19.6,-6.412,7.819,-3.888,4.734,4.913
1867.0,-19.573,-10.782,7.819,-3.727,3.183,4.054
1871.0,-19.573,-10.782,7.819,-3.727,3.183,4.054
1875.0,-13.793,-13.225,6.903,-3.196,1.523,2.984
1879.0,-13.793,-13.225,6.903,-3.196,1.523,2.984
1883.0,-5.883,-13.828,5.122,-3.196,1.523,2.984
1887.0,-5.883,-13.828,5.122,-2.524,0.562,1.922
1891.0,-5.883,-13.828,5.122,-2.524,0.562,1.922
1895.0,-1.983,-13.144,5.188,-1.919,0.057,0.834
1899.0,-1.983,-13.144,5.188,-1.919,0.057,0.834
1903.0,-0.267,-11.922,5.614,-1.919,-0.354,-0.131
1908.0,-0.267,-11.922,5.614,-1.383,-0.354,-0.131
1912.0,-0.267,-11.922,5.614,-1.383,-0.354,-0.131
1916.0,1.144,-10.174,5.496,-0.884,-0.713,-0.851
1920.0,1.144,-10.174,5.496,-0.884,-0.713,-0.851
1924.0,2.484,-8.575,5.08,-0.473,-0.88,-1.273
1928.0,2.484,-8.575,5.08,-0.473,-0.88,-1.273
1932.0,2.484,-8.575,5.08,-0.473,-0.88,-1.273
1936.0,3.801,-7.347,4.769,-0.181,-0.862,-1.461
1940.0,3.801,-7.347,4.769,-0.181,-0.862,-1.461
1944.0,5.137,-6.007,4.467,0.003,-0.767,-1.549
1948.0,5.137,-6.007,4.467,0.003,-0.767,-1.549
1952.0,5.137,-6.007,4.467,0.003,-0.767,-1.549
1956.0,6.992,-4.49,3.921,0.1,-0.685,-1.609
1960.0,6.992,-4.49,3.921,0.1,-0.685,-1.609
1964.0,9.322,-3.048,3.545,0.122,-0.581,-1.661
1968.0,9.322,-3.048,3.545,0.122,-0.581,-1.661
1971.0,9.322,-3.048,3.545,0.122,-0.581,-1.661
1975.0,11.49,-1.679,3.631,0.106,-0.412,-1.686
1979.0,11.49,-1.679,3.631,0.106,-0.412,-1.686
1983.0,13.25,-0.626,4.201,0.105,-0.216,-1.667
1987.0,13.25,-0.626,4.201,0.105,-0.216,-1.667
1991.0,13.25,-0.626,4.201,0.105,-0.216,-1.667
1995.0,13.858,0.291,4.808,0.144,-0.043,-1.616
1999.0,13.858,0.291,4.808,0.144,-0.043,-1.616
2003.0,13.112,1.092,5.034,0.211,0.074,-1.537
2007.0,13.112,1.092,5.034,0.211,0.074,-1.537
2011.0,13.112,1.092,5.034,0.211,0.074,-1.537
2015.0,11.671,1.685,5.104,0.295,0.151,-1.441
2018.0,11.671,1.685,5.104,0.295,0.151,-1.441
2022.0,10.235,2.138,5.181,0.4,0.193,-1.335
2026.0,10.235,2.138,5.181,0.4,0.193,-1.335
2030.0,10.235,2.138,5.181,0.4,0.193,-1.335
2034.0,9.246,2.61,5.087,0.522,0.212,-1.214
2037.0,9.246,2.61,5.087,0.522,0.212,-1.214
2041.0,9.246,2.921,5.107,0.522,0.212,-1.214
2045.0,8.661,2.921,5.107,0.643,0.207,-1.069
2049.0,8.661,2.921,5.107,0.643,0.207,-1.069
2052.0,8.444,2.837,5.038,0.753,0.168,-0.925
2056.0,8.444,2.837,5.038,0.753,0.168,-0.925
2060.0,8.444,2.837,5.038,0.753,0.168,-0.925
2064.0,8.336,2.804,4.861,0.837,0.117,-0.832
2067.0,8.336,2.804,4.861,0.837,0.117,-0.832
2071.0,8.156,2.855,4.693,0.837,0.117,-0.832
2075.0,8.156,2.855,4.693,0.889,0.083,-0.786
2078.0,8.156,2.855,4.693,0.889,0.083,-0.786
2082.0,8.045,3.046,4.439,0.919,0.065,-0.762
2086.0,8.045,3.046,4.439,0.919,0.065,-0.762
2090.0,8.045,3.046,4.439,0.919,0.065,-0.762
2093.0,7.984,3.365,4.145,0.94,0.064,-0.747
2097.0,7.984,3.365,4.145,0.94,0.064,-0.747
2101.0,7.906,3.548,3.771,0.94,0.075,-0.721
2105.0,7.906,3.548,3.771,0.947,0.075,-0.721
2108.0,7.906,3.548,3.771,0.947,0.075,-0.721
2112.0,7.711,3.791,3.278,0.937,0.101,-0.679
2116.0,7.711,3.791,3.278,0.937,0.101,-0.679
2120.0,7.711,3.791,3.278,0.937,0.101,-0.679
2123.0,7.521,3.942,2.819,0.912,0.143,-0.622
2127.0,7.521,3.942,2.819,0.912,0.143,-0.622
2131.0,7.295,3.953,2.457,0.859,0.19,-0.568
2134.0,7.295,3.953,2.457,0.859,0.19,-0.568
2138.0,7.295,3.953,2.457,0.859,0.19,-0.568
2142.0,7.126,3.899,2.099,0.761,0.235,-0.541
2146.0,7.126,3.899,2.099,0.761,0.235,-0.541
2149.0,7.126,3.899,2.099,0.761,0.235,-0.541
2153.0,6.914,3.826,1.816,0.623,0.302,-0.559
2157.0,6.914,3.826,1.816,0.623,0.302,-0.559
2161.0,6.507,3.859,1.741,0.464,0.378,-0.607
2164.0,6.507,3.859,1.741,0.464,0.378,-0.607
2168.0,6.507,3.859,1.741,0.464,0.378,-0.607
2172.0,6.147,3.896,1.638,0.299,0.437,-0.658
2176.0,6.147,3.896,1.638,0.299,0.437,-0.658
2179.0,6.147,3.91,1.588,0.299,0.437,-0.658
2183.0,5.77,3.91,1.588,0.126,0.49,-0.697
2187.0,5.77,3.91,1.588,0.126,0.49,-0.697
2190.0,5.448,3.793,1.521,-0.057,0.531,-0.714
2194.0,5.448,3.793,1.521,-0.057,0.531,-0.714
2198.0,5.448,3.793,1.521,-0.057,0.531,-0.714
2202.0,5.161,3.495,1.418,-0.245,0.564,-0.727
2206.0,5.161,3.495,1.418,-0.245,0.564,-0.727
2210.0,4.868,3.041,1.229,-0.245,0.593,-0.756
2213.0,4.868,3.041,1.229,-0.437,0.593,-0.756
2217.0,4.868,3.041,1.229,-0.437,0.593,-0.756
2221.0,4.589,2.514,1.009,-0.633,0.628,-0.819
2225.0,4.589,2.514,1.009,-0.633,0.628,-0.819
2229.0,4.589,2.014,0.803,-0.633,0.628,-0.819
2232.0,4.26,2.014,0.803,-0.826,0.677,-0.92
2236.0,4.26,2.014,0.803,-0.826,0.677,-0.92
2240.0,4.049,1.604,0.648,-1.008,0.746,-1.058
2244.0,4.049,1.604,0.648,-1.008,0.746,-1.058
2248.0,4.049,1.604,0.648,-1.008,0.746,-1.058
2252.0,3.898,1.321,0.746,-1.163,0.845,-1.23
2255.0,3.898,1.321,0.746,-1.163,0.845,-1.23
2259.0,3.717,1.125,0.919,-1.286,0.949,-1.405
2263.0,3.717,1.125,0.919,-1.286,0.949,-1.405
2267.0,3.717,1.125,0.919,-1.286,0.949,-1.405
2271.0,3.388,0.971,1.053,-1.381,1.047,-1.549
2274.0,3.388,0.971,1.053,-1.381,1.047,-1.549
2278.0,2.911,0.76,1.092,-1.381,1.047,-1.549
2282.0,2.911,0.76,1.092,-1.46,1.143,-1.647
2286.0,2.911,0.76,1.092,-1.46,1.143,-1.647
2290.0,2.313,0.442,1.008,-1.529,1.248,-1.697
2294.0,2.313,0.442,1.008,-1.529,1.248,-1.697
2297.0,2.313,0.442,1.008,-1.529,1.248,-1.697
2301.0,1.768,0.051,0.76,-1.597,1.371,-1.722
2305.0,1.768,0.051,0.76,-1.597,1.371,-1.722
2309.0,1.335,-0.33,0.496,-1.656,1.533,-1.767
2313.0,1.335,-0.33,0.496,-1.656,1.533,-1.767
2317.0,1.335,-0.33,0.496,-1.656,1.533,-1.767
2321.0,0.961,-0.669,0.459,-1.708,1.736,-1.844
2324.0,0.961,-0.669,0.459,-1.708,1.736,-1.844
2328.0,0.976,-1.012,0.51,-1.751,1.963,-1.939
2332.0,0.976,-1.012,0.51,-1.751,1.963,-1.939
2336.0,0.976,-1.012,0.51,-1.751,1.963,-1.939
2340.0,1.27,-1.298,0.901,-1.754,2.244,-2.077
2344.0,1.27,-1.298,0.901,-1.754,2.244,-2.077
2348.0,1.467,-1.495,1.324,-1.701,2.558,-2.238
2352.0,1.467,-1.495,1.324,-1.701,2.558,-2.238
2356.0,1.467,-1.495,1.324,-1.701,2.558,-2.238
2360.0,1.421,-1.594,1.64,-1.612,2.859,-2.353
2364.0,1.421,-1.594,1.64,-1.612,2.859,-2.353
2367.0,0.97,-1.593,1.68,-1.612,3.134,-2.395
2371.0,0.97,-1.593,1.68,-1.511,3.134,-2.395
2375.0,0.97,-1.593,1.68,-1.511,3.134,-2.395
2379.0,0.176,-1.596,1.428,-1.431,3.377,-2.352
2383.0,0.176,-1.596,1.428,-1.431,3.377,-2.352
2387.0,-0.628,-1.72,1.07,-1.431,3.377,-2.235
2391.0,-0.628,-1.72,1.07,-1.404,3.591,-2.235
2395.0,-0.628,-1.72,1.07,-1.404,3.591,-2.235
2399.0,-1.19,-1.885,0.797,-1.436,3.807,-2.102
2403.0,-1.19,-1.885,0.797,-1.436,3.807,-2.102
2407.0,-1.381,-2.035,0.94,-1.436,4.075,-2.013
2411.0,-1.381,-2.035,0.94,-1.501,4.075,-2.013
2415.0,-1.381,-2.035,0.94,-1.501,4.075,-2.013
2419.0,-1.253,-2.232,1.621,-1.542,4.402,-2.014
2423.0,-1.253,-2.232,1.621,-1.542,4.402,-2.014
2427.0,-1.088,-2.377,2.304,-1.529,4.739,-2.084
2431.0,-1.088,-2.377,2.304,-1.529,4.739,-2.084
2435.0,-1.088,-2.377,2.304,-1.529,4.739,-2.084
2439.0,-1.145,-2.357,2.804,-1.48,4.98,-2.152
2443.0,-1.145,-2.357,2.804,-1.48,4.98,-2.152
2447.0,-1.64,-2.202,3.277,-1.43,5.015,-2.158
2451.0,-1.64,-2.202,3.277,-1.43,5.015,-2.158
2455.0,-1.64,-2.202,3.277,-1.43,5.015,-2.158
2459.0,-2.52,-1.93,3.9,-1.404,5.015,-2.072
2463.0,-2.52,-1.93,3.9,-1.404,5.015,-2.072
2467.0,-3.415,-1.805,4.979,-1.392,5.015,-1.897
2471.0,-3.415,-1.805,4.979,-1.392,5.015,-1.897
2475.0,-3.415,-1.805,4.979,-1.392,5.015,-1.897
2479.0,-4.221,-1.954,6.334,-1.362,5.015,-1.718
2483.0,-4.221,-1.954,6.334,-1.362,5.015,-1.718
2487.0,-5.243,-2.218,7.542,-1.288,5.015,-1.602
2491.0,-5.243,-2.218,7.542,-1.288,5.015,-1.602
2495.0,-5.243,-2.218,7.542,-1.288,5.015,-1.602
2499.0,-6.494,-2.632,8.39,-1.172,5.015,-1.541
2503.0,-6.494,-2.632,8.39,-1.172,5.015,-1.541
2507.0,-8.021,-2.643,9.19,-1.025,5.015,-1.514
2511.0,-8.021,-2.643,9.19,-1.025,5.015,-1.514
2515.0,-8.021,-2.643,9.552,-1.025,5.015,-1.514
2519.0,-9.117,-2.274,9.552,-0.855,5.015,-1.468
2523.0,-9.117,-2.274,9.552,-0.855,5.015,-1.468
2527.0,-10.249,-1.763,9.597,-0.71,5.015,-1.351
2531.0,-10.249,-1.763,9.597,-0.71,5.015,-1.351
2535.0,-11.006,-1.207,9.918,-0.71,5.015,-1.351
2539.0,-11.006,-1.207,9.918,-0.569,5.015,-1.174
2543.0,-11.006,-1.207,9.918,-0.569,5.015,-1.174
2547.0,-11.355,-0.802,9.954,-0.419,5.015,-0.997
2551.0,-11.355,-0.802,9.954,-0.419,5.015,-0.997
2555.0,-11.732,-0.738,9.613,-0.259,5.015,-0.88
2559.0,-11.732,-0.738,9.613,-0.259,5.015,-0.88
2563.0,-11.732,-0.738,9.613,-0.259,5.015,-0.88
2568.0,-12.69,-1.098,9.424,-0.117,5.015,-0.872
2572.0,-12.69,-1.098,9.424,-0.117,5.015,-0.872
2576.0,-14.361,-1.49,9.276,-0.051,5.015,-0.984
2580.0,-14.361,-1.49,9.276,-0.051,5.015,-0.984
2584.0,-14.361,-1.49,9.108,-0.051,5.015,-0.984
2588.0,-16.476,-1.592,9.108,-0.098,5.015,-1.147
2592.0,-16.476,-1.592,9.108,-0.098,5.015,-1.147
2596.0,-18.988,-1.153,9.867,-0.255,5.015,-1.283
2600.0,-18.988,-1.153,9.867,-0.255,5.015,-1.283
2604.0,-19.6,-0.341,11.334,-0.255,5.015,-1.33
2608.0,-19.6,-0.341,11.334,-0.454,5.015,-1.33
2613.0,-19.6,-0.341,11.334,-0.454,5.015,-1.33
2617.0,-19.6,0.207,12.47,-0.619,5.015,-1.275
2621.0,-19.6,0.207,12.47,-0.619,5.015,-1.275
2625.0,-19.6,0.629,13.345,-0.73,5.015,-1.184
2629.0,-19.6,0.629,13.345,-0.73,5.015,-1.184
2633.0,-19.6,0.629,13.811,-0.73,5.015,-1.184
2637.0,-19.6,1.234,13.811,-0.797,4.903,-1.108
2641.0,-19.6,1.234,13.811,-0.797,4.903,-1.108
2645.0,-19.6,1.612,13.673,-0.856,4.458,-1.051
2649.0,-19.6,1.612,13.673,-0.856,4.458,-1.051
2653.0,-19.6,1.895,13.159,-0.856,4.458,-1.023
2658.0,-19.6,1.895,13.159,-0.931,3.986,-1.023
2662.0,-19.6,1.895,13.159,-0.931,3.986,-1.023
2666.0,-19.6,2.134,12.455,-1.026,3.563,-1.021
2670.0,-19.6,2.134,12.455,-1.026,3.563,-1.021
2674.0,-19.6,2.293,11.45,-1.144,3.181,-1.025
2678.0,-19.6,2.293,11.45,-1.144,3.181,-1.025
2682.0,-19.6,2.293,11.45,-1.144,3.181,-1.025
2686.0,-19.076,2.428,10.583,-1.287,2.861,-1.043
2690.0,-19.076,2.428,10.583,-1.287,2.861,-1.043
2694.0,-17.975,2.697,10.215,-1.432,2.585,-1.099
2698.0,-17.975,2.697,10.215,-1.432,2.585,-1.099
2702.0,-17.975,2.826,9.698,-1.432,2.585,-1.099
2706.0,-17.053,2.826,9.698,-1.543,2.311,-1.187
2710.0,-17.053,2.826,9.698,-1.543,2.311,-1.187
2714.0,-16.324,3.014,9.142,-1.619,2.045,-1.304
2718.0,-16.324,3.014,9.142,-1.619,2.045,-1.304
2722.0,-15.775,3.103,8.581,-1.619,2.045,-1.304
2726.0,-15.775,3.103,8.581,-1.685,1.794,-1.422
2730.0,-15.775,3.103,8.581,-1.685,1.794,-1.422
2734.0,-15.241,3.066,7.956,-1.739,1.576,-1.505
2738.0,-15.241,3.066,7.956,-1.739,1.576,-1.505
2742.0,-14.673,2.9,7.373,-1.739,1.576,-1.526
2746.0,-14.673,2.9,7.373,-1.802,1.395,-1.526
2750.0,-14.673,2.9,7.373,-1.802,1.395,-1.526
2754.0,-13.713,2.542,6.839,-1.886,1.257,-1.507
2758.0,-13.713,2.542,6.839,-1.886,1.257,-1.507
2762.0,-12.567,2.259,6.874,-1.886,1.175,-1.496
2766.0,-12.567,2.259,6.874,-1.987,1.175,-1.496
2770.0,-12.567,2.259,6.874,-1.987,1.175,-1.496
2774.0,-11.827,1.905,7.014,-2.07,1.128,-1.493
2778.0,-11.827,1.905,7.014,-2.07,1.128,-1.493
2782.0,-11.485,1.714,7.696,-2.111,1.099,-1.487
2786.0,-11.485,1.714,7.696,-2.111,1.099,-1.487
2790.0,-11.485,1.714,7.696,-2.111,1.099,-1.487
2794.0,-11.344,1.657,9.01,-2.058,1.056,-1.479
2798.0,-11.344,1.657,9.01,-2.058,1.056,-1.479
2802.0,-11.286,1.496,10.107,-1.868,0.978,-1.477
2806.0,-11.286,1.496,10.107,-1.868,0.978,-1.477
2810.0,-11.286,1.496,10.107,-1.868,0.978,-1.477
2814.0,-11.355,1.402,10.975,-1.548,0.886,-1.461
2819.0,-11.355,1.402,10.975,-1.548,0.886,-1.461
2823.0,-11.594,1.293,11.556,-1.132,0.779,-1.392
2827.0,-11.594,1.293,11.556,-1.132,0.779,-1.392
2831.0,-11.594,1.155,11.74,-1.132,0.779,-1.392
2835.0,-11.74,1.155,11.74,-0.658,0.651,-1.238
2839.0,-11.74,1.155,11.74,-0.658,0.651,-1.238
2843.0,-11.62,0.986,11.564,-0.164,0.504,-1.014
2847.0,-11.62,0.986,11.564,-0.164,0.504,-1.014
2851.0,-11.322,0.864,11.103,0.308,0.351,-0.751
2855.0,-11.322,0.864,11.103,0.308,0.351,-0.751
2859.0,-11.322,0.864,11.103,0.308,0.351,-0.751
2863.0,-10.947,0.712,10.441,0.734,0.206,-0.485
2867.0,-10.947,0.712,10.441,0.734,0.206,-0.485
2871.0,-10.566,0.603,9.673,1.098,0.074,-0.242
2875.0,-10.566,0.603,9.673,1.098,0.074,-0.242
2879.0,-10.566,0.603,9.673,1.098,0.074,-0.242
2883.0,-10.212,0.578,8.855,1.39,-0.041,-0.03
2887.0,-10.212,0.578,8.855,1.39,-0.041,-0.03
2891.0,-9.938,0.653,7.984,1.604,-0.141,0.161
2895.0,-9.938,0.653,7.984,1.604,-0.141,0.161
2898.0,-9.938,0.653,7.984,1.604,-0.141,0.161
2902.0,-9.716,0.762,7.105,1.737,-0.223,0.343
2906.0,-9.716,0.762,7.105,1.737,-0.223,0.343
2910.0,-9.58,0.864,6.24,1.737,-0.223,0.343
2914.0,-9.58,0.864,6.24,1.793,-0.286,0.526
2918.0,-9.58,0.864,6.24,1.793,-0.286,0.526
2921.0,-9.528,0.909,5.407,1.779,-0.329,0.703
2925.0,-9.528,0.909,5.407,1.779,-0.329,0.703
2929.0,-9.528,0.909,5.407,1.779,-0.329,0.703
2933.0,-9.507,0.934,4.633,1.705,-0.35,0.867
2937.0,-9.507,0.934,4.633,1.705,-0.35,0.867
2941.0,-9.562,0.976,3.99,1.578,-0.354,1.012
2944.0,-9.562,0.976,3.99,1.578,-0.354,1.012
2948.0,-9.562,0.976,3.99,1.578,-0.354,1.012
2952.0,-9.724,0.972,3.461,1.406,-0.352,1.135
2956.0,-9.724,0.972,3.461,1.406,-0.352,1.135
2960.0,-9.971,0.934,3.056,1.406,-0.357,1.235
2963.0,-9.971,0.934,3.056,1.199,-0.357,1.235
2967.0,-9.971,0.934,3.056,1.199,-0.357,1.235
2971.0,-10.239,0.885,2.728,0.968,-0.382,1.312
2975.0,-10.239,0.885,2.728,0.968,-0.382,1.312
2979.0,-10.499,0.788,2.464,0.968,-0.382,1.312
2983.0,-10.499,0.788,2.464,0.72,-0.43,1.357
2987.0,-10.499,0.788,2.464,0.72,-0.43,1.357
2991.0,-10.744,0.656,2.325,0.454,-0.499,1.359
2995.0,-10.744,0.656,2.325,0.454,-0.499,1.359
2998.0,-10.744,0.656,2.477,0.454,-0.499,1.359
