deltaTime,Acc_X,Acc_Y,Acc_Z,Gyro_X,Gyro_Y,Gyro_Z
0.0,-7.193,-5.207,-3.236,-0.31,0.205,-0.198
3.0,-7.193,-5.207,-3.236,-0.31,0.205,-0.198
6.0,-7.255,-4.975,-3.364,-0.31,0.162,-0.192
9.0,-7.255,-4.975,-3.364,-0.331,0.162,-0.192
12.0,-7.255,-4.975,-3.364,-0.331,0.162,-0.192
15.0,-7.255,-4.975,-3.453,-0.331,0.162,-0.192
18.0,-7.218,-4.962,-3.453,-0.369,0.131,-0.162
21.0,-7.218,-4.962,-3.453,-0.369,0.131,-0.162
24.0,-7.218,-4.962,-3.453,-0.369,0.131,-0.162
27.0,-7.348,-5.101,-3.46,-0.398,0.11,-0.105
30.0,-7.348,-5.101,-3.46,-0.398,0.11,-0.105
34.0,-7.348,-5.101,-3.46,-0.398,0.11,-0.105
38.0,-7.46,-5.225,-3.489,-0.409,0.091,-0.033
42.0,-7.46,-5.225,-3.489,-0.409,0.091,-0.033
45.0,-7.51,-5.25,-3.413,-0.426,0.066,0.04
49.0,-7.51,-5.25,-3.413,-0.426,0.066,0.04
53.0,-7.51,-5.25,-3.413,-0.426,0.066,0.04
57.0,-7.411,-5.341,-3.52,-0.457,0.023,0.089
61.0,-7.411,-5.341,-3.52,-0.457,0.023,0.089
65.0,-7.4,-5.662,-3.653,-0.457,0.023,0.089
68.0,-7.4,-5.662,-3.653,-0.478,-0.008,0.099
72.0,-7.4,-5.662,-3.653,-0.478,-0.008,0.099
76.0,-7.395,-5.999,-3.634,-0.453,-0.012,0.066
80.0,-7.395,-5.999,-3.634,-0.453,-0.012,0.066
84.0,-7.395,-6.104,-3.424,-0.453,-0.012,0.066
88.0,-7.314,-6.104,-3.424,-0.381,0.001,0.019
92.0,-7.314,-6.104,-3.424,-0.381,0.001,0.019
96.0,-7.304,-5.911,-3.179,-0.293,0.009,-0.016
99.0,-7.304,-5.911,-3.179,-0.293,0.009,-0.016
103.0,-7.304,-5.911,-3.179,-0.293,0.009,-0.016
107.0,-7.356,-5.55,-3.148,-0.236,-0.003,-0.037
111.0,-7.356,-5.55,-3.148,-0.236,-0.003,-0.037
116.0,-7.398,-5.237,-3.354,-0.23,-0.026,-0.033
120.0,-7.398,-5.237,-3.354,-0.23,-0.026,-0.033
124.0,-7.464,-4.917,-3.698,-0.23,-0.026,-0.033
128.0,-7.464,-4.917,-3.698,-0.276,-0.056,-0.011
132.0,-7.464,-4.917,-3.698,-0.276,-0.056,-0.011
136.0,-7.422,-4.724,-3.917,-0.362,-0.083,0.012
140.0,-7.422,-4.724,-3.917,-0.362,-0.083,0.012
144.0,-7.347,-4.437,-3.963,-0.362,-0.102,0.032
148.0,-7.347,-4.437,-3.963,-0.463,-0.102,0.032
152.0,-7.347,-4.437,-3.963,-0.463,-0.102,0.032
156.0,-7.29,-4.343,-3.974,-0.551,-0.119,0.055
160.0,-7.29,-4.343,-3.974,-0.551,-0.119,0.055
164.0,-7.218,-4.484,-3.797,-0.601,-0.126,0.074
168.0,-7.218,-4.484,-3.797,-0.601,-0.126,0.074
172.0,-7.218,-4.484,-3.797,-0.601,-0.126,0.074
176.0,-7.327,-4.697,-3.687,-0.572,-0.118,0.107
180.0,-7.327,-4.697,-3.687,-0.572,-0.118,0.107
184.0,-7.504,-4.693,-3.512,-0.489,-0.101,0.147
188.0,-7.504,-4.693,-3.512,-0.489,-0.101,0.147
192.0,-7.504,-4.693,-3.512,-0.489,-0.101,0.147
196.0,-7.6,-4.528,-3.295,-0.397,-0.101,0.19
200.0,-7.6,-4.528,-3.295,-0.397,-0.101,0.19
204.0,-7.613,-4.311,-3.157,-0.322,-0.127,0.235
208.0,-7.613,-4.311,-3.157,-0.322,-0.127,0.235
212.0,-7.613,-4.311,-3.157,-0.322,-0.127,0.235
216.0,-7.817,-4.205,-3.306,-0.271,-0.17,0.29
220.0,-7.817,-4.205,-3.306,-0.271,-0.17,0.29
224.0,-8.214,-4.228,-3.456,-0.233,-0.209,0.354
228.0,-8.214,-4.228,-3.456,-0.233,-0.209,0.354
232.0,-8.214,-4.228,-3.456,-0.233,-0.209,0.354
236.0,-8.964,-4.266,-3.282,-0.194,-0.259,0.418
240.0,-8.964,-4.266,-3.282,-0.194,-0.259,0.418
244.0,-9.425,-3.907,-3.148,-0.163,-0.344,0.493
248.0,-9.425,-3.907,-3.148,-0.163,-0.344,0.493
252.0,-9.425,-3.907,-3.252,-0.163,-0.344,0.493
256.0,-9.873,-3.392,-3.252,-0.177,-0.467,0.59
260.0,-9.873,-3.392,-3.252,-0.177,-0.467,0.59
264.0,-10.293,-2.829,-3.891,-0.238,-0.613,0.747
268.0,-10.293,-2.829,-3.891,-0.238,-0.613,0.747
272.0,-9.609,-2.687,-4.733,-0.238,-0.613,0.747
276.0,-9.609,-2.687,-4.733,-0.358,-0.715,0.954
280.0,-9.609,-2.687,-4.733,-0.358,-0.715,0.954
284.0,-8.544,-2.785,-5.304,-0.514,-0.712,1.172
288.0,-8.544,-2.785,-5.304,-0.514,-0.712,1.172
292.0,-7.795,-3.068,-5.419,-0.514,-0.652,1.366
296.0,-7.795,-3.068,-5.419,-0.703,-0.652,1.366
300.0,-7.795,-3.068,-5.419,-0.703,-0.652,1.366
304.0,-7.496,-3.515,-5.269,-0.916,-0.553,1.469
308.0,-7.496,-3.515,-5.269,-0.916,-0.553,1.469
312.0,-7.718,-3.949,-4.91,-1.109,-0.455,1.455
316.0,-7.718,-3.949,-4.91,-1.109,-0.455,1.455
320.0,-7.718,-3.949,-4.91,-1.109,-0.455,1.455
324.0,-8.03,-4.117,-4.684,-1.253,-0.39,1.327
328.0,-8.03,-4.117,-4.684,-1.253,-0.39,1.327
332.0,-8.384,-3.951,-4.624,-1.365,-0.363,1.122
336.0,-8.384,-3.951,-4.624,-1.365,-0.363,1.122
340.0,-8.384,-3.951,-4.624,-1.365,-0.363,1.122
344.0,-8.669,-3.531,-4.789,-1.478,-0.378,0.884
348.0,-8.669,-3.531,-4.789,-1.478,-0.378,0.884
352.0,-8.486,-3.191,-5.256,-1.601,-0.397,0.662
356.0,-8.486,-3.191,-5.256,-1.601,-0.397,0.662
360.0,-8.486,-3.191,-5.256,-1.601,-0.397,0.662
364.0,-8.137,-3.144,-5.716,-1.69,-0.368,0.495
368.0,-8.137,-3.144,-5.716,-1.69,-0.368,0.495
372.0,-7.698,-3.117,-5.849,-1.69,-0.277,0.408
376.0,-7.698,-3.117,-5.849,-1.69,-0.277,0.408
380.0,-7.698,-3.117,-5.849,-1.69,-0.277,0.408
384.0,-7.302,-3.106,-5.576,-1.579,-0.155,0.429
388.0,-7.302,-3.106,-5.576,-1.579,-0.155,0.429
392.0,-7.146,-3.088,-5.21,-1.395,-0.044,0.533
396.0,-7.146,-3.088,-5.21,-1.395,-0.044,0.533
400.0,-7.146,-3.088,-4.856,-1.395,-0.044,0.533
404.0,-7.026,-3.107,-4.856,-1.2,0.047,0.669
408.0,-7.026,-3.107,-4.856,-1.2,0.047,0.669
411.0,-7.07,-3.197,-4.493,-1.019,0.121,0.799
415.0,-7.07,-3.197,-4.493,-1.019,0.121,0.799
419.0,-7.07,-3.197,-4.493,-1.019,0.121,0.799
423.0,-7.207,-3.276,-4.351,-0.861,0.186,0.884
427.0,-7.207,-3.276,-4.351,-0.861,0.186,0.884
431.0,-7.371,-3.142,-4.025,-0.723,0.258,0.914
435.0,-7.371,-3.142,-4.025,-0.723,0.258,0.914
439.0,-7.371,-3.142,-4.025,-0.723,0.258,0.914
443.0,-7.545,-2.929,-3.473,-0.598,0.324,0.924
447.0,-7.545,-2.929,-3.473,-0.598,0.324,0.924
450.0,-7.841,-2.599,-2.798,-0.498,0.36,0.938
454.0,-7.841,-2.599,-2.798,-0.498,0.36,0.938
458.0,-7.841,-2.599,-2.798,-0.498,0.36,0.938
462.0,-8.327,-2.224,-2.323,-0.444,0.35,0.963
466.0,-8.327,-2.224,-2.323,-0.444,0.35,0.963
470.0,-8.84,-1.98,-2.103,-0.446,0.304,1.008
474.0,-8.84,-1.98,-2.103,-0.446,0.304,1.008
478.0,-8.84,-1.98,-2.103,-0.446,0.304,1.008
482.0,-9.169,-1.83,-1.957,-0.51,0.242,1.068
486.0,-9.169,-1.83,-1.957,-0.51,0.242,1.068
490.0,-9.274,-1.728,-1.819,-0.627,0.176,1.126
493.0,-9.274,-1.728,-1.819,-0.627,0.176,1.126
497.0,-9.274,-1.728,-1.819,-0.627,0.176,1.126
501.0,-9.187,-1.714,-1.74,-0.779,0.098,1.164
505.0,-9.187,-1.714,-1.74,-0.779,0.098,1.164
509.0,-9.06,-1.701,-1.582,-0.779,0.012,1.174
513.0,-9.06,-1.701,-1.582,-0.936,0.012,1.174
517.0,-9.06,-1.701,-1.582,-0.936,0.012,1.174
521.0,-8.977,-1.601,-1.37,-1.083,-0.081,1.162
525.0,-8.977,-1.601,-1.37,-1.083,-0.081,1.162
529.0,-8.926,-1.423,-1.121,-1.083,-0.186,1.141
533.0,-8.926,-1.423,-1.121,-1.221,-0.186,1.141
537.0,-8.926,-1.423,-1.121,-1.221,-0.186,1.141
541.0,-8.684,-1.396,-1.045,-1.355,-0.289,1.11
545.0,-8.684,-1.396,-1.045,-1.355,-0.289,1.11
549.0,-8.409,-1.564,-0.754,-1.462,-0.362,1.043
553.0,-8.409,-1.564,-0.754,-1.462,-0.362,1.043
557.0,-8.409,-1.564,-0.754,-1.462,-0.362,1.043
561.0,-8.459,-1.75,-0.264,-1.497,-0.427,0.933
565.0,-8.459,-1.75,-0.264,-1.497,-0.427,0.933
569.0,-8.907,-1.756,0.177,-1.453,-0.52,0.803
573.0,-8.907,-1.756,0.177,-1.453,-0.52,0.803
577.0,-8.907,-1.756,0.177,-1.453,-0.52,0.803
580.0,-9.472,-1.557,0.457,-1.352,-0.657,0.682
584.0,-9.472,-1.557,0.457,-1.352,-0.657,0.682
588.0,-10.094,-1.265,0.611,-1.231,-0.836,0.602
592.0,-10.094,-1.265,0.611,-1.231,-0.836,0.602
596.0,-10.094,-1.265,0.611,-1.231,-0.836,0.602
600.0,-10.738,-1.046,0.558,-1.115,-1.051,0.58
604.0,-10.738,-1.046,0.558,-1.115,-1.051,0.58
608.0,-11.163,-0.836,0.454,-1.021,-1.276,0.609
612.0,-11.163,-0.836,0.454,-1.021,-1.276,0.609
616.0,-11.163,-0.836,0.454,-1.021,-1.276,0.609
620.0,-11.31,-0.593,0.377,-0.966,-1.492,0.664
624.0,-11.31,-0.593,0.377,-0.966,-1.492,0.664
628.0,-11.213,-0.354,0.286,-0.968,-1.699,0.725
632.0,-11.213,-0.354,0.286,-0.968,-1.699,0.725
636.0,-11.213,-0.354,0.286,-0.968,-1.699,0.725
640.0,-11.058,-0.123,0.193,-1.034,-1.893,0.773
644.0,-11.058,-0.123,0.193,-1.034,-1.893,0.773
648.0,-10.984,0.126,0.066,-1.161,-2.069,0.796
652.0,-10.984,0.126,0.066,-1.161,-2.069,0.796
656.0,-10.984,0.126,0.066,-1.161,-2.069,0.796
660.0,-10.947,0.357,-0.012,-1.342,-2.229,0.796
664.0,-10.947,0.357,-0.012,-1.342,-2.229,0.796
668.0,-10.943,0.523,-0.077,-1.564,-2.379,0.785
672.0,-10.943,0.523,-0.077,-1.564,-2.379,0.785
676.0,-10.943,0.523,-0.077,-1.564,-2.379,0.785
680.0,-10.988,0.525,-0.081,-1.797,-2.523,0.773
684.0,-10.988,0.525,-0.081,-1.797,-2.523,0.773
688.0,-11.108,0.459,-0.127,-2.021,-2.665,0.757
692.0,-11.108,0.459,-0.127,-2.021,-2.665,0.757
696.0,-11.108,0.459,-0.215,-2.021,-2.665,0.757
700.0,-11.285,0.43,-0.215,-2.237,-2.796,0.729
704.0,-11.285,0.43,-0.215,-2.237,-2.796,0.729
708.0,-11.45,0.406,-0.269,-2.451,-2.916,0.686
712.0,-11.45,0.406,-0.269,-2.451,-2.916,0.686
716.0,-11.45,0.371,-0.326,-2.451,-2.916,0.686
720.0,-11.585,0.371,-0.326,-2.666,-3.02,0.621
724.0,-11.585,0.371,-0.326,-2.666,-3.02,0.621
728.0,-11.686,0.303,-0.32,-2.881,-3.106,0.531
732.0,-11.686,0.303,-0.32,-2.881,-3.106,0.531
736.0,-11.796,0.205,-0.273,-2.881,-3.106,0.531
740.0,-11.796,0.205,-0.273,-3.094,-3.177,0.415
744.0,-11.796,0.205,-0.273,-3.094,-3.177,0.415
748.0,-11.912,0.069,-0.193,-3.299,-3.23,0.275
752.0,-11.912,0.069,-0.193,-3.299,-3.23,0.275
756.0,-12.066,-0.117,-0.129,-3.299,-3.23,0.11
760.0,-12.066,-0.117,-0.129,-3.487,-3.263,0.11
764.0,-12.066,-0.117,-0.129,-3.487,-3.263,0.11
768.0,-12.218,-0.326,0.016,-3.65,-3.282,-0.078
772.0,-12.218,-0.326,0.016,-3.65,-3.282,-0.078
776.0,-12.418,-0.497,0.251,-3.774,-3.296,-0.282
780.0,-12.418,-0.497,0.251,-3.774,-3.296,-0.282
784.0,-12.418,-0.497,0.251,-3.774,-3.296,-0.282
788.0,-12.732,-0.59,0.472,-3.854,-3.316,-0.493
792.0,-12.732,-0.59,0.472,-3.854,-3.316,-0.493
796.0,-12.974,-0.685,0.57,-3.893,-3.34,-0.697
801.0,-12.974,-0.685,0.57,-3.893,-3.34,-0.697
805.0,-12.974,-0.838,0.636,-3.893,-3.34,-0.697
809.0,-13.054,-0.838,0.636,-3.891,-3.35,-0.896
813.0,-13.054,-0.838,0.636,-3.891,-3.35,-0.896
817.0,-12.985,-0.997,0.683,-3.848,-3.338,-1.095
821.0,-12.985,-0.997,0.683,-3.848,-3.338,-1.095
825.0,-12.823,-1.186,0.701,-3.759,-3.3,-1.291
829.0,-12.823,-1.186,0.701,-3.759,-3.3,-1.291
833.0,-12.823,-1.186,0.701,-3.759,-3.3,-1.291
837.0,-12.633,-1.334,0.802,-3.623,-3.239,-1.478
841.0,-12.633,-1.334,0.802,-3.623,-3.239,-1.478
845.0,-12.471,-1.476,0.87,-3.45,-3.167,-1.642
850.0,-12.471,-1.476,0.87,-3.45,-3.167,-1.642
854.0,-12.471,-1.476,0.87,-3.45,-3.167,-1.642
858.0,-12.332,-1.635,0.973,-3.252,-3.083,-1.777
862.0,-12.332,-1.635,0.973,-3.252,-3.083,-1.777
866.0,-12.415,-1.793,1.077,-3.029,-2.986,-1.895
870.0,-12.415,-1.793,1.077,-3.029,-2.986,-1.895
874.0,-12.596,-1.962,1.107,-3.029,-2.986,-1.895
878.0,-12.596,-1.962,1.107,-2.786,-2.882,-2.002
882.0,-12.596,-1.962,1.107,-2.786,-2.882,-2.002
886.0,-12.477,-2.124,1.141,-2.525,-2.777,-2.096
890.0,-12.477,-2.124,1.141,-2.525,-2.777,-2.096
894.0,-12.127,-2.298,1.259,-2.254,-2.672,-2.182
898.0,-12.127,-2.298,1.259,-2.254,-2.672,-2.182
903.0,-12.127,-2.298,1.259,-2.254,-2.672,-2.182
907.0,-11.801,-2.458,1.446,-1.978,-2.572,-2.258
911.0,-11.801,-2.458,1.446,-1.978,-2.572,-2.258
915.0,-11.578,-2.632,1.627,-1.697,-2.483,-2.314
919.0,-11.578,-2.632,1.627,-1.697,-2.483,-2.314
923.0,-11.578,-2.632,1.716,-1.697,-2.483,-2.314
927.0,-11.497,-2.804,1.716,-1.413,-2.407,-2.341
931.0,-11.497,-2.804,1.716,-1.413,-2.407,-2.341
935.0,-11.469,-2.955,1.726,-1.13,-2.333,-2.346
939.0,-11.469,-2.955,1.726,-1.13,-2.333,-2.346
943.0,-11.368,-3.085,1.677,-1.13,-2.258,-2.328
947.0,-11.368,-3.085,1.677,-0.858,-2.258,-2.328
952.0,-11.368,-3.085,1.677,-0.858,-2.258,-2.328
956.0,-11.015,-3.15,1.589,-0.602,-2.18,-2.299
960.0,-11.015,-3.15,1.589,-0.602,-2.18,-2.299
964.0,-10.496,-3.174,1.539,-0.365,-2.093,-2.261
968.0,-10.496,-3.174,1.539,-0.365,-2.093,-2.261
972.0,-10.496,-3.174,1.539,-0.365,-2.093,-2.261
976.0,-10.026,-3.131,1.506,-0.145,-1.995,-2.216
980.0,-10.026,-3.131,1.506,-0.145,-1.995,-2.216
984.0,-9.595,-2.973,1.452,0.061,-1.885,-2.149
988.0,-9.595,-2.973,1.452,0.061,-1.885,-2.149
992.0,-9.595,-2.973,1.432,0.061,-1.885,-2.149
996.0,-9.11,-2.846,1.432,0.247,-1.766,-2.054
1000.0,-9.11,-2.846,1.432,0.247,-1.766,-2.054
1004.0,-8.57,-2.586,1.465,0.417,-1.637,-1.939
1008.0,-8.57,-2.586,1.465,0.417,-1.637,-1.939
1012.0,-8.57,-2.586,1.494,0.417,-1.637,-1.939
1016.0,-8.11,-2.283,1.494,0.547,-1.512,-1.816
1020.0,-8.11,-2.283,1.494,0.547,-1.512,-1.816
1024.0,-7.734,-2.066,1.541,0.638,-1.382,-1.676
1028.0,-7.734,-2.066,1.541,0.638,-1.382,-1.676
1032.0,-7.388,-1.896,1.67,0.638,-1.382,-1.676
1036.0,-7.388,-1.896,1.67,0.704,-1.245,-1.519
1040.0,-7.388,-1.896,1.67,0.704,-1.245,-1.519
1044.0,-7.073,-1.783,1.767,0.757,-1.107,-1.354
1048.0,-7.073,-1.783,1.767,0.757,-1.107,-1.354
1052.0,-6.754,-1.678,1.813,0.757,-1.107,-1.184
1056.0,-6.754,-1.678,1.813,0.797,-0.97,-1.184
1060.0,-6.754,-1.678,1.813,0.797,-0.97,-1.184
1064.0,-6.41,-1.558,1.818,0.815,-0.826,-1.021
1068.0,-6.41,-1.558,1.818,0.815,-0.826,-1.021
1072.0,-6.089,-1.478,1.835,0.815,-0.669,-0.865
1076.0,-6.089,-1.478,1.835,0.813,-0.669,-0.865
1080.0,-6.089,-1.478,1.835,0.813,-0.669,-0.865
1084.0,-5.819,-1.437,1.845,0.792,-0.495,-0.711
1088.0,-5.819,-1.437,1.845,0.792,-0.495,-0.711
1092.0,-5.608,-1.367,1.863,0.759,-0.305,-0.561
1096.0,-5.608,-1.367,1.863,0.759,-0.305,-0.561
1100.0,-5.608,-1.367,1.863,0.759,-0.305,-0.561
1104.0,-5.483,-1.291,1.866,0.716,-0.1,-0.412
1108.0,-5.483,-1.291,1.866,0.716,-0.1,-0.412
1112.0,-5.374,-1.187,1.883,0.664,0.115,-0.257
1116.0,-5.374,-1.187,1.883,0.664,0.115,-0.257
1119.0,-5.374,-1.187,1.883,0.664,0.115,-0.257
1123.0,-5.308,-1.12,1.953,0.607,0.336,-0.099
1127.0,-5.308,-1.12,1.953,0.607,0.336,-0.099
1131.0,-5.389,-1.065,2.053,0.549,0.554,0.066
1135.0,-5.389,-1.065,2.053,0.549,0.554,0.066
1139.0,-5.389,-1.065,2.053,0.549,0.554,0.066
1143.0,-5.587,-1.025,2.144,0.493,0.76,0.236
1146.0,-5.587,-1.025,2.144,0.493,0.76,0.236
1150.0,-5.848,-1.01,2.185,0.493,0.76,0.236
1154.0,-5.848,-1.01,2.185,0.44,0.952,0.407
1158.0,-5.848,-1.01,2.185,0.44,0.952,0.407
1162.0,-6.098,-1.013,2.222,0.39,1.136,0.575
1166.0,-6.098,-1.013,2.222,0.39,1.136,0.575
1169.0,-6.098,-1.013,2.222,0.39,1.136,0.575
1173.0,-6.33,-1.064,2.258,0.347,1.313,0.741
1177.0,-6.33,-1.064,2.258,0.347,1.313,0.741
1181.0,-6.531,-1.128,2.298,0.315,1.48,0.904
1185.0,-6.531,-1.128,2.298,0.315,1.48,0.904
1188.0,-6.531,-1.128,2.298,0.315,1.48,0.904
1192.0,-6.741,-1.215,2.326,0.297,1.641,1.061
1196.0,-6.741,-1.215,2.326,0.297,1.641,1.061
1200.0,-6.976,-1.388,2.352,0.297,1.641,1.21
1204.0,-6.976,-1.388,2.352,0.295,1.797,1.21
1208.0,-6.976,-1.388,2.352,0.295,1.797,1.21
1211.0,-7.268,-1.541,2.369,0.319,1.954,1.353
1215.0,-7.268,-1.541,2.369,0.319,1.954,1.353
1219.0,-7.268,-1.541,2.454,0.319,1.954,1.353
1223.0,-7.644,-1.716,2.454,0.363,2.105,1.477
1227.0,-7.644,-1.716,2.454,0.363,2.105,1.477
1230.0,-8.145,-1.834,2.539,0.427,2.242,1.582
1234.0,-8.145,-1.834,2.539,0.427,2.242,1.582
1238.0,-8.145,-1.834,2.539,0.427,2.242,1.582
1242.0,-8.792,-1.954,2.783,0.504,2.354,1.672
1246.0,-8.792,-1.954,2.783,0.504,2.354,1.672
1250.0,-9.508,-2.048,2.973,0.593,2.422,1.756
1253.0,-9.508,-2.048,2.973,0.593,2.422,1.756
1257.0,-9.508,-2.048,2.973,0.593,2.422,1.756
1261.0,-10.086,-2.121,3.108,0.688,2.445,1.831
1265.0,-10.086,-2.121,3.108,0.688,2.445,1.831
1269.0,-10.488,-2.152,3.175,0.688,2.445,1.831
1273.0,-10.488,-2.152,3.175,0.785,2.431,1.893
1277.0,-10.488,-2.152,3.175,0.785,2.431,1.893
1281.0,-10.706,-2.14,3.108,0.878,2.392,1.941
1284.0,-10.706,-2.14,3.108,0.878,2.392,1.941
1288.0,-10.706,-2.076,2.936,0.878,2.392,1.941
1292.0,-10.738,-2.076,2.936,0.96,2.352,1.976
1296.0,-10.738,-2.076,2.936,0.96,2.352,1.976
1300.0,-10.687,-1.988,2.718,1.032,2.328,1.999
1304.0,-10.687,-1.988,2.718,1.032,2.328,1.999
1308.0,-10.687,-1.988,2.451,1.032,2.328,1.999
1312.0,-10.622,-1.869,2.451,1.094,2.33,2.01
1316.0,-10.622,-1.869,2.451,1.094,2.33,2.01
1320.0,-10.583,-1.726,2.212,1.146,2.365,2.011
1323.0,-10.583,-1.726,2.212,1.146,2.365,2.011
1327.0,-10.583,-1.726,2.212,1.146,2.365,2.011
1331.0,-10.588,-1.583,2.021,1.184,2.425,2.002
1335.0,-10.588,-1.583,2.021,1.184,2.425,2.002
1339.0,-10.656,-1.448,1.933,1.212,2.498,1.979
1343.0,-10.656,-1.448,1.933,1.212,2.498,1.979
1347.0,-10.656,-1.448,1.933,1.212,2.498,1.979
1351.0,-10.835,-1.327,1.912,1.232,2.574,1.942
1355.0,-10.835,-1.327,1.912,1.232,2.574,1.942
1359.0,-11.064,-1.229,1.999,1.248,2.635,1.894
1363.0,-11.064,-1.229,1.999,1.248,2.635,1.894
1366.0,-11.064,-1.229,1.999,1.248,2.635,1.894
1370.0,-11.335,-1.135,2.179,1.262,2.666,1.833
1374.0,-11.335,-1.135,2.179,1.262,2.666,1.833
1378.0,-11.649,-1.069,2.398,1.276,2.66,1.761
1382.0,-11.649,-1.069,2.398,1.276,2.66,1.761
1386.0,-11.649,-1.069,2.398,1.276,2.66,1.761
1390.0,-11.92,-1.018,2.627,1.29,2.614,1.681
1394.0,-11.92,-1.018,2.627,1.29,2.614,1.681
1398.0,-12.072,-0.982,2.815,1.301,2.53,1.597
1402.0,-12.072,-0.982,2.815,1.301,2.53,1.597
1406.0,-12.072,-0.982,2.815,1.301,2.53,1.597
1409.0,-12.132,-0.949,2.956,1.304,2.418,1.508
1413.0,-12.132,-0.949,2.956,1.304,2.418,1.508
1417.0,-12.079,-0.926,3.022,1.304,2.289,1.41
1421.0,-12.079,-0.926,3.022,1.295,2.289,1.41
1425.0,-12.079,-0.926,3.022,1.295,2.289,1.41
1429.0,-11.979,-0.881,3.032,1.272,2.154,1.299
1433.0,-11.979,-0.881,3.032,1.272,2.154,1.299
1437.0,-11.922,-0.819,3.051,1.272,2.154,1.174
1441.0,-11.922,-0.819,3.051,1.235,2.012,1.174
1445.0,-11.922,-0.819,3.051,1.235,2.012,1.174
1448.0,-11.916,-0.705,3.025,1.183,1.865,1.034
1452.0,-11.916,-0.705,3.025,1.183,1.865,1.034
1456.0,-11.809,-0.576,2.998,1.183,1.865,1.034
1460.0,-11.809,-0.576,2.998,1.116,1.715,0.881
1464.0,-11.809,-0.576,2.998,1.116,1.715,0.881
1468.0,-11.598,-0.424,2.964,1.031,1.563,0.72
1472.0,-11.598,-0.424,2.964,1.031,1.563,0.72
1476.0,-11.598,-0.251,2.931,1.031,1.563,0.72
1480.0,-11.299,-0.251,2.931,0.931,1.418,0.555
1484.0,-11.299,-0.251,2.931,0.931,1.418,0.555
1488.0,-10.979,-0.098,2.896,0.814,1.282,0.39
1491.0,-10.979,-0.098,2.896,0.814,1.282,0.39
