deltaTime,Acc_X,Acc_Y,Acc_Z,Gyro_X,Gyro_Y,Gyro_Z
0.0,-9.307,-1.496,1.444,0.173,0.236,0.34
3.0,-9.203,-1.601,1.464,0.088,0.251,0.356
6.0,-9.203,-1.601,1.464,0.088,0.251,0.356
9.0,-9.203,-1.601,1.464,0.088,0.251,0.356
12.0,-9.132,-1.607,1.54,0.01,0.281,0.36
15.0,-9.132,-1.607,1.54,0.01,0.281,0.36
18.0,-9.132,-1.607,1.54,0.01,0.281,0.36
21.0,-9.132,-1.607,1.664,0.01,0.281,0.36
24.0,-9.219,-1.595,1.664,-0.077,0.32,0.355
27.0,-9.219,-1.595,1.664,-0.077,0.32,0.355
30.0,-9.219,-1.595,1.664,-0.077,0.32,0.355
33.0,-9.325,-1.579,1.774,-0.164,0.345,0.347
36.0,-9.325,-1.579,1.774,-0.164,0.345,0.347
39.0,-9.325,-1.579,1.774,-0.164,0.345,0.347
43.0,-9.502,-1.637,1.813,-0.244,0.36,0.339
47.0,-9.502,-1.637,1.813,-0.244,0.36,0.339
50.0,-9.502,-1.637,1.813,-0.244,0.36,0.339
54.0,-9.602,-1.694,1.869,-0.307,0.371,0.328
58.0,-9.602,-1.694,1.869,-0.307,0.371,0.328
62.0,-9.617,-1.759,1.929,-0.351,0.378,0.314
65.0,-9.617,-1.759,1.929,-0.351,0.378,0.314
69.0,-9.617,-1.759,1.929,-0.351,0.378,0.314
73.0,-9.538,-1.726,1.966,-0.381,0.386,0.297
77.0,-9.538,-1.726,1.966,-0.381,0.386,0.297
80.0,-9.538,-1.726,2.057,-0.381,0.386,0.297
84.0,-9.583,-1.684,2.057,-0.412,0.395,0.277
88.0,-9.583,-1.684,2.057,-0.412,0.395,0.277
91.0,-9.687,-1.707,2.216,-0.438,0.403,0.257
95.0,-9.687,-1.707,2.216,-0.438,0.403,0.257
99.0,-9.687,-1.707,2.216,-0.438,0.403,0.257
103.0,-9.791,-1.692,2.436,-0.451,0.403,0.235
106.0,-9.791,-1.692,2.436,-0.451,0.403,0.235
110.0,-9.876,-1.609,2.699,-0.451,0.403,0.235
114.0,-9.876,-1.609,2.699,-0.455,0.388,0.207
118.0,-9.876,-1.609,2.699,-0.455,0.388,0.207
122.0,-10.01,-1.68,2.925,-0.444,0.355,0.174
126.0,-10.01,-1.68,2.925,-0.444,0.355,0.174
130.0,-10.01,-1.68,2.983,-0.444,0.355,0.174
133.0,-9.88,-1.609,2.983,-0.399,0.308,0.136
137.0,-9.88,-1.609,2.983,-0.399,0.308,0.136
141.0,-9.623,-1.247,3.005,-0.363,0.286,0.078
145.0,-9.623,-1.247,3.005,-0.363,0.286,0.078
149.0,-9.623,-1.247,3.005,-0.363,0.286,0.078
153.0,-9.828,-1.264,3.072,-0.362,0.279,0.022
156.0,-9.828,-1.264,3.072,-0.362,0.279,0.022
160.0,-9.791,-1.096,3.015,-0.334,0.244,-0.027
164.0,-9.791,-1.096,3.015,-0.334,0.244,-0.027
168.0,-9.791,-1.096,3.015,-0.334,0.244,-0.027
172.0,-9.783,-0.765,2.873,-0.328,0.209,-0.082
176.0,-9.783,-0.765,2.873,-0.328,0.209,-0.082
180.0,-9.933,-0.548,2.73,-0.328,0.157,-0.137
184.0,-9.933,-0.548,2.73,-0.36,0.157,-0.137
188.0,-9.933,-0.548,2.73,-0.36,0.157,-0.137
191.0,-10.126,-0.506,2.587,-0.422,0.102,-0.182
195.0,-10.126,-0.506,2.587,-0.422,0.102,-0.182
199.0,-10.126,-0.542,2.447,-0.422,0.041,-0.217
203.0,-10.126,-0.542,2.447,-0.489,0.041,-0.217
207.0,-10.126,-0.542,2.447,-0.489,0.041,-0.217
211.0,-10.169,-0.617,2.303,-0.551,-0.012,-0.249
215.0,-10.169,-0.617,2.303,-0.551,-0.012,-0.249
220.0,-10.271,-0.684,2.211,-0.606,-0.056,-0.284
224.0,-10.271,-0.684,2.211,-0.606,-0.056,-0.284
228.0,-10.271,-0.684,2.211,-0.606,-0.056,-0.284
232.0,-10.238,-0.656,2.138,-0.664,-0.091,-0.309
236.0,-10.238,-0.656,2.138,-0.664,-0.091,-0.309
240.0,-10.141,-0.624,2.098,-0.729,-0.114,-0.312
244.0,-10.141,-0.624,2.098,-0.729,-0.114,-0.312
248.0,-10.141,-0.624,2.072,-0.729,-0.114,-0.312
252.0,-10.085,-0.645,2.072,-0.8,-0.127,-0.295
256.0,-10.085,-0.645,2.072,-0.8,-0.127,-0.295
260.0,-10.052,-0.711,2.069,-0.869,-0.132,-0.262
264.0,-10.052,-0.711,2.069,-0.869,-0.132,-0.262
269.0,-9.973,-0.813,2.064,-0.869,-0.133,-0.216
273.0,-9.973,-0.813,2.064,-0.935,-0.133,-0.216
277.0,-9.973,-0.813,2.064,-0.935,-0.133,-0.216
281.0,-9.864,-0.952,2.06,-0.995,-0.13,-0.157
285.0,-9.864,-0.952,2.06,-0.995,-0.13,-0.157
288.0,-9.728,-1.125,2.071,-1.045,-0.123,-0.092
292.0,-9.728,-1.125,2.071,-1.045,-0.123,-0.092
296.0,-9.728,-1.125,2.071,-1.045,-0.123,-0.092
300.0,-9.601,-1.299,2.077,-1.078,-0.112,-0.02
304.0,-9.601,-1.299,2.077,-1.078,-0.112,-0.02
308.0,-9.465,-1.449,2.094,-1.093,-0.099,0.05
312.0,-9.465,-1.449,2.094,-1.093,-0.099,0.05
316.0,-9.465,-1.449,2.094,-1.093,-0.099,0.05
320.0,-9.315,-1.585,2.118,-1.088,-0.08,0.119
324.0,-9.315,-1.585,2.118,-1.088,-0.08,0.119
328.0,-9.193,-1.698,2.145,-1.063,-0.057,0.192
332.0,-9.193,-1.698,2.145,-1.063,-0.057,0.192
336.0,-9.193,-1.698,2.145,-1.063,-0.057,0.192
340.0,-9.101,-1.788,2.143,-1.016,-0.032,0.273
344.0,-9.101,-1.788,2.143,-1.016,-0.032,0.273
348.0,-9.039,-1.908,2.151,-1.016,-0.002,0.364
351.0,-9.039,-1.908,2.151,-0.945,-0.002,0.364
355.0,-9.039,-1.908,2.151,-0.945,-0.002,0.364
359.0,-9.041,-2.023,2.139,-0.852,0.032,0.464
363.0,-9.041,-2.023,2.139,-0.852,0.032,0.464
367.0,-9.02,-2.15,2.135,-0.852,0.032,0.464
371.0,-9.02,-2.15,2.135,-0.742,0.065,0.567
375.0,-9.02,-2.15,2.135,-0.742,0.065,0.567
378.0,-9.039,-2.25,2.125,-0.618,0.097,0.668
382.0,-9.039,-2.25,2.125,-0.618,0.097,0.668
386.0,-9.039,-2.25,2.125,-0.618,0.097,0.668
390.0,-9.078,-2.343,2.111,-0.484,0.132,0.764
394.0,-9.078,-2.343,2.111,-0.484,0.132,0.764
397.0,-9.119,-2.415,2.104,-0.343,0.166,0.856
401.0,-9.119,-2.415,2.104,-0.343,0.166,0.856
405.0,-9.119,-2.415,2.104,-0.343,0.166,0.856
409.0,-9.161,-2.456,2.117,-0.194,0.199,0.942
413.0,-9.161,-2.456,2.117,-0.194,0.199,0.942
417.0,-9.205,-2.475,2.136,-0.194,0.199,1.023
420.0,-9.205,-2.475,2.136,-0.043,0.23,1.023
424.0,-9.205,-2.475,2.136,-0.043,0.23,1.023
428.0,-9.287,-2.469,2.182,0.106,0.258,1.096
432.0,-9.287,-2.469,2.182,0.106,0.258,1.096
435.0,-9.287,-2.469,2.182,0.106,0.258,1.096
439.0,-9.4,-2.47,2.218,0.252,0.279,1.159
443.0,-9.4,-2.47,2.218,0.252,0.279,1.159
447.0,-9.52,-2.428,2.244,0.39,0.291,1.208
450.0,-9.52,-2.428,2.244,0.39,0.291,1.208
454.0,-9.52,-2.428,2.244,0.39,0.291,1.208
458.0,-9.663,-2.364,2.253,0.514,0.296,1.243
462.0,-9.663,-2.364,2.253,0.514,0.296,1.243
465.0,-9.663,-2.364,2.249,0.514,0.296,1.243
469.0,-9.787,-2.282,2.249,0.62,0.292,1.263
473.0,-9.787,-2.282,2.249,0.62,0.292,1.263
477.0,-9.876,-2.193,2.213,0.706,0.28,1.265
480.0,-9.876,-2.193,2.213,0.706,0.28,1.265
484.0,-9.876,-2.193,2.213,0.706,0.28,1.265
488.0,-9.968,-2.101,2.173,0.771,0.263,1.25
491.0,-9.968,-2.101,2.173,0.771,0.263,1.25
495.0,-10.024,-1.98,2.132,0.771,0.263,1.25
499.0,-10.024,-1.98,2.132,0.814,0.242,1.215
503.0,-10.024,-1.98,2.132,0.814,0.242,1.215
507.0,-10.062,-1.852,2.091,0.832,0.218,1.165
510.0,-10.062,-1.852,2.091,0.832,0.218,1.165
514.0,-10.062,-1.852,2.091,0.832,0.218,1.165
518.0,-10.086,-1.737,2.042,0.824,0.192,1.098
522.0,-10.086,-1.737,2.042,0.824,0.192,1.098
526.0,-10.126,-1.627,1.993,0.797,0.163,1.017
530.0,-10.126,-1.627,1.993,0.797,0.163,1.017
533.0,-10.126,-1.627,1.993,0.797,0.163,1.017
537.0,-10.122,-1.535,1.962,0.749,0.134,0.926
541.0,-10.122,-1.535,1.962,0.749,0.134,0.926
545.0,-10.117,-1.477,1.969,0.749,0.134,0.827
549.0,-10.117,-1.477,1.969,0.685,0.106,0.827
552.0,-10.117,-1.477,1.969,0.685,0.106,0.827
556.0,-10.088,-1.433,2.014,0.608,0.076,0.724
560.0,-10.088,-1.433,2.014,0.608,0.076,0.724
564.0,-10.088,-1.433,2.051,0.608,0.076,0.724
568.0,-10.055,-1.394,2.051,0.52,0.043,0.617
572.0,-10.055,-1.394,2.051,0.52,0.043,0.617
575.0,-10.049,-1.376,2.075,0.421,0.007,0.507
579.0,-10.049,-1.376,2.075,0.421,0.007,0.507
583.0,-10.049,-1.376,2.075,0.421,0.007,0.507
587.0,-10.0,-1.369,2.145,0.312,-0.028,0.4
591.0,-10.0,-1.369,2.145,0.312,-0.028,0.4
595.0,-9.955,-1.416,2.218,0.2,-0.063,0.297
598.0,-9.955,-1.416,2.218,0.2,-0.063,0.297
602.0,-9.955,-1.416,2.218,0.2,-0.063,0.297
606.0,-9.876,-1.475,2.269,0.088,-0.104,0.194
610.0,-9.876,-1.475,2.269,0.088,-0.104,0.194
614.0,-9.799,-1.562,2.3,0.088,-0.104,0.194
618.0,-9.799,-1.562,2.3,-0.016,-0.148,0.092
621.0,-9.799,-1.562,2.3,-0.016,-0.148,0.092
625.0,-9.69,-1.619,2.295,-0.111,-0.194,-0.012
629.0,-9.69,-1.619,2.295,-0.111,-0.194,-0.012
633.0,-9.586,-1.667,2.244,-0.111,-0.194,-0.012
637.0,-9.586,-1.667,2.244,-0.191,-0.239,-0.114
641.0,-9.586,-1.667,2.244,-0.191,-0.239,-0.114
645.0,-9.497,-1.732,2.197,-0.257,-0.28,-0.21
649.0,-9.497,-1.732,2.197,-0.257,-0.28,-0.21
653.0,-9.424,-1.804,2.15,-0.257,-0.28,-0.3
657.0,-9.424,-1.804,2.15,-0.305,-0.313,-0.3
661.0,-9.424,-1.804,2.15,-0.305,-0.313,-0.3
665.0,-9.367,-1.84,2.109,-0.339,-0.34,-0.385
669.0,-9.367,-1.84,2.109,-0.339,-0.34,-0.385
673.0,-9.392,-1.88,2.086,-0.339,-0.363,-0.465
677.0,-9.392,-1.88,2.086,-0.363,-0.363,-0.465
681.0,-9.392,-1.88,2.086,-0.363,-0.363,-0.465
685.0,-9.473,-1.914,2.042,-0.384,-0.381,-0.54
689.0,-9.473,-1.914,2.042,-0.384,-0.381,-0.54
693.0,-9.528,-1.948,2.029,-0.402,-0.397,-0.609
697.0,-9.528,-1.948,2.029,-0.402,-0.397,-0.609
701.0,-9.528,-1.948,2.029,-0.402,-0.397,-0.609
705.0,-9.554,-1.988,2.014,-0.413,-0.41,-0.675
709.0,-9.554,-1.988,2.014,-0.413,-0.41,-0.675
713.0,-9.578,-1.999,1.997,-0.417,-0.419,-0.735
717.0,-9.578,-1.999,1.997,-0.417,-0.419,-0.735
721.0,-9.578,-1.999,1.997,-0.417,-0.419,-0.735
725.0,-9.589,-2.034,1.969,-0.415,-0.424,-0.792
729.0,-9.589,-2.034,1.969,-0.415,-0.424,-0.792
733.0,-9.605,-2.076,1.962,-0.407,-0.424,-0.842
737.0,-9.605,-2.076,1.962,-0.407,-0.424,-0.842
741.0,-9.605,-2.076,1.962,-0.407,-0.424,-0.842
745.0,-9.616,-2.142,1.947,-0.39,-0.421,-0.887
749.0,-9.616,-2.142,1.947,-0.39,-0.421,-0.887
753.0,-9.604,-2.215,1.932,-0.36,-0.416,-0.928
757.0,-9.604,-2.215,1.932,-0.36,-0.416,-0.928
761.0,-9.604,-2.215,1.932,-0.36,-0.416,-0.928
765.0,-9.576,-2.273,1.914,-0.315,-0.408,-0.965
769.0,-9.576,-2.273,1.914,-0.315,-0.408,-0.965
773.0,-9.567,-2.309,1.877,-0.258,-0.396,-0.998
777.0,-9.567,-2.309,1.877,-0.258,-0.396,-0.998
781.0,-9.567,-2.309,1.855,-0.258,-0.396,-0.998
785.0,-9.543,-2.332,1.855,-0.191,-0.381,-1.025
789.0,-9.543,-2.332,1.855,-0.191,-0.381,-1.025
793.0,-9.535,-2.343,1.834,-0.117,-0.363,-1.045
797.0,-9.535,-2.343,1.834,-0.117,-0.363,-1.045
801.0,-9.535,-2.353,1.838,-0.117,-0.363,-1.045
805.0,-9.525,-2.353,1.838,-0.037,-0.341,-1.061
809.0,-9.525,-2.353,1.838,-0.037,-0.341,-1.061
813.0,-9.519,-2.349,1.822,0.05,-0.318,-1.074
817.0,-9.519,-2.349,1.822,0.05,-0.318,-1.074
821.0,-9.52,-2.329,1.819,0.05,-0.318,-1.074
825.0,-9.52,-2.329,1.819,0.139,-0.295,-1.082
829.0,-9.52,-2.329,1.819,0.139,-0.295,-1.082
833.0,-9.536,-2.311,1.811,0.232,-0.271,-1.085
836.0,-9.536,-2.311,1.811,0.232,-0.271,-1.085
840.0,-9.536,-2.311,1.809,0.232,-0.271,-1.085
844.0,-9.568,-2.303,1.809,0.326,-0.245,-1.082
848.0,-9.568,-2.303,1.809,0.326,-0.245,-1.082
852.0,-9.614,-2.282,1.822,0.42,-0.219,-1.075
856.0,-9.614,-2.282,1.822,0.42,-0.219,-1.075
860.0,-9.614,-2.282,1.822,0.42,-0.219,-1.075
864.0,-9.638,-2.246,1.825,0.516,-0.196,-1.063
868.0,-9.638,-2.246,1.825,0.516,-0.196,-1.063
872.0,-9.64,-2.195,1.828,0.608,-0.176,-1.048
876.0,-9.64,-2.195,1.828,0.608,-0.176,-1.048
879.0,-9.64,-2.195,1.828,0.608,-0.176,-1.048
883.0,-9.642,-2.118,1.804,0.695,-0.159,-1.032
887.0,-9.642,-2.118,1.804,0.695,-0.159,-1.032
891.0,-9.65,-2.058,1.771,0.776,-0.142,-1.014
895.0,-9.65,-2.058,1.771,0.776,-0.142,-1.014
899.0,-9.65,-2.058,1.771,0.776,-0.142,-1.014
903.0,-9.64,-1.973,1.727,0.847,-0.124,-0.993
907.0,-9.64,-1.973,1.727,0.847,-0.124,-0.993
911.0,-9.664,-1.9,1.7,0.908,-0.105,-0.97
915.0,-9.664,-1.9,1.7,0.908,-0.105,-0.97
919.0,-9.664,-1.9,1.7,0.908,-0.105,-0.97
922.0,-9.674,-1.811,1.694,0.96,-0.085,-0.945
926.0,-9.674,-1.811,1.694,0.96,-0.085,-0.945
930.0,-9.723,-1.753,1.684,1.003,-0.067,-0.919
934.0,-9.723,-1.753,1.684,1.003,-0.067,-0.919
938.0,-9.723,-1.753,1.684,1.003,-0.067,-0.919
942.0,-9.736,-1.669,1.676,1.037,-0.052,-0.891
946.0,-9.736,-1.669,1.676,1.037,-0.052,-0.891
950.0,-9.754,-1.598,1.668,1.037,-0.037,-0.862
954.0,-9.754,-1.598,1.668,1.063,-0.037,-0.862
958.0,-9.754,-1.598,1.668,1.063,-0.037,-0.862
961.0,-9.761,-1.527,1.672,1.08,-0.023,-0.833
965.0,-9.761,-1.527,1.672,1.08,-0.023,-0.833
969.0,-9.78,-1.451,1.643,1.08,-0.023,-0.803
973.0,-9.78,-1.451,1.643,1.089,-0.008,-0.803
977.0,-9.78,-1.451,1.643,1.089,-0.008,-0.803
981.0,-9.791,-1.386,1.659,1.089,0.008,-0.772
985.0,-9.791,-1.386,1.659,1.089,0.008,-0.772
989.0,-9.817,-1.324,1.654,1.089,0.008,-0.772
992.0,-9.817,-1.324,1.654,1.081,0.024,-0.742
996.0,-9.817,-1.324,1.654,1.081,0.024,-0.742
1000.0,-9.824,-1.256,1.66,1.066,0.039,-0.711
1004.0,-9.824,-1.256,1.66,1.066,0.039,-0.711
1008.0,-9.824,-1.256,1.66,1.066,0.039,-0.711
1012.0,-9.823,-1.211,1.673,1.046,0.053,-0.68
1016.0,-9.823,-1.211,1.673,1.046,0.053,-0.68
1020.0,-9.821,-1.173,1.676,1.021,0.067,-0.65
1024.0,-9.821,-1.173,1.676,1.021,0.067,-0.65
1027.0,-9.821,-1.173,1.676,1.021,0.067,-0.65
1031.0,-9.818,-1.137,1.686,0.993,0.078,-0.621
1035.0,-9.818,-1.137,1.686,0.993,0.078,-0.621
1039.0,-9.791,-1.109,1.7,0.963,0.09,-0.591
1043.0,-9.791,-1.109,1.7,0.963,0.09,-0.591
1047.0,-9.791,-1.109,1.7,0.963,0.09,-0.591
1051.0,-9.762,-1.077,1.699,0.932,0.099,-0.56
1055.0,-9.762,-1.077,1.699,0.932,0.099,-0.56
1059.0,-9.738,-1.064,1.695,0.901,0.109,-0.531
1063.0,-9.738,-1.064,1.695,0.901,0.109,-0.531
1067.0,-9.738,-1.064,1.695,0.901,0.109,-0.531
1070.0,-9.714,-1.038,1.68,0.868,0.118,-0.5
1074.0,-9.714,-1.038,1.68,0.868,0.118,-0.5
1078.0,-9.708,-1.023,1.682,0.834,0.127,-0.468
1082.0,-9.708,-1.023,1.682,0.834,0.127,-0.468
1086.0,-9.708,-1.023,1.682,0.834,0.127,-0.468
1090.0,-9.696,-1.003,1.673,0.801,0.136,-0.435
1094.0,-9.696,-1.003,1.673,0.801,0.136,-0.435
1098.0,-9.688,-0.977,1.674,0.801,0.143,-0.401
1102.0,-9.688,-0.977,1.674,0.767,0.143,-0.401
1106.0,-9.688,-0.977,1.674,0.767,0.143,-0.401
1109.0,-9.69,-0.972,1.688,0.732,0.15,-0.364
1113.0,-9.69,-0.972,1.688,0.732,0.15,-0.364
1117.0,-9.701,-0.955,1.68,0.732,0.15,-0.325
1121.0,-9.701,-0.955,1.68,0.696,0.155,-0.325
1125.0,-9.701,-0.955,1.68,0.696,0.155,-0.325
1129.0,-9.686,-0.952,1.686,0.659,0.161,-0.284
1133.0,-9.686,-0.952,1.686,0.659,0.161,-0.284
1137.0,-9.681,-0.96,1.705,0.659,0.161,-0.284
1141.0,-9.681,-0.96,1.705,0.622,0.168,-0.24
1145.0,-9.681,-0.96,1.705,0.622,0.168,-0.24
1149.0,-9.658,-0.925,1.708,0.587,0.175,-0.195
1152.0,-9.658,-0.925,1.708,0.587,0.175,-0.195
1156.0,-9.658,-0.902,1.705,0.587,0.175,-0.195
1160.0,-9.638,-0.902,1.705,0.545,0.181,-0.15
1164.0,-9.638,-0.902,1.705,0.545,0.181,-0.15
1168.0,-9.607,-0.876,1.72,0.497,0.188,-0.104
1172.0,-9.607,-0.876,1.72,0.497,0.188,-0.104
1176.0,-9.607,-0.876,1.728,0.497,0.188,-0.104
1180.0,-9.569,-0.848,1.728,0.444,0.197,-0.057
1184.0,-9.569,-0.848,1.728,0.444,0.197,-0.057
1188.0,-9.556,-0.843,1.745,0.389,0.207,-0.01
1192.0,-9.556,-0.843,1.745,0.389,0.207,-0.01
1195.0,-9.556,-0.843,1.745,0.389,0.207,-0.01
1199.0,-9.55,-0.84,1.757,0.332,0.218,0.038
1203.0,-9.55,-0.84,1.757,0.332,0.218,0.038
1207.0,-9.567,-0.838,1.768,0.276,0.23,0.087
1211.0,-9.567,-0.838,1.768,0.276,0.23,0.087
1215.0,-9.567,-0.838,1.768,0.276,0.23,0.087
1218.0,-9.568,-0.849,1.792,0.218,0.24,0.136
1222.0,-9.568,-0.849,1.792,0.218,0.24,0.136
1226.0,-9.589,-0.863,1.801,0.218,0.249,0.187
1230.0,-9.589,-0.863,1.801,0.161,0.249,0.187
1234.0,-9.589,-0.863,1.801,0.161,0.249,0.187
1238.0,-9.589,-0.878,1.791,0.107,0.257,0.237
1241.0,-9.589,-0.878,1.791,0.107,0.257,0.237
1245.0,-9.589,-0.878,1.818,0.107,0.257,0.237
1249.0,-9.59,-0.892,1.818,0.054,0.266,0.285
1253.0,-9.59,-0.892,1.818,0.054,0.266,0.285
1257.0,-9.605,-0.912,1.829,0.003,0.275,0.332
1260.0,-9.605,-0.912,1.829,0.003,0.275,0.332
1264.0,-9.605,-0.912,1.829,0.003,0.275,0.332
1268.0,-9.618,-0.935,1.822,-0.048,0.283,0.38
1272.0,-9.618,-0.935,1.822,-0.048,0.283,0.38
1276.0,-9.653,-0.946,1.851,-0.098,0.292,0.427
1280.0,-9.653,-0.946,1.851,-0.098,0.292,0.427
1284.0,-9.653,-0.946,1.851,-0.098,0.292,0.427
1288.0,-9.679,-0.967,1.863,-0.145,0.296,0.472
1292.0,-9.679,-0.967,1.863,-0.145,0.296,0.472
1295.0,-9.687,-0.98,1.853,-0.191,0.297,0.514
1299.0,-9.687,-0.98,1.853,-0.191,0.297,0.514
1303.0,-9.687,-0.98,1.853,-0.191,0.297,0.514
1307.0,-9.691,-1.02,1.848,-0.234,0.298,0.553
1311.0,-9.691,-1.02,1.848,-0.234,0.298,0.553
1315.0,-9.7,-1.025,1.848,-0.234,0.297,0.589
1319.0,-9.7,-1.025,1.848,-0.275,0.297,0.589
1323.0,-9.7,-1.025,1.848,-0.275,0.297,0.589
1327.0,-9.702,-0.995,1.839,-0.317,0.296,0.624
1331.0,-9.702,-0.995,1.839,-0.317,0.296,0.624
1334.0,-9.726,-0.986,1.847,-0.317,0.296,0.658
1338.0,-9.726,-0.986,1.847,-0.359,0.295,0.658
1342.0,-9.726,-0.986,1.847,-0.359,0.295,0.658
1346.0,-9.748,-1.006,1.859,-0.398,0.295,0.689
1350.0,-9.748,-1.006,1.859,-0.398,0.295,0.689
1354.0,-9.751,-1.015,1.858,-0.398,0.295,0.689
1358.0,-9.751,-1.015,1.858,-0.439,0.294,0.715
1362.0,-9.751,-1.015,1.858,-0.439,0.294,0.715
1366.0,-9.78,-1.038,1.866,-0.481,0.294,0.737
1370.0,-9.78,-1.038,1.866,-0.481,0.294,0.737
1374.0,-9.78,-1.058,1.86,-0.481,0.294,0.737
1377.0,-9.802,-1.058,1.86,-0.528,0.292,0.757
1381.0,-9.802,-1.058,1.86,-0.528,0.292,0.757
1385.0,-9.839,-1.069,1.88,-0.575,0.289,0.774
1389.0,-9.839,-1.069,1.88,-0.575,0.289,0.774
1393.0,-9.839,-1.069,1.857,-0.575,0.289,0.774
1397.0,-9.851,-1.091,1.857,-0.619,0.286,0.789
1401.0,-9.851,-1.091,1.857,-0.619,0.286,0.789
1405.0,-9.855,-1.098,1.857,-0.663,0.281,0.804
1409.0,-9.855,-1.098,1.857,-0.663,0.281,0.804
1413.0,-9.855,-1.098,1.857,-0.663,0.281,0.804
1417.0,-9.89,-1.137,1.865,-0.704,0.275,0.818
1420.0,-9.89,-1.137,1.865,-0.704,0.275,0.818
1424.0,-9.91,-1.183,1.861,-0.743,0.268,0.827
1428.0,-9.91,-1.183,1.861,-0.743,0.268,0.827
1432.0,-9.91,-1.183,1.861,-0.743,0.268,0.827
1436.0,-9.903,-1.196,1.876,-0.782,0.261,0.83
1440.0,-9.903,-1.196,1.876,-0.782,0.261,0.83
1444.0,-9.889,-1.059,1.973,-0.825,0.251,0.832
1448.0,-9.889,-1.059,1.973,-0.825,0.251,0.832
1452.0,-9.889,-1.059,1.973,-0.825,0.251,0.832
1456.0,-9.91,-0.944,2.072,-0.889,0.242,0.836
1459.0,-9.91,-0.944,2.072,-0.889,0.242,0.836
1463.0,-9.987,-1.071,2.017,-0.962,0.227,0.836
