deltaTime,Acc_X,Acc_Y,Acc_Z,Gyro_X,Gyro_Y,Gyro_Z
0.0,-9.675,0.026,2.479,-0.773,0.311,0.518
3.0,-9.675,0.026,2.479,-0.773,0.311,0.518
6.0,-9.675,0.026,2.479,-0.773,0.311,0.518
9.0,-9.802,-0.254,2.265,-0.805,0.321,0.472
12.0,-9.802,-0.254,2.265,-0.805,0.321,0.472
14.0,-9.802,-0.254,2.265,-0.805,0.321,0.472
17.0,-9.73,-0.102,2.117,-0.805,0.326,0.413
20.0,-9.73,-0.102,2.117,-0.813,0.326,0.413
23.0,-9.73,-0.102,2.117,-0.813,0.326,0.413
26.0,-9.73,-0.102,2.117,-0.813,0.326,0.413
29.0,-9.764,-0.117,1.85,-0.843,0.319,0.363
32.0,-9.764,-0.117,1.85,-0.843,0.319,0.363
35.0,-9.764,-0.117,1.85,-0.843,0.319,0.363
39.0,-10.03,-0.221,1.636,-0.864,0.325,0.338
43.0,-10.03,-0.221,1.636,-0.864,0.325,0.338
47.0,-10.336,-0.222,1.758,-0.864,0.325,0.338
50.0,-10.336,-0.222,1.758,-0.867,0.362,0.358
54.0,-10.336,-0.222,1.758,-0.867,0.362,0.358
58.0,-10.277,-0.183,2.183,-0.884,0.409,0.412
62.0,-10.277,-0.183,2.183,-0.884,0.409,0.412
66.0,-10.277,-0.183,2.183,-0.884,0.409,0.412
70.0,-10.197,-0.124,2.588,-0.891,0.425,0.454
73.0,-10.197,-0.124,2.588,-0.891,0.425,0.454
77.0,-10.076,0.116,2.961,-0.905,0.405,0.451
81.0,-10.076,0.116,2.961,-0.905,0.405,0.451
85.0,-10.076,0.116,2.961,-0.905,0.405,0.451
88.0,-9.92,0.336,3.214,-0.953,0.364,0.401
92.0,-9.92,0.336,3.214,-0.953,0.364,0.401
96.0,-9.92,0.336,3.323,-0.953,0.364,0.401
99.0,-9.754,0.546,3.323,-1.022,0.323,0.307
103.0,-9.754,0.546,3.323,-1.022,0.323,0.307
107.0,-9.627,0.315,3.065,-1.102,0.298,0.182
110.0,-9.627,0.315,3.065,-1.102,0.298,0.182
114.0,-9.627,0.315,3.065,-1.102,0.298,0.182
118.0,-9.619,0.019,2.406,-1.148,0.285,0.034
122.0,-9.619,0.019,2.406,-1.148,0.285,0.034
125.0,-9.619,0.019,1.973,-1.148,0.285,0.034
129.0,-9.182,-0.285,1.973,-1.193,0.316,-0.122
133.0,-9.182,-0.285,1.973,-1.193,0.316,-0.122
137.0,-9.538,-1.6,1.694,-1.166,0.338,-0.241
141.0,-9.538,-1.6,1.694,-1.166,0.338,-0.241
145.0,-9.538,-1.6,1.694,-1.166,0.338,-0.241
149.0,-9.831,-2.33,1.247,-0.936,0.28,-0.312
153.0,-9.831,-2.33,1.247,-0.936,0.28,-0.312
156.0,-9.597,-1.801,1.064,-0.646,0.251,-0.369
160.0,-9.597,-1.801,1.064,-0.646,0.251,-0.369
164.0,-9.597,-1.801,1.064,-0.646,0.251,-0.369
168.0,-9.309,-0.986,1.209,-0.505,0.277,-0.419
172.0,-9.309,-0.986,1.209,-0.505,0.277,-0.419
176.0,-9.312,-0.337,1.489,-0.522,0.298,-0.485
180.0,-9.312,-0.337,1.489,-0.522,0.298,-0.485
184.0,-9.312,-0.337,1.489,-0.522,0.298,-0.485
188.0,-9.516,0.019,1.732,-0.609,0.273,-0.557
192.0,-9.516,0.019,1.732,-0.609,0.273,-0.557
195.0,-9.616,0.202,1.82,-0.686,0.23,-0.61
199.0,-9.616,0.202,1.82,-0.686,0.23,-0.61
203.0,-9.616,0.202,1.82,-0.686,0.23,-0.61
207.0,-9.57,0.21,1.863,-0.734,0.191,-0.63
211.0,-9.57,0.21,1.863,-0.734,0.191,-0.63
214.0,-9.373,0.08,1.832,-0.734,0.191,-0.63
218.0,-9.373,0.08,1.832,-0.76,0.162,-0.632
222.0,-9.373,0.08,1.832,-0.76,0.162,-0.632
226.0,-9.075,-0.06,1.773,-0.784,0.141,-0.63
230.0,-9.075,-0.06,1.773,-0.784,0.141,-0.63
234.0,-9.075,-0.06,1.773,-0.784,0.141,-0.63
238.0,-8.879,-0.135,1.726,-0.826,0.128,-0.634
242.0,-8.879,-0.135,1.726,-0.826,0.128,-0.634
245.0,-8.782,-0.096,1.728,-0.882,0.125,-0.638
249.0,-8.782,-0.096,1.728,-0.882,0.125,-0.638
253.0,-8.782,-0.096,1.728,-0.882,0.125,-0.638
257.0,-8.827,0.004,1.677,-0.921,0.129,-0.624
261.0,-8.827,0.004,1.677,-0.921,0.129,-0.624
265.0,-9.015,-0.039,1.477,-0.959,0.148,-0.592
269.0,-9.015,-0.039,1.477,-0.959,0.148,-0.592
273.0,-9.015,-0.039,1.477,-0.959,0.148,-0.592
276.0,-9.113,-0.106,1.364,-1.031,0.178,-0.552
280.0,-9.113,-0.106,1.364,-1.031,0.178,-0.552
284.0,-9.229,-0.329,1.346,-1.154,0.211,-0.516
288.0,-9.229,-0.329,1.346,-1.154,0.211,-0.516
292.0,-9.229,-0.329,1.346,-1.154,0.211,-0.516
296.0,-9.351,-0.535,1.454,-1.293,0.233,-0.471
300.0,-9.351,-0.535,1.454,-1.293,0.233,-0.471
304.0,-9.589,-0.578,1.679,-1.293,0.242,-0.408
308.0,-9.589,-0.578,1.679,-1.44,0.242,-0.408
312.0,-9.589,-0.578,1.679,-1.44,0.242,-0.408
316.0,-9.856,-0.607,1.932,-1.592,0.239,-0.325
319.0,-9.856,-0.607,1.932,-1.592,0.239,-0.325
323.0,-10.027,-0.682,2.133,-1.592,0.239,-0.22
327.0,-10.027,-0.682,2.133,-1.737,0.221,-0.22
331.0,-10.027,-0.682,2.133,-1.737,0.221,-0.22
335.0,-10.089,-0.9,2.244,-1.854,0.197,-0.104
339.0,-10.089,-0.9,2.244,-1.854,0.197,-0.104
343.0,-10.019,-1.22,2.289,-1.854,0.173,0.016
347.0,-10.019,-1.22,2.289,-1.932,0.173,0.016
351.0,-10.019,-1.22,2.289,-1.932,0.173,0.016
355.0,-9.957,-1.558,2.317,-1.963,0.151,0.135
359.0,-9.957,-1.558,2.317,-1.963,0.151,0.135
363.0,-9.899,-1.872,2.344,-1.963,0.151,0.135
366.0,-9.899,-1.872,2.344,-1.947,0.134,0.243
370.0,-9.899,-1.872,2.344,-1.947,0.134,0.243
374.0,-9.861,-2.099,2.391,-1.894,0.122,0.336
378.0,-9.861,-2.099,2.391,-1.894,0.122,0.336
382.0,-9.861,-2.099,2.391,-1.894,0.122,0.336
386.0,-9.842,-2.287,2.471,-1.815,0.111,0.413
389.0,-9.842,-2.287,2.471,-1.815,0.111,0.413
393.0,-9.823,-2.479,2.538,-1.709,0.099,0.473
397.0,-9.823,-2.479,2.538,-1.709,0.099,0.473
401.0,-9.823,-2.479,2.538,-1.709,0.099,0.473
405.0,-9.799,-2.638,2.618,-1.572,0.086,0.517
409.0,-9.799,-2.638,2.618,-1.572,0.086,0.517
412.0,-9.791,-2.758,2.706,-1.572,0.072,0.544
416.0,-9.791,-2.758,2.706,-1.405,0.072,0.544
420.0,-9.791,-2.758,2.706,-1.405,0.072,0.544
424.0,-9.775,-2.818,2.776,-1.211,0.057,0.556
428.0,-9.775,-2.818,2.776,-1.211,0.057,0.556
431.0,-9.775,-2.865,2.827,-1.211,0.057,0.556
435.0,-9.751,-2.865,2.827,-1.002,0.042,0.556
439.0,-9.751,-2.865,2.827,-1.002,0.042,0.556
443.0,-9.711,-2.882,2.868,-0.778,0.028,0.545
447.0,-9.711,-2.882,2.868,-0.778,0.028,0.545
451.0,-9.711,-2.882,2.868,-0.778,0.028,0.545
454.0,-9.675,-2.834,2.904,-0.549,0.013,0.526
458.0,-9.675,-2.834,2.904,-0.549,0.013,0.526
462.0,-9.656,-2.767,2.906,-0.327,-0.002,0.496
466.0,-9.656,-2.767,2.906,-0.327,-0.002,0.496
470.0,-9.656,-2.767,2.906,-0.327,-0.002,0.496
474.0,-9.633,-2.685,2.881,-0.114,-0.019,0.46
478.0,-9.633,-2.685,2.881,-0.114,-0.019,0.46
482.0,-9.659,-2.6,2.833,-0.114,-0.035,0.417
485.0,-9.659,-2.6,2.833,0.087,-0.035,0.417
489.0,-9.659,-2.6,2.833,0.087,-0.035,0.417
493.0,-9.65,-2.506,2.777,0.272,-0.047,0.368
497.0,-9.65,-2.506,2.777,0.272,-0.047,0.368
501.0,-9.687,-2.393,2.739,0.272,-0.047,0.368
505.0,-9.687,-2.393,2.739,0.439,-0.057,0.312
508.0,-9.687,-2.393,2.739,0.439,-0.057,0.312
512.0,-9.746,-2.28,2.703,0.585,-0.066,0.253
516.0,-9.746,-2.28,2.703,0.585,-0.066,0.253
520.0,-9.746,-2.28,2.703,0.585,-0.066,0.253
524.0,-9.766,-2.192,2.683,0.71,-0.078,0.19
527.0,-9.766,-2.192,2.683,0.71,-0.078,0.19
531.0,-9.795,-2.121,2.666,0.823,-0.095,0.129
535.0,-9.795,-2.121,2.666,0.823,-0.095,0.129
539.0,-9.795,-2.121,2.666,0.823,-0.095,0.129
543.0,-9.842,-1.994,2.646,0.93,-0.116,0.07
547.0,-9.842,-1.994,2.646,0.93,-0.116,0.07
550.0,-9.891,-1.807,2.609,0.93,-0.116,0.023
554.0,-9.891,-1.807,2.609,1.023,-0.142,0.023
558.0,-9.891,-1.807,2.609,1.023,-0.142,0.023
562.0,-9.998,-1.615,2.572,1.105,-0.173,-0.007
566.0,-9.998,-1.615,2.572,1.105,-0.173,-0.007
570.0,-9.998,-1.615,2.546,1.105,-0.173,-0.007
574.0,-10.083,-1.45,2.546,1.162,-0.211,-0.03
578.0,-10.083,-1.45,2.546,1.162,-0.211,-0.03
582.0,-10.092,-1.265,2.492,1.185,-0.258,-0.055
586.0,-10.092,-1.265,2.492,1.185,-0.258,-0.055
590.0,-10.092,-1.082,2.388,1.185,-0.258,-0.055
593.0,-10.037,-1.082,2.388,1.162,-0.312,-0.084
597.0,-10.037,-1.082,2.388,1.162,-0.312,-0.084
601.0,-10.001,-0.91,2.203,1.085,-0.362,-0.119
605.0,-10.001,-0.91,2.203,1.085,-0.362,-0.119
609.0,-9.855,-0.775,2.038,1.085,-0.362,-0.119
613.0,-9.855,-0.775,2.038,0.958,-0.395,-0.158
617.0,-9.855,-0.775,2.038,0.958,-0.395,-0.158
621.0,-9.715,-0.698,1.928,0.794,-0.409,-0.196
625.0,-9.715,-0.698,1.928,0.794,-0.409,-0.196
629.0,-9.669,-0.717,1.893,0.794,-0.409,-0.196
633.0,-9.669,-0.717,1.893,0.626,-0.41,-0.232
637.0,-9.669,-0.717,1.893,0.626,-0.41,-0.232
641.0,-9.674,-0.8,1.926,0.489,-0.405,-0.263
645.0,-9.674,-0.8,1.926,0.489,-0.405,-0.263
649.0,-9.674,-0.8,2.008,0.489,-0.405,-0.263
652.0,-9.765,-0.986,2.008,0.411,-0.399,-0.28
656.0,-9.765,-0.986,2.008,0.411,-0.399,-0.28
660.0,-9.913,-1.244,2.177,0.456,-0.394,-0.281
664.0,-9.913,-1.244,2.177,0.456,-0.394,-0.281
668.0,-9.913,-1.244,2.177,0.456,-0.394,-0.281
672.0,-9.977,-1.414,2.314,0.655,-0.394,-0.264
676.0,-9.977,-1.414,2.314,0.655,-0.394,-0.264
680.0,-9.984,-1.322,2.36,0.935,-0.392,-0.232
684.0,-9.984,-1.322,2.36,0.935,-0.392,-0.232
688.0,-9.984,-1.322,2.36,0.935,-0.392,-0.232
691.0,-9.868,-1.183,2.261,1.169,-0.392,-0.199
695.0,-9.868,-1.183,2.261,1.169,-0.392,-0.199
699.0,-9.687,-1.013,2.155,1.276,-0.388,-0.186
703.0,-9.687,-1.013,2.155,1.276,-0.388,-0.186
707.0,-9.687,-1.013,2.155,1.276,-0.388,-0.186
711.0,-9.608,-0.893,2.136,1.251,-0.382,-0.205
715.0,-9.608,-0.893,2.136,1.251,-0.382,-0.205
719.0,-9.666,-0.73,2.155,1.133,-0.379,-0.246
723.0,-9.666,-0.73,2.155,1.133,-0.379,-0.246
727.0,-9.666,-0.73,2.155,1.133,-0.379,-0.246
731.0,-9.711,-0.613,2.163,0.959,-0.38,-0.287
734.0,-9.711,-0.613,2.163,0.959,-0.38,-0.287
738.0,-9.724,-0.557,2.131,0.765,-0.382,-0.318
742.0,-9.724,-0.557,2.131,0.765,-0.382,-0.318
746.0,-9.724,-0.557,2.131,0.765,-0.382,-0.318
750.0,-9.688,-0.522,2.096,0.57,-0.384,-0.335
754.0,-9.688,-0.522,2.096,0.57,-0.384,-0.335
758.0,-9.651,-0.566,2.046,0.57,-0.385,-0.34
762.0,-9.651,-0.566,2.046,0.386,-0.385,-0.34
766.0,-9.651,-0.566,2.046,0.386,-0.385,-0.34
770.0,-9.634,-0.656,1.996,0.227,-0.385,-0.333
774.0,-9.634,-0.656,1.996,0.227,-0.385,-0.333
777.0,-9.605,-0.769,1.967,0.227,-0.385,-0.32
781.0,-9.605,-0.769,1.967,0.091,-0.385,-0.32
785.0,-9.605,-0.769,1.967,0.091,-0.385,-0.32
789.0,-9.556,-0.927,1.955,-0.026,-0.385,-0.306
793.0,-9.556,-0.927,1.955,-0.026,-0.385,-0.306
797.0,-9.548,-1.079,2.007,-0.026,-0.385,-0.297
801.0,-9.548,-1.079,2.007,-0.111,-0.383,-0.297
805.0,-9.548,-1.079,2.007,-0.111,-0.383,-0.297
809.0,-9.598,-1.22,2.156,-0.133,-0.38,-0.284
813.0,-9.598,-1.22,2.156,-0.133,-0.38,-0.284
817.0,-9.648,-1.346,2.276,-0.133,-0.383,-0.265
821.0,-9.648,-1.346,2.276,-0.077,-0.383,-0.265
825.0,-9.648,-1.346,2.276,-0.077,-0.383,-0.265
829.0,-9.642,-1.455,2.291,0.023,-0.387,-0.244
833.0,-9.642,-1.455,2.291,0.023,-0.387,-0.244
837.0,-9.588,-1.544,2.226,0.023,-0.388,-0.232
841.0,-9.588,-1.544,2.226,0.13,-0.388,-0.232
845.0,-9.588,-1.544,2.226,0.13,-0.388,-0.232
849.0,-9.501,-1.607,2.11,0.21,-0.384,-0.237
853.0,-9.501,-1.607,2.11,0.21,-0.384,-0.237
856.0,-9.458,-1.616,2.011,0.21,-0.384,-0.259
860.0,-9.458,-1.616,2.011,0.25,-0.371,-0.259
864.0,-9.458,-1.616,2.011,0.25,-0.371,-0.259
868.0,-9.451,-1.594,1.957,0.264,-0.355,-0.29
872.0,-9.451,-1.594,1.957,0.264,-0.355,-0.29
876.0,-9.47,-1.534,1.97,0.264,-0.355,-0.29
880.0,-9.47,-1.534,1.97,0.272,-0.337,-0.32
884.0,-9.47,-1.534,1.97,0.272,-0.337,-0.32
888.0,-9.492,-1.452,2.0,0.293,-0.32,-0.339
892.0,-9.492,-1.452,2.0,0.293,-0.32,-0.339
895.0,-9.492,-1.409,2.011,0.293,-0.32,-0.339
899.0,-9.51,-1.409,2.011,0.328,-0.303,-0.345
903.0,-9.51,-1.409,2.011,0.328,-0.303,-0.345
907.0,-9.48,-1.369,1.98,0.369,-0.286,-0.342
911.0,-9.48,-1.369,1.98,0.369,-0.286,-0.342
915.0,-9.48,-1.369,1.936,0.369,-0.286,-0.342
919.0,-9.464,-1.375,1.936,0.403,-0.266,-0.336
923.0,-9.464,-1.375,1.936,0.403,-0.266,-0.336
927.0,-9.425,-1.372,1.903,0.43,-0.243,-0.332
931.0,-9.425,-1.372,1.903,0.43,-0.243,-0.332
935.0,-9.425,-1.372,1.903,0.43,-0.243,-0.332
938.0,-9.401,-1.356,1.892,0.452,-0.217,-0.325
942.0,-9.401,-1.356,1.892,0.452,-0.217,-0.325
946.0,-9.393,-1.34,1.9,0.47,-0.19,-0.319
950.0,-9.393,-1.34,1.9,0.47,-0.19,-0.319
954.0,-9.393,-1.34,1.9,0.47,-0.19,-0.319
958.0,-9.4,-1.326,1.908,0.487,-0.163,-0.311
962.0,-9.4,-1.326,1.908,0.487,-0.163,-0.311
966.0,-9.404,-1.317,1.927,0.505,-0.136,-0.3
970.0,-9.404,-1.317,1.927,0.505,-0.136,-0.3
974.0,-9.404,-1.317,1.927,0.505,-0.136,-0.3
978.0,-9.413,-1.299,1.947,0.527,-0.109,-0.289
981.0,-9.413,-1.299,1.947,0.527,-0.109,-0.289
985.0,-9.427,-1.291,1.972,0.559,-0.082,-0.274
989.0,-9.427,-1.291,1.972,0.559,-0.082,-0.274
993.0,-9.427,-1.291,1.972,0.559,-0.082,-0.274
997.0,-9.47,-1.269,2.026,0.603,-0.057,-0.255
1001.0,-9.47,-1.269,2.026,0.603,-0.057,-0.255
1005.0,-9.492,-1.25,2.039,0.658,-0.035,-0.232
1009.0,-9.492,-1.25,2.039,0.658,-0.035,-0.232
1013.0,-9.492,-1.25,2.039,0.658,-0.035,-0.232
1017.0,-9.484,-1.211,2.049,0.718,-0.015,-0.21
1021.0,-9.484,-1.211,2.049,0.718,-0.015,-0.21
1025.0,-9.519,-1.191,2.018,0.777,0.004,-0.188
1029.0,-9.519,-1.191,2.018,0.777,0.004,-0.188
1033.0,-9.519,-1.191,2.018,0.777,0.004,-0.188
1037.0,-9.499,-1.1,2.008,0.833,0.024,-0.168
1041.0,-9.499,-1.1,2.008,0.833,0.024,-0.168
1044.0,-9.502,-1.025,1.972,0.876,0.041,-0.149
1048.0,-9.502,-1.025,1.972,0.876,0.041,-0.149
1052.0,-9.502,-1.025,1.972,0.876,0.041,-0.149
1056.0,-9.543,-0.951,1.954,0.908,0.057,-0.13
1060.0,-9.543,-0.951,1.954,0.908,0.057,-0.13
1064.0,-9.519,-0.806,1.962,0.92,0.072,-0.118
1068.0,-9.519,-0.806,1.962,0.92,0.072,-0.118
1072.0,-9.519,-0.806,1.962,0.92,0.072,-0.118
1076.0,-9.49,-0.635,1.995,0.895,0.085,-0.114
1080.0,-9.49,-0.635,1.995,0.895,0.085,-0.114
1084.0,-9.441,-0.491,2.052,0.895,0.085,-0.119
1087.0,-9.441,-0.491,2.052,0.831,0.094,-0.119
1091.0,-9.441,-0.491,2.052,0.831,0.094,-0.119
1095.0,-9.442,-0.389,2.112,0.749,0.101,-0.127
1099.0,-9.442,-0.389,2.112,0.749,0.101,-0.127
1103.0,-9.504,-0.315,2.164,0.749,0.101,-0.127
1107.0,-9.504,-0.315,2.164,0.661,0.105,-0.136
1111.0,-9.504,-0.315,2.164,0.661,0.105,-0.136
1115.0,-9.58,-0.286,2.195,0.573,0.108,-0.14
1119.0,-9.58,-0.286,2.195,0.573,0.108,-0.14
1123.0,-9.671,-0.269,2.224,0.573,0.108,-0.14
1126.0,-9.671,-0.269,2.224,0.485,0.105,-0.143
1130.0,-9.671,-0.269,2.224,0.485,0.105,-0.143
1134.0,-9.778,-0.261,2.202,0.398,0.097,-0.149
1138.0,-9.778,-0.261,2.202,0.398,0.097,-0.149
1142.0,-9.778,-0.261,2.155,0.398,0.097,-0.149
1146.0,-9.926,-0.228,2.155,0.309,0.084,-0.159
1150.0,-9.926,-0.228,2.155,0.309,0.084,-0.159
1154.0,-9.994,-0.153,2.075,0.219,0.065,-0.173
1158.0,-9.994,-0.153,2.075,0.219,0.065,-0.173
1162.0,-9.994,-0.153,2.075,0.219,0.065,-0.173
1166.0,-9.992,-0.185,1.977,0.124,0.046,-0.187
1169.0,-9.992,-0.185,1.977,0.124,0.046,-0.187
1173.0,-9.944,-0.224,1.867,0.056,0.032,-0.199
1177.0,-9.944,-0.224,1.867,0.056,0.032,-0.199
1181.0,-9.944,-0.224,1.867,0.056,0.032,-0.199
1185.0,-9.865,-0.216,1.786,0.003,0.028,-0.203
1189.0,-9.865,-0.216,1.786,0.003,0.028,-0.203
1193.0,-9.772,-0.258,1.728,-0.047,0.033,-0.201
1197.0,-9.772,-0.258,1.728,-0.047,0.033,-0.201
1201.0,-9.772,-0.258,1.728,-0.047,0.033,-0.201
1205.0,-9.668,-0.341,1.712,-0.087,0.041,-0.195
1209.0,-9.668,-0.341,1.712,-0.087,0.041,-0.195
1213.0,-9.558,-0.357,1.777,-0.115,0.053,-0.182
1217.0,-9.558,-0.357,1.777,-0.115,0.053,-0.182
1221.0,-9.558,-0.357,1.777,-0.115,0.053,-0.182
1225.0,-9.553,-0.397,1.808,-0.146,0.064,-0.158
1229.0,-9.553,-0.397,1.808,-0.146,0.064,-0.158
1233.0,-9.526,-0.37,1.912,-0.182,0.077,-0.124
1237.0,-9.526,-0.37,1.912,-0.182,0.077,-0.124
1241.0,-9.526,-0.37,2.008,-0.182,0.077,-0.124
1245.0,-9.505,-0.344,2.008,-0.23,0.087,-0.081
1249.0,-9.505,-0.344,2.008,-0.23,0.087,-0.081
1253.0,-9.49,-0.306,2.11,-0.285,0.094,-0.03
1257.0,-9.49,-0.306,2.11,-0.285,0.094,-0.03
1261.0,-9.49,-0.345,2.195,-0.285,0.094,-0.03
1265.0,-9.47,-0.345,2.195,-0.347,0.103,0.025
1269.0,-9.47,-0.345,2.195,-0.347,0.103,0.025
1273.0,-9.411,-0.406,2.221,-0.406,0.115,0.08
1276.0,-9.411,-0.406,2.221,-0.406,0.115,0.08
1280.0,-9.411,-0.515,2.212,-0.406,0.115,0.08
1284.0,-9.33,-0.515,2.212,-0.461,0.127,0.136
1288.0,-9.33,-0.515,2.212,-0.461,0.127,0.136
1292.0,-9.312,-0.645,2.184,-0.506,0.143,0.189
1296.0,-9.312,-0.645,2.184,-0.506,0.143,0.189
1300.0,-9.312,-0.645,2.182,-0.506,0.143,0.189
1304.0,-9.291,-0.722,2.182,-0.54,0.161,0.242
1308.0,-9.291,-0.722,2.182,-0.54,0.161,0.242
1312.0,-9.314,-0.82,2.188,-0.559,0.178,0.295
1316.0,-9.314,-0.82,2.188,-0.559,0.178,0.295
1319.0,-9.314,-0.82,2.188,-0.559,0.178,0.295
1323.0,-9.31,-0.881,2.218,-0.567,0.189,0.347
1327.0,-9.31,-0.881,2.218,-0.567,0.189,0.347
1331.0,-9.343,-0.985,2.215,-0.567,0.196,0.392
1335.0,-9.343,-0.985,2.215,-0.567,0.196,0.392
1339.0,-9.343,-0.985,2.215,-0.567,0.196,0.392
1343.0,-9.358,-1.108,2.207,-0.554,0.201,0.43
1347.0,-9.358,-1.108,2.207,-0.554,0.201,0.43
1351.0,-9.402,-1.196,2.164,-0.531,0.205,0.463
1355.0,-9.402,-1.196,2.164,-0.531,0.205,0.463
1359.0,-9.402,-1.196,2.164,-0.531,0.205,0.463
1362.0,-9.443,-1.29,2.141,-0.501,0.211,0.486
1366.0,-9.443,-1.29,2.141,-0.501,0.211,0.486
1370.0,-9.464,-1.335,2.139,-0.468,0.216,0.501
1374.0,-9.464,-1.335,2.139,-0.468,0.216,0.501
1378.0,-9.464,-1.335,2.139,-0.468,0.216,0.501
1382.0,-9.506,-1.353,2.153,-0.435,0.217,0.51
1386.0,-9.506,-1.353,2.153,-0.435,0.217,0.51
1390.0,-9.556,-1.365,2.154,-0.402,0.217,0.512
1394.0,-9.556,-1.365,2.154,-0.402,0.217,0.512
1398.0,-9.556,-1.365,2.154,-0.402,0.217,0.512
1401.0,-9.617,-1.355,2.163,-0.375,0.216,0.508
1405.0,-9.617,-1.355,2.163,-0.375,0.216,0.508
1409.0,-9.676,-1.343,2.185,-0.375,0.216,0.499
1413.0,-9.676,-1.343,2.185,-0.347,0.216,0.499
1417.0,-9.676,-1.343,2.185,-0.347,0.216,0.499
1421.0,-9.699,-1.269,2.188,-0.321,0.213,0.487
1425.0,-9.699,-1.269,2.188,-0.321,0.213,0.487
1429.0,-9.743,-1.241,2.187,-0.321,0.213,0.487
1433.0,-9.743,-1.241,2.187,-0.305,0.212,0.467
1437.0,-9.743,-1.241,2.187,-0.305,0.212,0.467
1441.0,-9.779,-1.216,2.197,-0.293,0.212,0.442
1444.0,-9.779,-1.216,2.197,-0.293,0.212,0.442
1448.0,-9.788,-1.194,2.198,-0.293,0.212,0.442
1452.0,-9.788,-1.194,2.198,-0.284,0.213,0.417
1456.0,-9.788,-1.194,2.198,-0.284,0.213,0.417
1460.0,-9.817,-1.186,2.173,-0.276,0.211,0.387
1464.0,-9.817,-1.186,2.173,-0.276,0.211,0.387
