deltaTime,Acc_X,Acc_Y,Acc_Z,Gyro_X,Gyro_Y,Gyro_Z
0.0,-10.09,-1.362,3.175,-0.122,0.835,0.904
3.0,-10.09,-1.362,3.296,-0.122,0.835,0.904
6.0,-10.362,-1.636,3.296,-0.169,0.814,0.721
9.0,-10.362,-1.636,3.296,-0.169,0.814,0.721
12.0,-10.362,-1.636,3.296,-0.169,0.814,0.721
15.0,-10.33,-1.765,3.496,-0.162,0.797,0.562
18.0,-10.33,-1.765,3.496,-0.162,0.797,0.562
21.0,-10.33,-1.765,3.496,-0.162,0.797,0.562
24.0,-10.318,-1.612,3.607,-0.126,0.789,0.41
27.0,-10.318,-1.612,3.607,-0.126,0.789,0.41
30.0,-10.318,-1.612,3.607,-0.126,0.789,0.41
33.0,-10.372,-1.245,3.571,-0.126,0.789,0.41
37.0,-10.372,-1.245,3.571,-0.115,0.756,0.263
40.0,-10.372,-1.245,3.571,-0.115,0.756,0.263
44.0,-10.402,-0.978,3.505,-0.163,0.707,0.138
48.0,-10.402,-0.978,3.505,-0.163,0.707,0.138
52.0,-10.402,-0.978,3.505,-0.163,0.707,0.138
56.0,-10.378,-0.739,3.486,-0.258,0.659,0.049
60.0,-10.378,-0.739,3.486,-0.258,0.659,0.049
63.0,-10.35,-0.54,3.491,-0.401,0.608,-0.012
67.0,-10.35,-0.54,3.491,-0.401,0.608,-0.012
71.0,-10.35,-0.54,3.491,-0.401,0.608,-0.012
75.0,-10.438,-0.49,3.579,-0.586,0.552,-0.058
79.0,-10.438,-0.49,3.579,-0.586,0.552,-0.058
83.0,-10.566,-0.701,3.695,-0.783,0.481,-0.104
87.0,-10.566,-0.701,3.695,-0.783,0.481,-0.104
91.0,-10.566,-0.701,3.695,-0.783,0.481,-0.104
95.0,-10.618,-0.839,3.717,-0.946,0.403,-0.158
99.0,-10.618,-0.839,3.717,-0.946,0.403,-0.158
102.0,-10.397,-1.015,3.669,-1.085,0.334,-0.231
106.0,-10.397,-1.015,3.669,-1.085,0.334,-0.231
110.0,-10.397,-1.015,3.669,-1.085,0.334,-0.231
114.0,-9.955,-0.767,3.507,-1.202,0.288,-0.308
118.0,-9.955,-0.767,3.507,-1.202,0.288,-0.308
122.0,-10.147,-0.654,3.398,-1.366,0.314,-0.395
126.0,-10.147,-0.654,3.398,-1.366,0.314,-0.395
130.0,-10.147,-0.654,3.398,-1.366,0.314,-0.395
134.0,-10.004,-0.537,3.446,-1.542,0.322,-0.466
138.0,-10.004,-0.537,3.446,-1.542,0.322,-0.466
142.0,-10.269,-0.798,3.288,-1.695,0.289,-0.51
146.0,-10.269,-0.798,3.288,-1.695,0.289,-0.51
150.0,-10.269,-0.798,3.288,-1.695,0.289,-0.51
154.0,-10.199,-0.804,2.974,-1.789,0.156,-0.536
158.0,-10.199,-0.804,2.974,-1.789,0.156,-0.536
162.0,-10.021,-0.93,2.668,-1.887,0.081,-0.563
166.0,-10.021,-0.93,2.668,-1.887,0.081,-0.563
170.0,-10.021,-0.93,2.668,-1.887,0.081,-0.563
174.0,-9.649,-1.092,2.425,-1.955,0.03,-0.586
178.0,-9.649,-1.092,2.425,-1.955,0.03,-0.586
182.0,-9.349,-1.268,2.234,-1.996,0.005,-0.6
186.0,-9.349,-1.268,2.234,-1.996,0.005,-0.6
190.0,-9.349,-1.268,2.234,-1.996,0.005,-0.6
194.0,-9.229,-1.463,2.119,-2.004,0.0,-0.609
198.0,-9.229,-1.463,2.119,-2.004,0.0,-0.609
201.0,-9.266,-1.623,2.023,-1.978,0.001,-0.623
205.0,-9.266,-1.623,2.023,-1.978,0.001,-0.623
209.0,-9.266,-1.623,2.023,-1.978,0.001,-0.623
213.0,-9.372,-1.749,1.969,-1.923,0.009,-0.641
217.0,-9.372,-1.749,1.969,-1.923,0.009,-0.641
221.0,-9.464,-1.869,1.975,-1.843,0.02,-0.647
225.0,-9.464,-1.869,1.975,-1.843,0.02,-0.647
229.0,-9.464,-1.869,1.975,-1.843,0.02,-0.647
233.0,-9.522,-1.981,2.035,-1.739,0.034,-0.632
237.0,-9.522,-1.981,2.035,-1.739,0.034,-0.632
241.0,-9.553,-2.091,2.105,-1.617,0.048,-0.6
244.0,-9.553,-2.091,2.105,-1.617,0.048,-0.6
248.0,-9.553,-2.091,2.105,-1.617,0.048,-0.6
252.0,-9.525,-2.212,2.186,-1.477,0.063,-0.553
256.0,-9.525,-2.212,2.186,-1.477,0.063,-0.553
260.0,-9.438,-2.314,2.249,-1.477,0.076,-0.497
264.0,-9.438,-2.314,2.249,-1.328,0.076,-0.497
268.0,-9.438,-2.314,2.249,-1.328,0.076,-0.497
272.0,-9.327,-2.399,2.317,-1.172,0.089,-0.433
276.0,-9.327,-2.399,2.317,-1.172,0.089,-0.433
280.0,-9.203,-2.477,2.405,-1.172,0.089,-0.433
284.0,-9.203,-2.477,2.405,-1.015,0.103,-0.366
287.0,-9.203,-2.477,2.405,-1.015,0.103,-0.366
291.0,-9.092,-2.524,2.468,-0.856,0.118,-0.298
295.0,-9.092,-2.524,2.468,-0.856,0.118,-0.298
299.0,-8.978,-2.566,2.516,-0.856,0.118,-0.298
303.0,-8.978,-2.566,2.516,-0.7,0.131,-0.228
307.0,-8.978,-2.566,2.516,-0.7,0.131,-0.228
311.0,-8.897,-2.565,2.541,-0.55,0.143,-0.153
315.0,-8.897,-2.565,2.541,-0.55,0.143,-0.153
319.0,-8.897,-2.565,2.581,-0.55,0.143,-0.153
323.0,-8.827,-2.581,2.581,-0.41,0.154,-0.073
326.0,-8.827,-2.581,2.581,-0.41,0.154,-0.073
330.0,-8.803,-2.597,2.591,-0.283,0.163,0.01
334.0,-8.803,-2.597,2.591,-0.283,0.163,0.01
338.0,-8.803,-2.597,2.591,-0.283,0.163,0.01
342.0,-8.785,-2.565,2.584,-0.171,0.173,0.094
346.0,-8.785,-2.565,2.584,-0.171,0.173,0.094
349.0,-8.823,-2.562,2.611,-0.074,0.184,0.181
353.0,-8.823,-2.562,2.611,-0.074,0.184,0.181
357.0,-8.823,-2.562,2.611,-0.074,0.184,0.181
361.0,-8.891,-2.533,2.554,0.004,0.192,0.268
365.0,-8.891,-2.533,2.554,0.004,0.192,0.268
368.0,-8.98,-2.512,2.503,0.004,0.192,0.268
372.0,-8.98,-2.512,2.503,0.064,0.201,0.357
376.0,-8.98,-2.512,2.503,0.064,0.201,0.357
380.0,-9.163,-2.612,2.503,0.107,0.21,0.443
383.0,-9.163,-2.612,2.503,0.107,0.21,0.443
387.0,-9.163,-2.612,2.503,0.107,0.21,0.443
391.0,-9.395,-2.75,2.484,0.138,0.207,0.514
395.0,-9.395,-2.75,2.484,0.138,0.207,0.514
398.0,-9.594,-2.839,2.435,0.138,0.2,0.564
402.0,-9.594,-2.839,2.435,0.16,0.2,0.564
406.0,-9.594,-2.839,2.435,0.16,0.2,0.564
409.0,-9.815,-2.953,2.439,0.174,0.191,0.588
413.0,-9.815,-2.953,2.439,0.174,0.191,0.588
417.0,-9.815,-2.953,2.439,0.174,0.191,0.588
421.0,-10.135,-3.111,2.478,0.175,0.172,0.587
424.0,-10.135,-3.111,2.478,0.175,0.172,0.587
428.0,-10.385,-3.244,2.431,0.172,0.143,0.552
432.0,-10.385,-3.244,2.431,0.172,0.143,0.552
436.0,-10.385,-3.244,2.431,0.172,0.143,0.552
440.0,-10.494,-3.269,2.345,0.165,0.104,0.475
444.0,-10.494,-3.269,2.345,0.165,0.104,0.475
447.0,-10.551,-3.26,2.255,0.165,0.104,0.475
451.0,-10.551,-3.26,2.255,0.145,0.059,0.367
455.0,-10.551,-3.26,2.255,0.145,0.059,0.367
459.0,-10.49,-3.248,2.203,0.112,0.018,0.247
463.0,-10.49,-3.248,2.203,0.112,0.018,0.247
466.0,-10.49,-3.248,2.203,0.112,0.018,0.247
470.0,-10.324,-3.219,2.193,0.073,-0.004,0.12
474.0,-10.324,-3.219,2.193,0.073,-0.004,0.12
478.0,-10.185,-3.206,2.316,0.029,-0.015,-0.01
482.0,-10.185,-3.206,2.316,0.029,-0.015,-0.01
486.0,-10.185,-3.206,2.316,0.029,-0.015,-0.01
490.0,-10.156,-3.224,2.53,-0.018,-0.032,-0.145
494.0,-10.156,-3.224,2.53,-0.018,-0.032,-0.145
498.0,-10.134,-3.249,2.668,-0.061,-0.066,-0.286
502.0,-10.134,-3.249,2.668,-0.061,-0.066,-0.286
506.0,-10.0,-3.23,2.781,-0.061,-0.066,-0.286
511.0,-10.0,-3.23,2.781,-0.095,-0.112,-0.428
515.0,-10.0,-3.23,2.781,-0.095,-0.112,-0.428
519.0,-9.815,-3.201,2.947,-0.123,-0.163,-0.557
523.0,-9.815,-3.201,2.947,-0.123,-0.163,-0.557
527.0,-9.672,-3.144,3.107,-0.123,-0.222,-0.657
531.0,-9.672,-3.144,3.107,-0.141,-0.222,-0.657
535.0,-9.672,-3.144,3.107,-0.141,-0.222,-0.657
539.0,-9.563,-3.181,3.163,-0.159,-0.283,-0.725
543.0,-9.563,-3.181,3.163,-0.159,-0.283,-0.725
547.0,-9.43,-3.289,3.139,-0.18,-0.339,-0.772
551.0,-9.43,-3.289,3.139,-0.18,-0.339,-0.772
555.0,-9.43,-3.289,3.139,-0.18,-0.339,-0.772
559.0,-9.241,-3.44,3.109,-0.203,-0.383,-0.81
563.0,-9.241,-3.44,3.109,-0.203,-0.383,-0.81
567.0,-9.101,-3.587,3.087,-0.224,-0.417,-0.845
571.0,-9.101,-3.587,3.087,-0.224,-0.417,-0.845
575.0,-9.101,-3.587,3.087,-0.224,-0.417,-0.845
579.0,-8.993,-3.684,3.027,-0.237,-0.442,-0.877
583.0,-8.993,-3.684,3.027,-0.237,-0.442,-0.877
587.0,-8.905,-3.756,3.001,-0.24,-0.452,-0.898
591.0,-8.905,-3.756,3.001,-0.24,-0.452,-0.898
595.0,-8.905,-3.756,3.001,-0.24,-0.452,-0.898
599.0,-8.856,-3.804,2.99,-0.23,-0.457,-0.906
603.0,-8.856,-3.804,2.99,-0.23,-0.457,-0.906
607.0,-8.855,-3.839,2.905,-0.205,-0.457,-0.9
611.0,-8.855,-3.839,2.905,-0.205,-0.457,-0.9
614.0,-8.855,-3.839,2.905,-0.205,-0.457,-0.9
618.0,-8.967,-3.857,2.874,-0.169,-0.447,-0.879
622.0,-8.967,-3.857,2.874,-0.169,-0.447,-0.879
626.0,-9.315,-3.893,2.828,-0.124,-0.426,-0.835
630.0,-9.315,-3.893,2.828,-0.124,-0.426,-0.835
634.0,-9.315,-3.893,2.859,-0.124,-0.426,-0.835
638.0,-9.742,-3.933,2.859,-0.069,-0.395,-0.767
642.0,-9.742,-3.933,2.859,-0.069,-0.395,-0.767
646.0,-10.007,-3.954,3.019,0.001,-0.372,-0.687
650.0,-10.007,-3.954,3.019,0.001,-0.372,-0.687
654.0,-10.007,-3.919,3.231,0.001,-0.372,-0.687
658.0,-10.018,-3.919,3.231,0.088,-0.38,-0.612
662.0,-10.018,-3.919,3.231,0.088,-0.38,-0.612
666.0,-9.825,-3.76,3.4,0.191,-0.428,-0.566
670.0,-9.825,-3.76,3.4,0.191,-0.428,-0.566
674.0,-9.825,-3.425,3.474,0.191,-0.428,-0.566
678.0,-9.593,-3.425,3.474,0.306,-0.509,-0.55
682.0,-9.593,-3.425,3.474,0.306,-0.509,-0.55
686.0,-9.331,-3.04,3.416,0.448,-0.601,-0.542
690.0,-9.331,-3.04,3.416,0.448,-0.601,-0.542
694.0,-9.331,-3.04,3.038,0.448,-0.601,-0.542
698.0,-8.918,-2.758,3.038,0.606,-0.675,-0.543
702.0,-8.918,-2.758,3.038,0.606,-0.675,-0.543
705.0,-8.332,-2.553,2.553,0.723,-0.71,-0.566
709.0,-8.332,-2.553,2.553,0.723,-0.71,-0.566
713.0,-8.332,-2.553,2.553,0.723,-0.71,-0.566
717.0,-7.912,-2.347,2.179,0.778,-0.699,-0.614
721.0,-7.912,-2.347,2.179,0.778,-0.699,-0.614
725.0,-7.775,-2.126,2.021,0.798,-0.65,-0.673
729.0,-7.775,-2.126,2.021,0.798,-0.65,-0.673
733.0,-7.775,-2.126,2.021,0.798,-0.65,-0.673
737.0,-7.758,-1.92,1.967,0.809,-0.58,-0.719
741.0,-7.758,-1.92,1.967,0.809,-0.58,-0.719
745.0,-7.816,-1.759,2.026,0.818,-0.502,-0.744
748.0,-7.816,-1.759,2.026,0.818,-0.502,-0.744
752.0,-7.816,-1.759,2.026,0.818,-0.502,-0.744
756.0,-7.945,-1.673,2.131,0.827,-0.429,-0.745
760.0,-7.945,-1.673,2.131,0.827,-0.429,-0.745
764.0,-8.191,-1.633,2.225,0.837,-0.366,-0.728
768.0,-8.191,-1.633,2.225,0.837,-0.366,-0.728
772.0,-8.191,-1.633,2.225,0.837,-0.366,-0.728
776.0,-8.451,-1.627,2.331,0.851,-0.316,-0.692
780.0,-8.451,-1.627,2.331,0.851,-0.316,-0.692
784.0,-8.675,-1.656,2.408,0.869,-0.281,-0.643
787.0,-8.675,-1.656,2.408,0.869,-0.281,-0.643
791.0,-8.675,-1.656,2.408,0.869,-0.281,-0.643
795.0,-8.858,-1.694,2.411,0.891,-0.261,-0.589
799.0,-8.858,-1.694,2.411,0.891,-0.261,-0.589
803.0,-9.025,-1.731,2.386,0.891,-0.252,-0.536
807.0,-9.025,-1.731,2.386,0.915,-0.252,-0.536
811.0,-9.025,-1.731,2.386,0.915,-0.252,-0.536
815.0,-9.121,-1.732,2.302,0.939,-0.251,-0.489
819.0,-9.121,-1.732,2.302,0.939,-0.251,-0.489
823.0,-9.199,-1.741,2.192,0.939,-0.251,-0.447
827.0,-9.199,-1.741,2.192,0.956,-0.252,-0.447
830.0,-9.199,-1.741,2.192,0.956,-0.252,-0.447
834.0,-9.337,-1.682,2.058,0.967,-0.245,-0.406
838.0,-9.337,-1.682,2.058,0.967,-0.245,-0.406
842.0,-9.587,-1.63,1.895,0.967,-0.245,-0.406
846.0,-9.587,-1.63,1.895,0.968,-0.23,-0.361
850.0,-9.587,-1.63,1.895,0.968,-0.23,-0.361
854.0,-9.84,-1.587,1.741,0.961,-0.2,-0.306
858.0,-9.84,-1.587,1.741,0.961,-0.2,-0.306
862.0,-9.84,-1.541,1.682,0.961,-0.2,-0.306
866.0,-10.071,-1.541,1.682,0.947,-0.162,-0.242
870.0,-10.071,-1.541,1.682,0.947,-0.162,-0.242
874.0,-10.349,-1.506,1.607,0.931,-0.123,-0.174
878.0,-10.349,-1.506,1.607,0.931,-0.123,-0.174
882.0,-10.573,-1.465,1.565,0.931,-0.123,-0.174
886.0,-10.573,-1.465,1.565,0.912,-0.083,-0.103
890.0,-10.573,-1.465,1.565,0.912,-0.083,-0.103
894.0,-10.682,-1.421,1.569,0.887,-0.043,-0.033
898.0,-10.682,-1.421,1.569,0.887,-0.043,-0.033
902.0,-10.687,-1.374,1.634,0.887,-0.043,0.038
905.0,-10.687,-1.374,1.634,0.857,-0.006,0.038
909.0,-10.687,-1.374,1.634,0.857,-0.006,0.038
913.0,-10.646,-1.311,1.719,0.822,0.024,0.11
917.0,-10.646,-1.311,1.719,0.822,0.024,0.11
921.0,-10.646,-1.243,1.825,0.822,0.024,0.11
925.0,-10.598,-1.243,1.825,0.781,0.046,0.179
929.0,-10.598,-1.243,1.825,0.781,0.046,0.179
932.0,-10.619,-1.2,1.897,0.734,0.057,0.241
936.0,-10.619,-1.2,1.897,0.734,0.057,0.241
940.0,-10.619,-1.2,1.897,0.734,0.057,0.241
944.0,-10.653,-1.161,1.954,0.686,0.061,0.286
948.0,-10.653,-1.161,1.954,0.686,0.061,0.286
951.0,-10.55,-1.012,1.95,0.639,0.052,0.308
955.0,-10.55,-1.012,1.95,0.639,0.052,0.308
959.0,-10.55,-1.012,1.95,0.639,0.052,0.308
963.0,-10.311,-0.921,1.874,0.583,0.033,0.301
967.0,-10.311,-0.921,1.874,0.583,0.033,0.301
971.0,-9.979,-0.793,1.764,0.583,0.033,0.301
974.0,-9.979,-0.793,1.764,0.52,0.021,0.265
978.0,-9.979,-0.793,1.764,0.52,0.021,0.265
982.0,-9.685,-0.719,1.67,0.448,0.021,0.204
985.0,-9.685,-0.719,1.67,0.448,0.021,0.204
989.0,-9.685,-0.719,1.67,0.448,0.021,0.204
993.0,-9.528,-0.606,1.59,0.374,0.038,0.122
997.0,-9.528,-0.606,1.59,0.374,0.038,0.122
1000.0,-9.646,-0.512,1.5,0.374,0.065,0.026
1004.0,-9.646,-0.512,1.5,0.299,0.065,0.026
1008.0,-9.646,-0.512,1.5,0.299,0.065,0.026
1012.0,-10.116,-0.378,1.412,0.224,0.092,-0.079
1016.0,-10.116,-0.378,1.412,0.224,0.092,-0.079
1020.0,-10.736,-0.225,1.308,0.224,0.092,-0.079
1024.0,-10.736,-0.225,1.308,0.151,0.109,-0.178
1028.0,-10.736,-0.225,1.308,0.151,0.109,-0.178
1032.0,-11.18,0.456,1.857,0.072,0.119,-0.265
1036.0,-11.18,0.456,1.857,0.072,0.119,-0.265
1040.0,-11.231,1.487,2.949,0.072,0.119,-0.265
1044.0,-11.231,1.487,2.949,-0.063,0.103,-0.331
1048.0,-11.231,1.487,2.949,-0.063,0.103,-0.331
1052.0,-11.223,3.574,5.107,-0.309,0.03,-0.36
1056.0,-11.223,3.574,5.107,-0.309,0.03,-0.36
1060.0,-11.003,6.366,8.838,-0.309,0.03,-0.363
1064.0,-11.003,6.366,8.838,-0.798,-0.118,-0.363
1068.0,-11.003,6.366,8.838,-0.798,-0.118,-0.363
1072.0,-11.924,6.884,9.436,-1.403,-0.362,-0.306
1076.0,-11.924,6.884,9.436,-1.403,-0.362,-0.306
1080.0,-12.921,2.524,4.079,-1.972,-0.52,-0.245
1084.0,-12.921,2.524,4.079,-1.972,-0.52,-0.245
1088.0,-12.921,2.524,4.079,-1.972,-0.52,-0.245
1092.0,-10.965,-0.117,1.826,-2.256,-0.512,-0.254
1096.0,-10.965,-0.117,1.826,-2.256,-0.512,-0.254
1100.0,-9.066,-1.129,1.321,-2.285,-0.411,-0.293
1105.0,-9.066,-1.129,1.321,-2.285,-0.411,-0.293
1109.0,-8.531,-1.423,1.592,-2.285,-0.411,-0.293
1113.0,-8.531,-1.423,1.592,-2.183,-0.273,-0.288
1117.0,-8.531,-1.423,1.592,-2.183,-0.273,-0.288
1121.0,-9.015,-1.647,2.036,-2.002,-0.145,-0.215
1125.0,-9.015,-1.647,2.036,-2.002,-0.145,-0.215
1129.0,-9.599,-1.79,2.427,-1.748,-0.056,-0.102
1133.0,-9.599,-1.79,2.427,-1.748,-0.056,-0.102
1137.0,-9.599,-1.79,2.427,-1.748,-0.056,-0.102
1141.0,-9.814,-1.896,2.888,-1.447,-0.023,0.033
1145.0,-9.814,-1.896,2.888,-1.447,-0.023,0.033
1149.0,-9.641,-1.976,3.228,-1.121,-0.043,0.172
1153.0,-9.641,-1.976,3.228,-1.121,-0.043,0.172
1157.0,-9.641,-1.976,3.228,-1.121,-0.043,0.172
1161.0,-9.325,-2.016,3.333,-0.792,-0.087,0.302
1165.0,-9.325,-2.016,3.333,-0.792,-0.087,0.302
1169.0,-9.003,-2.065,3.211,-0.48,-0.122,0.42
1173.0,-9.003,-2.065,3.211,-0.48,-0.122,0.42
1177.0,-9.003,-2.065,3.211,-0.48,-0.122,0.42
1181.0,-8.69,-2.154,2.99,-0.196,-0.129,0.528
1185.0,-8.69,-2.154,2.99,-0.196,-0.129,0.528
1189.0,-8.403,-2.267,2.752,0.062,-0.101,0.625
1193.0,-8.403,-2.267,2.752,0.062,-0.101,0.625
1197.0,-8.403,-2.267,2.752,0.062,-0.101,0.625
1201.0,-8.172,-2.307,2.636,0.294,-0.043,0.716
1205.0,-8.172,-2.307,2.636,0.294,-0.043,0.716
1209.0,-8.075,-2.286,2.581,0.492,0.037,0.806
1212.0,-8.075,-2.286,2.581,0.492,0.037,0.806
1216.0,-8.075,-2.286,2.581,0.492,0.037,0.806
1220.0,-8.17,-2.226,2.56,0.65,0.137,0.901
1224.0,-8.17,-2.226,2.56,0.65,0.137,0.901
1228.0,-8.286,-2.188,2.631,0.776,0.244,1.005
1232.0,-8.286,-2.188,2.631,0.776,0.244,1.005
1235.0,-8.286,-2.188,2.631,0.776,0.244,1.005
1239.0,-8.3,-2.148,2.741,0.881,0.342,1.11
1243.0,-8.3,-2.148,2.741,0.881,0.342,1.11
1247.0,-8.218,-2.062,2.865,0.881,0.342,1.11
1251.0,-8.218,-2.062,2.865,0.97,0.418,1.202
1255.0,-8.218,-2.062,2.865,0.97,0.418,1.202
1258.0,-8.11,-1.941,2.926,1.049,0.467,1.274
1262.0,-8.11,-1.941,2.926,1.049,0.467,1.274
1266.0,-8.11,-1.941,2.926,1.049,0.467,1.274
1270.0,-8.002,-1.774,2.894,1.114,0.497,1.333
1274.0,-8.002,-1.774,2.894,1.114,0.497,1.333
1277.0,-7.908,-1.614,2.764,1.161,0.517,1.391
1281.0,-7.908,-1.614,2.764,1.161,0.517,1.391
1285.0,-7.908,-1.614,2.764,1.161,0.517,1.391
1289.0,-7.791,-1.457,2.591,1.186,0.539,1.458
1293.0,-7.791,-1.457,2.591,1.186,0.539,1.458
1297.0,-7.71,-1.371,2.416,1.186,0.539,1.534
1300.0,-7.71,-1.371,2.416,1.186,0.573,1.534
1304.0,-7.71,-1.371,2.416,1.186,0.573,1.534
1308.0,-7.708,-1.31,2.259,1.16,0.62,1.612
1312.0,-7.708,-1.31,2.259,1.16,0.62,1.612
1316.0,-7.708,-1.31,2.138,1.16,0.62,1.612
1319.0,-7.848,-1.263,2.138,1.111,0.671,1.685
1323.0,-7.848,-1.263,2.138,1.111,0.671,1.685
1327.0,-8.136,-1.239,2.048,1.036,0.723,1.744
1331.0,-8.136,-1.239,2.048,1.036,0.723,1.744
1335.0,-8.136,-1.239,2.048,1.036,0.723,1.744
1339.0,-8.515,-1.225,2.02,0.939,0.766,1.79
1342.0,-8.515,-1.225,2.02,0.939,0.766,1.79
1346.0,-8.953,-1.234,2.039,0.824,0.793,1.823
1350.0,-8.953,-1.234,2.039,0.824,0.793,1.823
1354.0,-8.953,-1.234,2.039,0.824,0.793,1.823
1358.0,-9.405,-1.24,2.107,0.696,0.8,1.837
1361.0,-9.405,-1.24,2.107,0.696,0.8,1.837
1365.0,-9.821,-1.26,2.172,0.696,0.8,1.837
1369.0,-9.821,-1.26,2.172,0.561,0.787,1.828
1373.0,-9.821,-1.26,2.172,0.561,0.787,1.828
1377.0,-10.168,-1.265,2.233,0.424,0.754,1.793
1381.0,-10.168,-1.265,2.233,0.424,0.754,1.793
1385.0,-10.168,-1.265,2.233,0.424,0.754,1.793
1388.0,-10.424,-1.239,2.249,0.282,0.707,1.728
1392.0,-10.424,-1.239,2.249,0.282,0.707,1.728
1396.0,-10.643,-1.208,2.27,0.138,0.652,1.634
1400.0,-10.643,-1.208,2.27,0.138,0.652,1.634
1404.0,-10.643,-1.208,2.27,0.138,0.652,1.634
1408.0,-10.862,-1.142,2.305,-0.011,0.587,1.504
1412.0,-10.862,-1.142,2.305,-0.011,0.587,1.504
1416.0,-11.021,-1.014,2.282,-0.164,0.51,1.333
1420.0,-11.021,-1.014,2.282,-0.164,0.51,1.333
1424.0,-11.021,-1.014,2.282,-0.164,0.51,1.333
1428.0,-11.014,-0.837,2.247,-0.324,0.427,1.121
1432.0,-11.014,-0.837,2.247,-0.324,0.427,1.121
1436.0,-10.844,-0.628,2.177,-0.49,0.343,0.876
1440.0,-10.844,-0.628,2.177,-0.49,0.343,0.876
1444.0,-10.844,-0.628,2.125,-0.49,0.343,0.876
1448.0,-10.539,-0.4,2.125,-0.657,0.267,0.617
1452.0,-10.539,-0.4,2.125,-0.657,0.267,0.617
1456.0,-10.232,-0.201,2.084,-0.82,0.204,0.357
1460.0,-10.232,-0.201,2.084,-0.82,0.204,0.357
1464.0,-10.232,-0.042,2.049,-0.82,0.204,0.357
1468.0,-9.986,-0.042,2.049,-0.97,0.156,0.11
1472.0,-9.986,-0.042,2.049,-0.97,0.156,0.11
